python_time,esp32_hw_time,sensor_name,ax,ay,az,gx,gy,gz,mx,my,mz,q0,q1,q2,q3,quat_roll,quat_pitch,quat_yaw,is_paused_flag,t_pose_flag
2026-06-16 16:16:42.669,2615929,L_Ankle,0.0472,-0.2651,0.9611,5.42,2.0,-9.58,17.15,35.18,-3.72,-0.747887,0.05417,0.114322,-0.651601,0.0,0.0,0.0,0,0
2026-06-16 16:16:42.670,2615808,R_Hip,-0.1738,-0.9869,0.0216,0.25,-2.29,2.78,-16.13,4.43,-39.08,0.146153,0.033265,0.649861,-0.745079,0.0,0.0,0.0,0,0
2026-06-16 16:16:42.673,2615949,L_Ankle,0.0144,-0.2612,0.9616,5.45,2.0,-9.58,0.0,0.0,0.0,-0.747887,0.054933,0.113651,-0.651692,0.0,0.0,0.0,0,0
2026-06-16 16:16:42.674,2615828,R_Hip,-0.1782,-0.9899,0.0115,0.27,-2.51,2.96,-14.5,4.98,-39.59,0.146855,0.032991,0.649861,-0.744987,0.0,0.0,0.0,0,0
2026-06-16 16:16:42.676,2615969,L_Ankle,0.0232,-0.2553,0.963,5.48,1.94,-9.54,15.72,36.62,-4.08,-0.747887,0.055757,0.112857,-0.651753,0.0,0.0,0.0,0,0
2026-06-16 16:16:42.679,2615929,L_Hip,-0.2703,0.8592,0.4187,-4.61,2.57,0.41,16.66,3.54,-36.61,0.855495,0.46556,0.207801,0.090396,0.0,0.0,0.0,0,0
2026-06-16 16:16:42.681,2615949,L_Hip,-0.2885,0.8533,0.4395,-4.61,2.46,0.35,16.33,5.14,-35.16,0.856014,0.465194,0.207312,0.088473,0.0,0.0,0.0,0,0
2026-06-16 16:16:42.685,2615969,L_Hip,-0.2968,0.8513,0.441,-4.62,2.42,0.32,0.0,0.0,0.0,0.856563,0.464766,0.206824,0.086459,0.0,0.0,0.0,0,0
2026-06-16 16:16:42.686,2615812,R_Hip,-0.1757,-0.9738,0.0389,0.38,-4.03,3.3,-15.4,4.43,-38.39,0.15305,0.030519,0.64919,-0.744407,0.0,0.0,0.0,0,0
2026-06-16 16:16:42.690,2615989,L_Hip,-0.3145,0.8278,0.4356,-4.63,2.33,0.31,14.97,3.83,-36.0,0.857143,0.464309,0.206336,0.084323,0.0,0.0,0.0,0,0
2026-06-16 16:16:42.691,2615832,R_Hip,-0.2043,-0.965,0.0177,0.38,-4.12,3.24,0.0,0.0,0.0,0.154668,0.029695,0.648885,-0.744377,0.0,0.0,0.0,0,0
2026-06-16 16:16:42.695,2615852,R_Hip,-0.2157,-0.9703,0.0216,0.39,-4.16,3.19,-15.95,5.34,-38.23,0.156316,0.028748,0.64861,-0.744316,0.0,0.0,0.0,0,0
2026-06-16 16:16:42.696,2615936,L_Shank,-0.004,-0.1971,0.9695,1.67,0.16,-1.28,17.54,32.97,-10.07,0.860469,-0.095981,-0.025025,0.49971,0.0,0.0,0.0,0,0
2026-06-16 16:16:42.699,2615872,R_Hip,-0.227,-0.9635,0.036,0.4,-4.29,3.08,-17.41,4.25,-39.25,0.158025,0.027772,0.648274,-0.744255,0.0,0.0,0.0,0,0
2026-06-16 16:16:42.700,2615937,L_Shank,0.0018,-0.1956,0.9662,1.67,0.25,-1.32,0.0,0.0,0.0,0.860866,-0.096164,-0.024659,0.499008,0.0,0.0,0.0,0,0
2026-06-16 16:16:42.703,2615957,L_Shank,-0.0103,-0.2025,0.983,1.67,0.35,-1.32,17.35,32.11,-9.28,0.861293,-0.096438,-0.024232,0.498215,0.0,0.0,0.0,0,0
2026-06-16 16:16:42.705,2615977,L_Shank,-0.0265,-0.201,0.9743,1.67,0.57,-1.35,16.14,33.99,-10.38,0.861751,-0.096805,-0.023682,0.497391,0.0,0.0,0.0,0,0
2026-06-16 16:16:42.708,2615941,L_Ankle,0.0227,-0.2514,0.9496,5.53,1.78,-9.3,15.39,35.2,-4.09,-0.747856,0.056734,0.111942,-0.651845,0.0,0.0,0.0,0,0
2026-06-16 16:16:42.712,2615961,L_Ankle,-0.0002,-0.2715,0.953,5.5,1.59,-8.9,16.1,36.26,-2.72,-0.747826,0.057772,0.110935,-0.651967,0.0,0.0,0.0,0,0
2026-06-16 16:16:42.714,2615981,L_Ankle,0.0256,-0.2568,0.9592,5.48,1.58,-8.74,0.0,0.0,0.0,-0.747795,0.058931,0.109775,-0.65212,0.0,0.0,0.0,0,0
2026-06-16 16:16:42.718,2616001,L_Ankle,0.0374,-0.2558,0.9443,5.41,1.83,-8.77,17.15,35.89,-2.7,-0.747703,0.060183,0.108524,-0.652272,0.0,0.0,0.0,0,0
2026-06-16 16:16:42.721,2615951,L_Hip,-0.3307,0.8238,0.4444,-4.61,2.25,0.32,15.96,3.84,-35.15,0.857753,0.46379,0.205817,0.082125,0.0,0.0,0.0,0,0
2026-06-16 16:16:42.722,2615971,L_Hip,-0.3419,0.8135,0.4506,-4.6,2.28,0.35,16.25,1.91,-34.56,0.858394,0.46324,0.205329,0.079867,0.0,0.0,0.0,0,0
2026-06-16 16:16:42.725,2615991,L_Hip,-0.3464,0.8116,0.4356,-4.61,2.29,0.35,15.15,4.0,-36.73,0.859035,0.46263,0.20484,0.077578,0.0,0.0,0.0,0,0
2026-06-16 16:16:42.727,2616011,L_Hip,-0.3552,0.7983,0.455,-4.58,2.37,0.41,0.0,0.0,0.0,0.859676,0.46205,0.204352,0.07532,0.0,0.0,0.0,0,0
2026-06-16 16:16:42.730,2615857,R_Ankle,-0.0912,-0.1469,1.0048,1.55,-0.26,0.57,-17.76,-21.04,-22.55,0.971099,-0.018097,-0.014191,0.237434,0.0,0.0,0.0,0,0
2026-06-16 16:16:42.730,2615962,L_Shank,-0.0509,-0.2044,0.9705,1.59,0.96,-1.33,17.35,33.8,-8.68,0.862209,-0.097293,-0.02295,0.496536,0.0,0.0,0.0,0,0
2026-06-16 16:16:42.733,2615877,R_Ankle,-0.102,-0.1464,1.0053,1.6,-0.13,0.58,0.0,0.0,0.0,0.970977,-0.017853,-0.013337,0.238075,0.0,0.0,0.0,0,0
2026-06-16 16:16:42.733,2615982,L_Shank,-0.0612,-0.2181,0.9575,1.59,1.04,-1.3,17.0,31.77,-8.96,0.862667,-0.097903,-0.022065,0.495682,0.0,0.0,0.0,0,0
2026-06-16 16:16:42.735,2615897,R_Ankle,-0.1054,-0.1355,1.0072,1.66,-0.01,0.61,-18.44,-21.37,-21.94,0.970824,-0.017579,-0.012299,0.238807,0.0,0.0,0.0,0,0
2026-06-16 16:16:42.735,2616002,L_Shank,-0.0582,-0.1985,0.9585,1.58,1.12,-1.29,0.0,0.0,0.0,0.863094,-0.098636,-0.021088,0.494858,0.0,0.0,0.0,0,0
2026-06-16 16:16:42.738,2615917,R_Ankle,-0.1074,-0.1196,1.0024,1.74,0.22,0.61,-18.25,-21.23,-20.24,0.970641,-0.017304,-0.011048,0.23954,0.0,0.0,0.0,0,0
2026-06-16 16:16:42.739,2616022,L_Shank,-0.0758,-0.2157,0.9618,1.56,1.24,-1.24,15.44,31.96,-10.35,0.863491,-0.099429,-0.01999,0.494003,0.0,0.0,0.0,0,0
2026-06-16 16:16:42.740,2615862,R_Hip,-0.2606,-0.9557,0.0423,0.43,-4.35,2.9,-17.41,5.72,-40.28,0.159734,0.026734,0.647938,-0.744255,0.0,0.0,0.0,0,0
2026-06-16 16:16:42.741,2615964,L_Ankle,0.0536,-0.2509,0.9285,5.29,2.77,-9.33,17.83,35.87,-4.05,-0.747612,0.061434,0.107181,-0.652486,0.0,0.0,0.0,0,0
2026-06-16 16:16:42.743,2615882,R_Hip,-0.2833,-0.9528,0.0495,0.43,-4.37,2.88,0.0,0.0,0.0,0.161473,0.025727,0.647542,-0.744224,0.0,0.0,0.0,0,0
2026-06-16 16:16:42.744,2615984,L_Ankle,0.0477,-0.2431,0.9265,5.16,3.69,-9.81,15.24,35.39,-2.56,-0.74752,0.062777,0.105777,-0.65273,0.0,0.0,0.0,0,0
2026-06-16 16:16:42.746,2615902,R_Hip,-0.2803,-0.9528,0.05,0.45,-4.36,2.9,-17.59,5.9,-39.43,0.163244,0.024751,0.647114,-0.744255,0.0,0.0,0.0,0,0
2026-06-16 16:16:42.746,2616004,L_Ankle,0.0536,-0.2475,0.9198,5.05,4.23,-10.03,17.35,35.71,-1.85,-0.747398,0.064119,0.104343,-0.652944,0.0,0.0,0.0,0,0
2026-06-16 16:16:42.748,2615922,R_Hip,-0.3055,-0.9479,0.0707,0.48,-4.39,2.89,-17.96,5.16,-38.74,0.165075,0.023835,0.646718,-0.744255,0.0,0.0,0.0,0,0
2026-06-16 16:16:42.749,2616024,L_Ankle,-2.0366,-0.0999,1.9561,5.2,1.61,-8.36,0.0,0.0,0.0,-0.747276,0.065462,0.102847,-0.653188,0.0,0.0,0.0,0,0
2026-06-16 16:16:42.752,2616009,L_Ankle,-0.4629,-0.2412,1.084,5.29,0.02,-8.2,16.5,34.49,-1.35,-0.747154,0.066836,0.10123,-0.653462,0.0,0.0,0.0,0,0
2026-06-16 16:16:42.752,2615875,R_Shank,-0.1195,-1.8328,1.0056,-0.22,-2.15,-8.88,-4.73,-26.65,-15.27,0.679342,0.04355,0.082705,-0.727805,0.0,0.0,0.0,0,0
2026-06-16 16:16:42.754,2616029,L_Ankle,0.033,-0.1928,0.9342,5.5,-0.36,-8.46,17.35,35.71,-1.85,-0.746971,0.068148,0.099643,-0.653768,0.0,0.0,0.0,0,0
2026-06-16 16:16:42.755,2615895,R_Shank,-0.1205,-2.2216,0.9898,-0.21,-2.06,-8.78,0.0,0.0,0.0,0.679128,0.042756,0.082278,-0.728111,0.0,0.0,0.0,0,0
2026-06-16 16:16:42.757,2616049,L_Ankle,-0.0777,-0.2465,0.9285,5.38,0.11,-10.77,0.0,0.0,0.0,-0.746727,0.069399,0.098117,-0.654134,0.0,0.0,0.0,0,0
2026-06-16 16:16:42.758,2615915,R_Shank,-0.1131,1.8908,1.0013,-0.2,-1.96,-8.69,-3.89,-27.15,-13.63,0.679006,0.042116,0.081912,-0.728294,0.0,0.0,0.0,0,0
2026-06-16 16:16:42.759,2616069,L_Ankle,-0.0742,-0.2553,0.94,5.45,-0.12,-10.93,18.38,35.69,-2.85,-0.7463,0.07065,0.096683,-0.654714,0.0,0.0,0.0,0,0
2026-06-16 16:16:42.760,2615935,R_Shank,-0.1131,-0.2916,1.0066,-0.18,-1.88,-8.59,0.0,0.0,0.0,0.679006,0.041536,0.081606,-0.728385,0.0,0.0,0.0,0,0
2026-06-16 16:16:42.761,2616011,L_Shank,-0.1257,-0.2127,0.9518,1.56,1.46,-1.03,16.82,32.27,-8.5,0.863857,-0.100345,-0.018799,0.49321,0.0,0.0,0.0,0,0
2026-06-16 16:16:42.763,2616031,L_Shank,-0.1252,-0.2264,0.9331,1.55,1.49,-0.99,17.0,32.11,-8.96,0.864193,-0.101352,-0.017457,0.492477,0.0,0.0,0.0,0,0
2026-06-16 16:16:42.766,2616051,L_Shank,-0.1374,-0.2225,0.934,1.54,1.51,-0.94,0.0,0.0,0.0,0.864498,-0.10239,-0.015992,0.491806,0.0,0.0,0.0,0,0
2026-06-16 16:16:42.768,2616071,L_Shank,-0.1501,-0.2166,0.9422,1.55,1.52,-0.9,17.87,32.27,-8.82,0.864742,-0.103519,-0.014466,0.491134,0.0,0.0,0.0,0,0
2026-06-16 16:16:42.775,2615902,R_Ankle,-0.1064,-0.1216,1.0062,1.83,0.61,0.51,-18.79,-22.33,-21.62,0.970489,-0.016968,-0.009613,0.240272,0.0,0.0,0.0,0,0
2026-06-16 16:16:42.777,2615922,R_Ankle,-0.1314,-0.1241,0.9957,1.87,0.7,0.5,0.0,0.0,0.0,0.970336,-0.016602,-0.007996,0.240974,0.0,0.0,0.0,0,0
2026-06-16 16:16:42.777,2616036,L_Shank,-0.1838,-0.2161,0.9316,1.57,1.45,-0.85,16.48,33.3,-9.13,0.864986,-0.104648,-0.012909,0.490524,0.0,0.0,0.0,0,0
2026-06-16 16:16:42.780,2616056,L_Shank,-0.1985,-0.2206,0.9403,1.58,1.42,-0.84,15.25,33.45,-8.03,0.86523,-0.105747,-0.011292,0.489944,0.0,0.0,0.0,0,0
2026-06-16 16:16:42.781,2615942,R_Ankle,-0.1309,-0.1221,1.0101,1.89,0.77,0.47,-17.26,-21.51,-23.0,0.970183,-0.016236,-0.006287,0.241615,0.0,0.0,0.0,0,0
2026-06-16 16:16:42.783,2616076,L_Shank,-0.2009,-0.2157,0.9302,1.58,1.3,-0.83,0.0,0.0,0.0,0.865444,-0.106906,-0.009705,0.489334,0.0,0.0,0.0,0,0
2026-06-16 16:16:42.784,2615962,R_Ankle,-0.1343,-0.1087,0.9904,1.91,0.87,0.41,-17.92,-19.94,-21.79,0.970061,-0.015931,-0.004395,0.242256,0.0,0.0,0.0,0,0
2026-06-16 16:16:42.786,2616096,L_Shank,-0.2278,-0.2176,0.923,1.58,1.24,-0.84,16.13,33.63,-8.82,0.865627,-0.108005,-0.008087,0.488784,0.0,0.0,0.0,0,0
2026-06-16 16:16:42.788,2616041,L_Hip,-0.3905,0.7899,0.4579,-4.55,2.47,0.55,14.46,4.3,-35.56,0.860286,0.46144,0.203955,0.073061,0.0,0.0,0.0,0,0
2026-06-16 16:16:42.790,2616061,L_Hip,-0.3964,0.7727,0.4749,-4.51,2.57,0.66,13.96,3.81,-36.57,0.860866,0.460829,0.203619,0.070833,0.0,0.0,0.0,0,0
2026-06-16 16:16:42.793,2616042,L_Hip,-0.4057,0.7762,0.4642,-4.5,2.61,0.72,15.14,4.32,-35.86,0.861476,0.460189,0.203345,0.068667,0.0,0.0,0.0,0,0
2026-06-16 16:16:42.795,2616062,L_Hip,-0.4194,0.7811,0.4778,-4.46,2.74,0.87,0.0,0.0,0.0,0.862026,0.459548,0.203101,0.066561,0.0,0.0,0.0,0,0
2026-06-16 16:16:42.803,2616062,L_Shank,-0.2972,-0.2294,0.9095,1.67,0.0,-0.66,15.77,31.25,-8.16,0.866512,-0.11298,-0.000946,0.48616,0.0,0.0,0.0,0,0
2026-06-16 16:16:42.807,2616082,L_Shank,-0.3133,-0.2372,0.9014,1.68,-0.13,-0.61,15.59,31.07,-8.0,0.866634,-0.113804,0.000153,0.485763,0.0,0.0,0.0,0,0
2026-06-16 16:16:42.808,2616102,L_Shank,-0.3177,-0.2406,0.9201,1.7,-0.38,-0.5,0.0,0.0,0.0,0.866726,-0.114505,0.00119,0.485427,0.0,0.0,0.0,0,0
2026-06-16 16:16:42.811,2616122,L_Shank,-0.3206,-0.2343,0.922,1.71,-0.51,-0.42,16.3,31.77,-8.95,0.866756,-0.115238,0.002106,0.485183,0.0,0.0,0.0,0,0
2026-06-16 16:16:42.813,2616064,L_Hip,-0.4199,0.7786,0.4855,-4.39,2.95,1.13,14.83,5.6,-35.86,0.862545,0.458907,0.202918,0.064547,0.0,0.0,0.0,0,0
2026-06-16 16:16:42.815,2616084,L_Hip,-0.4341,0.7629,0.4889,-4.35,3.11,1.34,13.48,4.61,-36.71,0.863063,0.458296,0.202795,0.062654,0.0,0.0,0.0,0,0
2026-06-16 16:16:42.818,2616104,L_Hip,-0.4391,0.7615,0.4787,-4.34,3.2,1.48,14.83,5.6,-36.15,0.863521,0.457717,0.202673,0.060945,0.0,0.0,0.0,0,0
2026-06-16 16:16:42.820,2615947,R_Ankle,-0.1471,-0.1023,0.9971,1.92,1.03,0.35,-16.89,-21.21,-20.54,0.969909,-0.015564,-0.002441,0.242836,0.0,0.0,0.0,0,0
2026-06-16 16:16:42.822,2616124,L_Hip,-0.4425,0.757,0.5044,-4.3,3.4,1.73,13.48,5.25,-36.42,0.863918,0.457137,0.202643,0.059359,0.0,0.0,0.0,0,0
2026-06-16 16:16:42.823,2615967,R_Ankle,-0.1535,-0.1166,0.988,1.93,1.03,0.34,0.0,0.0,0.0,0.969787,-0.015198,-0.000397,0.243416,0.0,0.0,0.0,0,0
2026-06-16 16:16:42.825,2615987,R_Ankle,-0.1613,-0.1028,0.9919,1.93,1.03,0.32,-17.94,-21.83,-22.7,0.969665,-0.014863,0.001648,0.243934,0.0,0.0,0.0,0,0
2026-06-16 16:16:42.828,2616087,L_Shank,-0.3211,-0.2225,0.9129,1.74,-1.05,-0.1,16.3,32.45,-8.96,0.866756,-0.115818,0.002899,0.485031,0.0,0.0,0.0,0,0
2026-06-16 16:16:42.829,2616007,R_Ankle,-0.1755,-0.1077,0.9947,1.91,1.03,0.28,-16.89,-19.61,-21.79,0.969512,-0.014557,0.003723,0.244453,0.0,0.0,0.0,0,0
2026-06-16 16:16:42.831,2616107,L_Shank,-0.3128,-0.223,0.91,1.74,-1.2,-0.03,16.47,30.57,-8.47,0.866695,-0.116276,0.003571,0.485,0.0,0.0,0.0,0,0
2026-06-16 16:16:42.834,2616127,L_Shank,-0.3265,-0.2235,0.9115,1.76,-1.47,0.11,15.6,31.09,-8.94,0.866604,-0.116642,0.004089,0.485122,0.0,0.0,0.0,0,0
2026-06-16 16:16:42.836,2615963,R_Hip,-0.3267,-0.9494,0.0649,0.55,-4.36,2.96,-18.14,6.08,-38.57,0.166967,0.02295,0.646199,-0.744285,0.0,0.0,0.0,0,0
2026-06-16 16:16:42.838,2616147,L_Shank,-0.3109,-0.2289,0.9196,1.77,-1.61,0.17,0.0,0.0,0.0,0.866451,-0.116886,0.004456,0.485336,0.0,0.0,0.0,0,0
2026-06-16 16:16:42.838,2615983,R_Hip,-0.3572,-0.9474,0.0717,0.56,-4.34,3.0,0.0,0.0,0.0,0.168889,0.022156,0.645711,-0.744316,0.0,0.0,0.0,0,0
2026-06-16 16:16:42.842,2616003,R_Hip,-0.3627,-0.9328,0.0707,0.56,-4.29,3.05,-18.5,6.07,-37.55,0.170843,0.021455,0.645192,-0.744316,0.0,0.0,0.0,0,0
2026-06-16 16:16:42.845,2616023,R_Hip,-0.3745,-0.9332,0.0712,0.58,-4.22,3.11,-16.86,4.43,-38.74,0.172887,0.020905,0.644673,-0.744346,0.0,0.0,0.0,0,0
2026-06-16 16:16:42.849,2615966,R_Shank,-0.0994,3.1796,0.9946,-0.11,-1.48,-8.12,-4.91,-26.8,-13.92,0.679098,0.041078,0.081332,-0.728355,0.0,0.0,0.0,0,0
2026-06-16 16:16:42.851,2616110,L_Hip,-0.4376,0.7546,0.4952,-4.19,3.87,2.3,15.15,4.32,-36.15,0.864284,0.456648,0.202643,0.058016,0.0,0.0,0.0,0,0
2026-06-16 16:16:42.851,2615986,R_Shank,-0.0861,1.5088,1.0056,-0.09,-1.38,-8.0,-5.07,-27.29,-13.77,0.679281,0.040712,0.081149,-0.728202,0.0,0.0,0.0,0,0
2026-06-16 16:16:42.854,2616006,R_Shank,-0.091,2.2796,0.9874,-0.06,-1.18,-7.77,0.0,0.0,0.0,0.679586,0.040468,0.080996,-0.727958,0.0,0.0,0.0,0,0
2026-06-16 16:16:42.855,2616130,L_Hip,-0.4464,0.7546,0.4865,-4.19,3.98,2.45,13.27,3.47,-35.68,0.86462,0.45613,0.202704,0.056856,0.0,0.0,0.0,0,0
2026-06-16 16:16:42.857,2616026,R_Shank,-0.0984,2.2796,0.9917,-0.04,-1.06,-7.64,-5.09,-26.3,-13.76,0.679983,0.040407,0.080966,-0.727592,0.0,0.0,0.0,0,0
2026-06-16 16:16:42.858,2616150,L_Hip,-0.4562,0.7605,0.4952,-4.16,4.14,2.59,14.31,5.11,-35.71,0.864864,0.455733,0.202826,0.055971,0.0,0.0,0.0,0,0
2026-06-16 16:16:42.861,2616170,L_Hip,-0.4562,0.759,0.4899,-4.11,4.39,2.87,14.49,4.31,-37.3,0.865078,0.455367,0.203009,0.05533,0.0,0.0,0.0,0,0
2026-06-16 16:16:42.861,2616046,R_Shank,-0.0827,0.3496,1.0104,0.02,-0.65,-7.21,-5.42,-25.96,-14.36,0.680502,0.040468,0.080966,-0.727103,0.0,0.0,0.0,0,0
2026-06-16 16:16:42.863,2616066,R_Shank,-0.0807,1.12,0.996,0.03,-0.52,-7.1,-5.58,-26.79,-14.51,0.681082,0.04062,0.081027,-0.726524,0.0,0.0,0.0,0,0
2026-06-16 16:16:42.865,2616086,R_Shank,-0.0768,2.0204,0.9989,0.06,-0.3,-6.9,0.0,0.0,0.0,0.681784,0.040925,0.081179,-0.725852,0.0,0.0,0.0,0,0
2026-06-16 16:16:42.868,2616106,R_Shank,-0.0734,0.3496,1.0013,0.07,-0.16,-6.8,-4.23,-26.49,-14.83,0.682577,0.041353,0.081423,-0.725059,0.0,0.0,0.0,0,0
2026-06-16 16:16:42.870,2615970,R_Ankle,-0.1907,-0.0983,0.9904,1.88,0.94,0.3,-16.74,-21.67,-21.92,0.96939,-0.014222,0.005829,0.244972,0.0,0.0,0.0,0,0
2026-06-16 16:16:42.872,2615990,R_Ankle,-0.1971,-0.0983,0.9938,1.86,0.89,0.32,0.0,0.0,0.0,0.969268,-0.013916,0.007935,0.24546,0.0,0.0,0.0,0,0
2026-06-16 16:16:42.874,2616010,R_Ankle,-0.2074,-0.0924,0.9746,1.82,0.83,0.32,-18.25,-19.3,-21.81,0.969115,-0.013581,0.010041,0.245979,0.0,0.0,0.0,0,0
2026-06-16 16:16:42.876,2616030,R_Ankle,-0.2093,-0.083,0.9876,1.78,0.7,0.31,-17.94,-21.19,-23.01,0.968963,-0.013306,0.012085,0.246498,0.0,0.0,0.0,0,0
2026-06-16 16:16:42.879,2615987,R_Hip,-0.3918,-0.9206,0.076,0.58,-4.01,3.19,-18.14,5.71,-37.89,0.174932,0.020447,0.644124,-0.744346,0.0,0.0,0.0,0,0
2026-06-16 16:16:42.881,2616007,R_Hip,-0.4105,-0.9162,0.0909,0.57,-3.93,3.2,0.0,0.0,0.0,0.176977,0.020112,0.643574,-0.744346,0.0,0.0,0.0,0,0
2026-06-16 16:16:42.883,2616027,R_Hip,-0.4233,-0.9171,0.0981,0.57,-3.83,3.19,-17.77,6.44,-38.23,0.178991,0.019898,0.643025,-0.744346,0.0,0.0,0.0,0,0
2026-06-16 16:16:42.887,2616144,L_Ankle,-0.0718,-0.2539,0.9554,5.43,-0.9,-10.22,16.82,34.83,-2.37,-0.74575,0.071841,0.095248,-0.655416,0.0,0.0,0.0,0,0
2026-06-16 16:16:42.888,2616047,R_Hip,-0.4243,-0.9162,0.0842,0.52,-3.58,3.19,-18.14,5.35,-38.91,0.180944,0.019837,0.642476,-0.744316,0.0,0.0,0.0,0,0
2026-06-16 16:16:42.891,2616011,R_Shank,-0.1696,-0.8164,0.9754,0.19,1.0,-6.82,-6.74,-26.94,-15.25,0.686697,0.046083,0.084109,-0.720573,0.0,0.0,0.0,0,0
2026-06-16 16:16:42.892,2616164,L_Ankle,-0.0615,-0.2573,0.9558,5.45,-1.25,-10.14,16.62,35.72,-3.22,-0.745293,0.073214,0.093753,-0.656026,0.0,0.0,0.0,0,0
2026-06-16 16:16:42.895,2616031,R_Shank,-0.1745,-0.046,0.971,0.2,1.07,-6.9,-4.57,-27.46,-13.02,0.687338,0.047426,0.084933,-0.719749,0.0,0.0,0.0,0,0
2026-06-16 16:16:42.896,2616184,L_Ankle,-0.06,-0.2519,0.9544,5.41,-1.37,-10.27,17.69,34.99,-2.52,-0.745018,0.074801,0.091983,-0.656392,0.0,0.0,0.0,0,0
2026-06-16 16:16:42.899,2616051,R_Shank,-0.1941,0.7248,0.9759,0.21,1.19,-7.04,0.0,0.0,0.0,0.687887,0.048891,0.085849,-0.719016,0.0,0.0,0.0,0,0
2026-06-16 16:16:42.900,2616204,L_Ankle,-0.0551,-0.2553,0.9414,5.38,-1.58,-10.57,0.0,0.0,0.0,-0.745018,0.076815,0.089938,-0.656423,0.0,0.0,0.0,0,0
2026-06-16 16:16:42.903,2616071,R_Shank,-0.2138,1.366,0.9658,0.22,1.23,-7.09,-6.24,-27.11,-15.11,0.688406,0.050447,0.086886,-0.718314,0.0,0.0,0.0,0,0
2026-06-16 16:16:42.904,2616154,L_Hip,-0.4425,0.7629,0.4855,-4.07,5.0,3.41,12.62,5.4,-35.39,0.865169,0.455061,0.203253,0.054933,0.0,0.0,0.0,0,0
2026-06-16 16:16:42.906,2616174,L_Hip,-0.4435,0.7742,0.4879,-4.07,5.13,3.51,0.0,0.0,0.0,0.86523,0.454817,0.203619,0.054781,0.0,0.0,0.0,0,0
2026-06-16 16:16:42.909,2616194,L_Hip,-0.4258,0.7742,0.484,-4.07,5.27,3.63,15.16,4.96,-36.15,0.86523,0.454634,0.204047,0.054903,0.0,0.0,0.0,0,0
2026-06-16 16:16:42.912,2616214,L_Hip,-0.4278,0.7698,0.4719,-4.07,5.49,3.88,14.65,4.47,-36.29,0.865139,0.454512,0.204566,0.055269,0.0,0.0,0.0,0,0
2026-06-16 16:16:42.915,2616162,L_Shank,-0.2923,-0.225,0.9129,1.75,-2.09,0.41,16.64,32.09,-8.03,0.866268,-0.117038,0.004639,0.485641,0.0,0.0,0.0,0,0
2026-06-16 16:16:42.918,2616182,L_Shank,-0.282,-0.2269,0.9172,1.74,-2.19,0.5,17.0,30.75,-8.95,0.866024,-0.11713,0.004608,0.486038,0.0,0.0,0.0,0,0
2026-06-16 16:16:42.921,2616202,L_Shank,-0.2742,-0.2181,0.9172,1.74,-2.34,0.58,0.0,0.0,0.0,0.865749,-0.1171,0.004456,0.486526,0.0,0.0,0.0,0,0
2026-06-16 16:16:42.926,2616222,L_Shank,-0.2625,-0.2171,0.9307,1.75,-2.52,0.73,17.88,31.6,-9.12,0.865413,-0.116916,0.00412,0.487136,0.0,0.0,0.0,0,0
2026-06-16 16:16:42.929,2616055,R_Shank,-0.2579,0.7248,0.9672,0.19,1.35,-7.23,-5.24,-26.79,-14.21,0.688833,0.052095,0.088015,-0.717643,0.0,0.0,0.0,0,0
2026-06-16 16:16:42.930,2616176,L_Hip,-0.4219,0.7855,0.4918,-4.01,5.91,4.32,13.28,4.44,-35.11,0.865017,0.454451,0.205084,0.055879,0.0,0.0,0.0,0,0
2026-06-16 16:16:42.932,2616075,R_Shank,-0.2707,-1.7168,0.9595,0.2,1.35,-7.24,0.0,0.0,0.0,0.689261,0.053774,0.089206,-0.716971,0.0,0.0,0.0,0,0
2026-06-16 16:16:42.935,2616196,L_Hip,-0.4116,0.786,0.4744,-4.0,6.03,4.43,0.0,0.0,0.0,0.864834,0.454421,0.205664,0.056703,0.0,0.0,0.0,0,0
2026-06-16 16:16:42.936,2616095,R_Shank,-0.2795,-0.946,0.9528,0.2,1.34,-7.22,-5.55,-27.79,-14.82,0.689657,0.055513,0.090457,-0.716269,0.0,0.0,0.0,0,0
2026-06-16 16:16:42.939,2616216,L_Hip,-0.3983,0.7782,0.4637,-3.98,6.1,4.5,14.81,4.31,-36.15,0.86462,0.454421,0.206275,0.057741,0.0,0.0,0.0,0,0
2026-06-16 16:16:42.939,2616115,R_Shank,-0.2938,-3.1284,0.9672,0.19,1.32,-7.21,-6.62,-25.44,-13.59,0.690085,0.057253,0.091708,-0.715567,0.0,0.0,0.0,0,0
2026-06-16 16:16:42.942,2616236,L_Hip,-0.3905,0.7786,0.4773,-3.93,6.22,4.69,13.6,3.48,-35.69,0.864315,0.454512,0.206946,0.058992,0.0,0.0,0.0,0,0
2026-06-16 16:16:42.943,2616062,R_Hip,-0.4495,-0.921,0.1082,0.45,-3.07,2.95,-19.96,7.17,-38.24,0.182745,0.019868,0.642048,-0.744285,0.0,0.0,0.0,0,0
2026-06-16 16:16:42.945,2616187,L_Shank,-0.2366,-0.2137,0.9316,1.77,-2.88,0.91,16.82,32.26,-7.88,0.865047,-0.116642,0.003632,0.487869,0.0,0.0,0.0,0,0
2026-06-16 16:16:42.945,2616082,R_Hip,-0.4618,-0.9025,0.1029,0.44,-2.93,2.86,0.0,0.0,0.0,0.184393,0.02002,0.641591,-0.744255,0.0,0.0,0.0,0,0
2026-06-16 16:16:42.947,2616207,L_Shank,-0.2209,-0.2088,0.9268,1.77,-2.96,0.89,17.34,32.44,-8.35,0.864681,-0.116276,0.003052,0.488662,0.0,0.0,0.0,0,0
2026-06-16 16:16:42.948,2616102,R_Hip,-0.4682,-0.9093,0.1073,0.43,-2.78,2.74,-19.05,5.89,-38.4,0.185858,0.020264,0.641224,-0.744224,0.0,0.0,0.0,0,0
2026-06-16 16:16:42.951,2616227,L_Shank,-0.2209,-0.2166,0.9331,1.75,-3.11,0.87,16.48,31.26,-9.1,0.864254,-0.115787,0.002319,0.489486,0.0,0.0,0.0,0,0
2026-06-16 16:16:42.952,2616122,R_Hip,-0.4643,-0.8981,0.1198,0.41,-2.47,2.52,-19.42,6.63,-38.75,0.187078,0.020569,0.640858,-0.744194,0.0,0.0,0.0,0,0
2026-06-16 16:16:42.954,2616247,L_Shank,-0.2014,-0.225,0.9302,1.76,-3.16,0.87,0.0,0.0,0.0,0.863887,-0.115268,0.001434,0.49028,0.0,0.0,0.0,0,0
2026-06-16 16:16:42.955,2616077,R_Shank,-0.3851,-1.5936,0.9576,-0.14,-2.59,-9.56,-6.26,-26.45,-14.5,0.693045,0.074801,0.103122,-0.709525,0.0,0.0,0.0,0,0
2026-06-16 16:16:42.957,2616199,L_Hip,-0.3773,0.7939,0.4744,-3.84,6.4,5.04,14.12,3.97,-35.84,0.86401,0.454634,0.207617,0.060335,0.0,0.0,0.0,0,0
2026-06-16 16:16:42.958,2616097,R_Shank,-0.3895,1.6184,0.9441,-0.16,-2.81,-9.7,-6.4,-27.93,-14.36,0.692557,0.074526,0.102939,-0.710044,0.0,0.0,0.0,0,0
2026-06-16 16:16:42.960,2616219,L_Hip,-0.3665,0.8057,0.4676,-3.83,6.42,5.11,0.0,0.0,0.0,0.863643,0.454848,0.208258,0.061892,0.0,0.0,0.0,0,0
2026-06-16 16:16:42.962,2616117,R_Shank,-0.3713,-0.564,0.9566,-0.18,-2.93,-9.75,0.0,0.0,0.0,0.692038,0.074068,0.102603,-0.710654,0.0,0.0,0.0,0,0
2026-06-16 16:16:42.963,2616239,L_Hip,-0.3684,0.8076,0.4666,-3.81,6.45,5.16,14.46,3.98,-35.85,0.863247,0.455092,0.208838,0.06357,0.0,0.0,0.0,0,0
2026-06-16 16:16:42.965,2616137,R_Shank,-0.3551,2.7776,0.9514,-0.19,-3.09,-9.82,-6.23,-27.44,-15.11,0.691458,0.073458,0.102176,-0.711325,0.0,0.0,0.0,0,0
2026-06-16 16:16:42.966,2616259,L_Hip,-0.3567,0.8106,0.4579,-3.81,6.51,5.25,15.78,3.36,-35.0,0.862789,0.455428,0.209418,0.065371,0.0,0.0,0.0,0,0
2026-06-16 16:16:42.969,2616082,R_Ankle,-0.2294,-0.0859,0.9713,1.64,0.33,0.32,-18.79,-21.68,-22.86,0.96881,-0.013001,0.014008,0.247017,0.0,0.0,0.0,0,0
2026-06-16 16:16:42.969,2616211,L_Shank,-0.1838,-0.2132,0.9331,1.79,-3.35,0.9,17.7,31.42,-8.65,0.863491,-0.114689,0.000458,0.491104,0.0,0.0,0.0,0,0
2026-06-16 16:16:42.972,2616102,R_Ankle,-0.2216,-0.078,0.9607,1.63,0.23,0.31,0.0,0.0,0.0,0.968627,-0.012696,0.015809,0.247566,0.0,0.0,0.0,0,0
2026-06-16 16:16:42.973,2616212,L_Shank,-0.175,-0.2289,0.9345,1.8,-3.38,0.9,18.04,32.43,-8.05,0.863124,-0.114048,-0.00058,0.491928,0.0,0.0,0.0,0,0
2026-06-16 16:16:42.976,2616122,R_Ankle,-0.2319,-0.0815,0.9727,1.59,0.12,0.28,-17.25,-20.88,-22.08,0.968474,-0.012452,0.017518,0.248085,0.0,0.0,0.0,0,0
2026-06-16 16:16:42.976,2616232,L_Shank,-0.1731,-0.2113,0.9379,1.8,-3.41,0.9,17.17,31.25,-8.8,0.862728,-0.113346,-0.00174,0.492752,0.0,0.0,0.0,0,0
2026-06-16 16:16:42.981,2616142,R_Ankle,-0.2319,-0.0755,0.9689,1.49,-0.12,0.14,-17.59,-21.52,-22.08,0.968322,-0.012177,0.019044,0.248573,0.0,0.0,0.0,0,0
2026-06-16 16:16:42.982,2616252,L_Shank,-0.1579,-0.2117,0.9383,1.83,-3.45,0.9,18.04,32.77,-8.05,0.862331,-0.112613,-0.00293,0.493606,0.0,0.0,0.0,0,0
2026-06-16 16:16:42.985,2616087,R_Hip,-0.4672,-0.8986,0.1102,0.37,-1.87,2.13,-19.78,5.53,-37.72,0.188055,0.020966,0.640522,-0.744224,0.0,0.0,0.0,0,0
2026-06-16 16:16:42.986,2616221,L_Hip,-0.3356,0.8238,0.4584,-3.78,6.56,5.35,14.45,3.34,-36.14,0.862331,0.455763,0.209967,0.067263,0.0,0.0,0.0,0,0
2026-06-16 16:16:42.989,2616107,R_Hip,-0.4608,-0.901,0.1193,0.35,-1.7,2.0,0.0,0.0,0.0,0.188818,0.021424,0.640278,-0.744224,0.0,0.0,0.0,0,0
2026-06-16 16:16:42.989,2616222,L_Hip,-0.3287,0.814,0.4482,-3.77,6.58,5.35,0.0,0.0,0.0,0.861843,0.45616,0.210486,0.069216,0.0,0.0,0.0,0,0
2026-06-16 16:16:42.991,2616242,L_Hip,-0.3248,0.8145,0.4468,-3.79,6.56,5.37,15.64,3.52,-36.01,0.861324,0.456587,0.210974,0.0712,0.0,0.0,0.0,0,0
2026-06-16 16:16:42.992,2616127,R_Hip,-0.4662,-0.9059,0.1275,0.34,-1.58,1.89,-18.32,6.62,-38.06,0.189306,0.021912,0.640065,-0.744285,0.0,0.0,0.0,0,0
2026-06-16 16:16:42.994,2616147,R_Hip,-0.4554,-0.9162,0.1135,0.31,-1.3,1.57,-19.6,6.81,-39.95,0.18952,0.022401,0.639912,-0.744346,0.0,0.0,0.0,0,0
2026-06-16 16:16:42.994,2616262,L_Hip,-0.3233,0.817,0.4482,-3.77,6.56,5.36,16.14,4.01,-35.29,0.860805,0.457045,0.211463,0.073244,0.0,0.0,0.0,0,0
2026-06-16 16:16:42.997,2616100,R_Shank,-0.3188,2.266,0.9552,-0.27,-3.35,-9.83,-4.24,-26.81,-13.32,0.690878,0.072695,0.101688,-0.712027,0.0,0.0,0.0,0,0
2026-06-16 16:16:42.998,2616235,L_Ankle,-0.0439,-0.2514,0.9544,5.39,-2.0,-10.59,18.93,35.51,-1.65,-0.745262,0.079348,0.087436,-0.656209,0.0,0.0,0.0,0,0
2026-06-16 16:16:43.000,2616255,L_Ankle,-0.035,-0.2509,0.9419,5.4,-2.13,-10.59,16.83,35.54,-1.69,-0.7434,0.081851,0.084902,-0.658315,0.0,0.0,0.0,0,0
2026-06-16 16:16:43.000,2616120,R_Shank,-0.308,-1.7168,0.9566,-0.3,-3.41,-9.83,-5.91,-27.44,-13.61,0.690329,0.07181,0.101138,-0.71276,0.0,0.0,0.0,0,0
2026-06-16 16:16:43.003,2616275,L_Ankle,-0.0311,-0.2558,0.9626,5.37,-2.33,-10.7,16.99,34.65,-2.88,-0.742027,0.082339,0.086215,-0.659627,0.0,0.0,0.0,0,0
2026-06-16 16:16:43.003,2616140,R_Shank,-0.3046,-3.258,0.9682,-0.31,-3.51,-9.83,-5.23,-27.46,-14.52,0.689749,0.070772,0.100497,-0.713492,0.0,0.0,0.0,0,0
2026-06-16 16:16:43.005,2616295,L_Ankle,-0.0247,-0.2573,0.9578,5.36,-2.49,-10.89,16.45,35.54,-3.05,-0.741539,0.08301,0.085055,-0.660268,0.0,0.0,0.0,0,0
2026-06-16 16:16:43.006,2616160,R_Shank,-0.3095,1.8772,0.9735,-0.29,-3.58,-9.83,0.0,0.0,0.0,0.689199,0.069674,0.099765,-0.714225,0.0,0.0,0.0,0,0
2026-06-16 16:16:43.008,2616315,L_Ankle,-0.0154,-0.2558,0.9534,5.32,-2.67,-11.16,16.3,35.73,-1.86,-0.741844,0.083529,0.084445,-0.659932,0.0,0.0,0.0,0,0
2026-06-16 16:16:43.008,2616112,R_Hip,-0.4288,-0.9176,0.1203,0.25,-0.71,1.04,-19.41,5.53,-37.38,0.189398,0.022858,0.639851,-0.744407,0.0,0.0,0.0,0,0
2026-06-16 16:16:43.010,2616335,L_Ankle,-0.0066,-0.268,0.9659,5.3,-2.8,-11.19,0.0,0.0,0.0,-0.742119,0.083895,0.083956,-0.659627,0.0,0.0,0.0,0,0
2026-06-16 16:16:43.011,2616132,R_Hip,-0.4292,-0.9176,0.1005,0.21,-0.58,0.94,0.0,0.0,0.0,0.188971,0.023286,0.639821,-0.74453,0.0,0.0,0.0,0,0
2026-06-16 16:16:43.013,2616152,R_Hip,-0.4115,-0.9147,0.1092,0.19,-0.45,0.84,-19.41,4.79,-36.69,0.188299,0.023743,0.639912,-0.744621,0.0,0.0,0.0,0,0
2026-06-16 16:16:43.014,2616355,L_Ankle,-0.0115,-0.2744,0.9506,5.3,-2.84,-11.13,16.98,35.71,-2.53,-0.742119,0.084048,0.083712,-0.659658,0.0,0.0,0.0,0,0
2026-06-16 16:16:43.016,2616172,R_Hip,-0.4135,-0.9191,0.102,0.18,-0.19,0.71,-19.42,6.26,-38.41,0.187384,0.024232,0.640004,-0.744743,0.0,0.0,0.0,0,0
2026-06-16 16:16:43.016,2616375,L_Ankle,-0.0105,-0.2656,0.9486,5.3,-3.0,-11.04,17.85,35.52,-3.37,-0.742027,0.083987,0.083682,-0.65978,0.0,0.0,0.0,0,0
2026-06-16 16:16:43.018,2616244,L_Hip,-0.311,0.8268,0.4502,-3.73,6.44,5.32,16.95,2.25,-35.45,0.860286,0.457472,0.211921,0.075289,0.0,0.0,0.0,0,0
2026-06-16 16:16:43.020,2616264,L_Hip,-0.3056,0.8327,0.4322,-3.71,6.4,5.32,0.0,0.0,0.0,0.859737,0.457961,0.212348,0.077303,0.0,0.0,0.0,0,0
2026-06-16 16:16:43.021,2616284,L_Hip,-0.3032,0.8307,0.4473,-3.7,6.36,5.29,15.3,3.84,-36.01,0.859218,0.458419,0.212714,0.079318,0.0,0.0,0.0,0,0
2026-06-16 16:16:43.023,2616304,L_Hip,-0.2909,0.8307,0.4458,-3.69,6.26,5.29,14.96,3.19,-36.58,0.858669,0.458937,0.21305,0.081271,0.0,0.0,0.0,0,0
2026-06-16 16:16:43.025,2616256,L_Ankle,0.0085,-0.2656,0.9448,5.32,-3.14,-11.07,16.97,37.13,-2.19,-0.742027,0.083834,0.083834,-0.65978,0.0,0.0,0.0,0,0
2026-06-16 16:16:43.027,2616257,L_Ankle,0.0099,-0.2617,0.9438,5.32,-3.19,-11.13,0.0,0.0,0.0,-0.742088,0.08356,0.08414,-0.659688,0.0,0.0,0.0,0,0
2026-06-16 16:16:43.030,2616277,L_Ankle,0.0168,-0.271,0.9467,5.3,-3.2,-11.16,17.34,35.35,-2.53,-0.74218,0.083102,0.084628,-0.659597,0.0,0.0,0.0,0,0
2026-06-16 16:16:43.031,2616297,L_Ankle,0.034,-0.2724,0.9611,5.35,-3.18,-11.22,16.61,35.01,-4.24,-0.742241,0.082522,0.085238,-0.659505,0.0,0.0,0.0,0,0
2026-06-16 16:16:43.033,2616266,L_Hip,-0.2742,0.845,0.4342,-3.64,6.05,5.29,16.15,4.01,-36.17,0.85815,0.459487,0.213294,0.083224,0.0,0.0,0.0,0,0
2026-06-16 16:16:43.035,2616286,L_Hip,-0.2742,0.8582,0.4463,-3.64,6.0,5.24,16.62,3.21,-34.86,0.857631,0.460005,0.213477,0.085147,0.0,0.0,0.0,0,0
2026-06-16 16:16:43.037,2616306,L_Hip,-0.259,0.8617,0.44,-3.66,5.96,5.19,0.0,0.0,0.0,0.857082,0.460616,0.213569,0.087039,0.0,0.0,0.0,0,0
2026-06-16 16:16:43.040,2616267,L_Hip,-0.2654,0.868,0.4327,-3.67,5.91,5.06,15.27,3.19,-34.84,0.856563,0.461196,0.213569,0.08887,0.0,0.0,0.0,0,0
2026-06-16 16:16:43.040,2616167,R_Shank,-0.2815,-1.846,0.9504,-0.32,-3.7,-9.85,-4.22,-27.48,-14.23,0.688681,0.068484,0.098972,-0.714988,0.0,0.0,0.0,0,0
2026-06-16 16:16:43.043,2616287,L_Shank,-0.133,-0.2137,0.9695,1.88,-3.49,0.81,17.17,32.6,-7.88,0.861965,-0.11182,-0.004181,0.49443,0.0,0.0,0.0,0,0
2026-06-16 16:16:43.043,2616187,R_Shank,-0.2746,0.0836,0.9552,-0.33,-3.71,-9.86,-6.4,-27.93,-14.06,0.688131,0.067293,0.098148,-0.71572,0.0,0.0,0.0,0,0
2026-06-16 16:16:43.046,2616307,L_Shank,-0.1257,-0.2132,0.9676,1.87,-3.5,0.77,0.0,0.0,0.0,0.861599,-0.110965,-0.005463,0.495224,0.0,0.0,0.0,0,0
2026-06-16 16:16:43.047,2616207,R_Shank,-0.2692,-0.046,0.9715,-0.32,-3.73,-9.87,0.0,0.0,0.0,0.687582,0.065981,0.097293,-0.716483,0.0,0.0,0.0,0,0
2026-06-16 16:16:43.049,2616327,L_Shank,-0.1071,-0.2191,0.9431,1.87,-3.5,0.74,16.84,32.29,-10.05,0.861263,-0.11008,-0.006775,0.496017,0.0,0.0,0.0,0,0
2026-06-16 16:16:43.050,2616227,R_Shank,-0.2575,-2.3576,0.9638,-0.34,-3.74,-9.88,-5.77,-26.61,-12.85,0.687033,0.064669,0.096408,-0.717277,0.0,0.0,0.0,0,0
2026-06-16 16:16:43.052,2616347,L_Shank,-0.1154,-0.2186,0.9546,1.91,-3.48,0.64,18.22,32.61,-8.83,0.860958,-0.109165,-0.008179,0.496719,0.0,0.0,0.0,0,0
2026-06-16 16:16:43.052,2616173,R_Ankle,-0.2515,-0.0626,0.9607,0.78,-1.83,-0.57,-17.26,-21.51,-23.0,0.967925,-0.0112,0.023957,0.249825,0.0,0.0,0.0,0,0
2026-06-16 16:16:43.055,2616301,L_Ankle,0.0296,-0.271,0.9477,5.35,-3.1,-11.48,17.35,35.0,-2.19,-0.742363,0.081851,0.085971,-0.659383,0.0,0.0,0.0,0,0
2026-06-16 16:16:43.056,2616193,R_Ankle,-0.2505,-0.0621,0.9727,0.72,-1.96,-0.62,-17.59,-21.2,-22.39,0.967895,-0.011078,0.024293,0.249794,0.0,0.0,0.0,0,0
2026-06-16 16:16:43.058,2616302,L_Ankle,0.0173,-0.2563,0.9486,5.43,-3.27,-11.58,0.0,0.0,0.0,-0.742546,0.081088,0.086825,-0.659139,0.0,0.0,0.0,0,0
2026-06-16 16:16:43.059,2616213,R_Ankle,-0.2407,-0.0735,0.978,0.58,-2.24,-0.73,0.0,0.0,0.0,0.967925,-0.011017,0.024384,0.249733,0.0,0.0,0.0,0,0
2026-06-16 16:16:43.061,2616233,R_Ankle,-0.2333,-0.0626,0.9732,0.53,-2.37,-0.78,-17.59,-21.2,-22.08,0.967956,-0.010987,0.024262,0.249611,0.0,0.0,0.0,0,0
2026-06-16 16:16:43.061,2616322,L_Ankle,0.0144,-0.2592,0.9558,5.44,-3.47,-11.56,16.44,36.96,-2.71,-0.742821,0.080325,0.087802,-0.658803,0.0,0.0,0.0,0,0
2026-06-16 16:16:43.063,2616188,R_Hip,-0.3523,-0.9401,0.0717,0.07,0.54,0.48,-19.6,5.71,-38.92,0.181036,0.02707,0.641255,-0.74514,0.0,0.0,0.0,0,0
2026-06-16 16:16:43.064,2616342,L_Ankle,0.0006,-0.2944,0.9616,5.51,-3.97,-11.33,16.63,35.36,-2.88,-0.743095,0.07947,0.088839,-0.658437,0.0,0.0,0.0,0,0
2026-06-16 16:16:43.066,2616208,R_Hip,-0.3429,-0.9386,0.063,0.06,0.58,0.48,0.0,0.0,0.0,0.17951,0.02768,0.641591,-0.745201,0.0,0.0,0.0,0,0
2026-06-16 16:16:43.068,2616311,L_Shank,-0.0895,-0.2117,0.9532,1.91,-3.43,0.48,17.52,33.97,-8.84,0.860683,-0.108249,-0.009522,0.497391,0.0,0.0,0.0,0,0
2026-06-16 16:16:43.070,2616228,R_Hip,-0.3252,-0.942,0.062,0.06,0.61,0.47,-18.69,6.63,-39.09,0.177892,0.028291,0.641987,-0.745201,0.0,0.0,0.0,0,0
2026-06-16 16:16:43.071,2616331,L_Shank,-0.0895,-0.2147,0.9657,1.92,-3.41,0.43,0.0,0.0,0.0,0.860408,-0.107303,-0.010926,0.498001,0.0,0.0,0.0,0,0
2026-06-16 16:16:43.073,2616248,R_Hip,-0.3222,-0.9454,0.0659,0.05,0.67,0.46,-17.96,4.8,-38.06,0.176214,0.02884,0.642415,-0.745231,0.0,0.0,0.0,0,0
2026-06-16 16:16:43.075,2616351,L_Shank,-0.0934,-0.222,0.9652,1.93,-3.38,0.39,17.53,32.97,-9.76,0.860195,-0.106357,-0.012268,0.49855,0.0,0.0,0.0,0,0
2026-06-16 16:16:43.078,2616195,R_Ankle,-0.2078,-0.0943,0.9717,0.01,-3.51,-1.29,-17.75,-21.69,-20.69,0.968505,-0.011475,0.020753,0.24778,0.0,0.0,0.0,0,0
2026-06-16 16:16:43.079,2616371,L_Shank,-0.0802,-0.2142,0.9628,1.93,-3.29,0.38,17.35,33.46,-8.67,0.860012,-0.105441,-0.013642,0.499039,0.0,0.0,0.0,0,0
2026-06-16 16:16:43.082,2616215,R_Ankle,-0.2044,-0.0963,0.9876,-0.03,-3.56,-1.31,-17.43,-22.31,-22.22,0.968657,-0.011658,0.019623,0.247261,0.0,0.0,0.0,0,0
2026-06-16 16:16:43.083,2616324,L_Ankle,0.0016,-0.2573,0.9674,5.7,-5.17,-10.85,16.26,35.72,-3.56,-0.743339,0.078555,0.089969,-0.658132,0.0,0.0,0.0,0,0
2026-06-16 16:16:43.086,2616235,R_Ankle,-0.1927,-0.1052,0.9751,-0.05,-3.61,-1.3,0.0,0.0,0.0,0.96881,-0.011902,0.018342,0.246742,0.0,0.0,0.0,0,0
2026-06-16 16:16:43.088,2616344,L_Ankle,-0.0027,-0.293,0.9645,5.77,-5.96,-10.52,0.0,0.0,0.0,-0.743522,0.077609,0.091159,-0.657857,0.0,0.0,0.0,0,0
2026-06-16 16:16:43.090,2616255,R_Ankle,-0.1941,-0.1023,0.9852,-0.09,-3.71,-1.3,-17.76,-21.68,-21.93,0.968963,-0.012146,0.016938,0.246223,0.0,0.0,0.0,0,0
2026-06-16 16:16:43.092,2616364,L_Ankle,0.008,-0.2671,0.9885,5.93,-6.48,-10.43,15.05,35.57,-3.42,-0.743736,0.076571,0.092441,-0.657582,0.0,0.0,0.0,0,0
2026-06-16 16:16:43.094,2616212,R_Hip,-0.3124,-0.9474,0.0755,0.03,0.74,0.48,-16.5,5.89,-38.06,0.174535,0.02945,0.642811,-0.745262,0.0,0.0,0.0,0,0
2026-06-16 16:16:43.096,2616384,L_Ankle,-0.4644,-0.0779,1.3586,5.48,-1.22,-14.9,16.94,36.77,-3.89,-0.74395,0.075503,0.093722,-0.657247,0.0,0.0,0.0,0,0
2026-06-16 16:16:43.096,2616232,R_Hip,-0.3015,-0.9528,0.0668,0.05,0.74,0.47,0.0,0.0,0.0,0.172796,0.030061,0.643208,-0.745293,0.0,0.0,0.0,0,0
2026-06-16 16:16:43.101,2616335,L_Hip,-0.2551,0.872,0.425,-3.71,5.77,4.8,15.29,2.87,-36.29,0.856075,0.461837,0.213569,0.09064,0.0,0.0,0.0,0,0
2026-06-16 16:16:43.102,2616252,R_Hip,-0.2966,-0.9489,0.0548,0.05,0.75,0.48,-16.13,4.79,-37.71,0.171056,0.030641,0.643635,-0.745323,0.0,0.0,0.0,0,0
2026-06-16 16:16:43.106,2616355,L_Hip,-0.2536,0.8788,0.4206,-3.75,5.7,4.73,15.95,3.52,-34.85,0.855556,0.462416,0.213569,0.092288,0.0,0.0,0.0,0,0
2026-06-16 16:16:43.106,2616272,R_Hip,-0.2941,-0.9591,0.0587,0.06,0.74,0.48,-16.5,4.06,-38.39,0.169286,0.03122,0.644063,-0.745323,0.0,0.0,0.0,0,0
2026-06-16 16:16:43.110,2616375,L_Hip,-0.2487,0.8779,0.4274,-3.77,5.66,4.66,0.0,0.0,0.0,0.855068,0.462996,0.213569,0.093875,0.0,0.0,0.0,0,0
2026-06-16 16:16:43.110,2616236,R_Shank,-0.2388,1.884,0.9614,-0.32,-3.74,-9.88,-5.74,-26.3,-15.86,0.686453,0.063295,0.095523,-0.718039,0.0,0.0,0.0,0,0
2026-06-16 16:16:43.113,2616395,L_Hip,-0.2404,0.8798,0.4139,-3.8,5.58,4.48,16.12,3.68,-34.71,0.85461,0.463546,0.213569,0.09534,0.0,0.0,0.0,0,0
2026-06-16 16:16:43.114,2616256,R_Shank,-0.2334,2.0136,0.972,-0.32,-3.76,-9.87,-4.73,-26.97,-14.07,0.685904,0.061922,0.094546,-0.718833,0.0,0.0,0.0,0,0
2026-06-16 16:16:43.117,2616347,L_Ankle,0.0889,-0.2392,0.9674,5.48,-2.8,-10.71,16.26,35.37,-3.91,-0.744194,0.074435,0.095065,-0.656911,0.0,0.0,0.0,0,0
2026-06-16 16:16:43.117,2616276,R_Shank,-0.2197,1.884,0.9893,-0.35,-3.74,-9.84,0.0,0.0,0.0,0.685354,0.060488,0.093631,-0.719596,0.0,0.0,0.0,0,0
2026-06-16 16:16:43.123,2616367,L_Ankle,0.0629,-0.2724,0.9746,5.5,-2.67,-10.43,0.0,0.0,0.0,-0.744469,0.073336,0.096377,-0.656514,0.0,0.0,0.0,0,0
2026-06-16 16:16:43.124,2616296,R_Shank,-0.2177,-0.1688,0.9739,-0.34,-3.71,-9.82,-5.61,-25.79,-13.3,0.684774,0.059053,0.092685,-0.720389,0.0,0.0,0.0,0,0
2026-06-16 16:16:43.128,2616387,L_Ankle,0.1109,-0.2715,0.941,5.51,-2.77,-9.91,16.62,34.65,-4.24,-0.744865,0.072176,0.097659,-0.656056,0.0,0.0,0.0,0,0
2026-06-16 16:16:43.128,2616240,R_Ankle,-0.1848,-0.0993,0.9847,-0.14,-3.84,-1.33,-18.96,-21.2,-23.02,0.969115,-0.012391,0.015473,0.245705,0.0,0.0,0.0,0,0
2026-06-16 16:16:43.132,2616407,L_Ankle,0.0835,-0.2768,0.9683,5.51,-2.35,-10.99,15.03,36.63,-3.41,-0.745293,0.071017,0.098972,-0.655507,0.0,0.0,0.0,0,0
2026-06-16 16:16:43.133,2616260,R_Ankle,-0.1833,-0.0948,0.9765,-0.16,-3.9,-1.35,-18.09,-21.37,-21.32,0.969268,-0.012665,0.013947,0.245186,0.0,0.0,0.0,0,0
2026-06-16 16:16:43.138,2616356,L_Hip,-0.233,0.8931,0.4109,-3.88,5.33,4.06,15.96,2.56,-36.3,0.854213,0.464064,0.213507,0.096713,0.0,0.0,0.0,0,0
2026-06-16 16:16:43.138,2616280,R_Ankle,-0.1731,-0.0948,0.9789,-0.16,-3.9,-1.36,0.0,0.0,0.0,0.96942,-0.012909,0.012391,0.244636,0.0,0.0,0.0,0,0
2026-06-16 16:16:43.142,2616376,L_Hip,-0.2365,0.8823,0.4061,-3.91,5.27,3.94,16.94,2.57,-34.28,0.853786,0.464553,0.213477,0.097934,0.0,0.0,0.0,0,0
2026-06-16 16:16:43.143,2616300,R_Ankle,-0.1682,-0.1112,0.9765,-0.19,-3.93,-1.38,-19.13,-21.69,-22.25,0.969573,-0.013153,0.010773,0.244087,0.0,0.0,0.0,0,0
2026-06-16 16:16:43.147,2616257,R_Shank,-0.1966,-2.0984,0.9831,-0.33,-3.58,-9.72,-4.75,-26.31,-14.07,0.684256,0.057588,0.091739,-0.721122,0.0,0.0,0.0,0,0
2026-06-16 16:16:43.147,2616396,L_Hip,-0.2321,0.8808,0.4119,-3.93,5.22,3.85,0.0,0.0,0.0,0.85345,0.465011,0.213385,0.099033,0.0,0.0,0.0,0,0
2026-06-16 16:16:43.152,2616277,R_Shank,-0.1863,-1.1984,0.9826,-0.32,-3.54,-9.7,-5.57,-26.8,-15.11,0.683737,0.056185,0.090793,-0.721854,0.0,0.0,0.0,0,0
2026-06-16 16:16:43.153,2616416,L_Hip,-0.2247,0.8779,0.3969,-3.98,5.06,3.61,16.11,2.4,-35.29,0.853145,0.465438,0.213324,0.099918,0.0,0.0,0.0,0,0
2026-06-16 16:16:43.156,2616297,R_Shank,-0.172,-2.61,0.9787,-0.33,-3.44,-9.64,0.0,0.0,0.0,0.683248,0.054781,0.089877,-0.722556,0.0,0.0,0.0,0,0
2026-06-16 16:16:43.158,2616362,L_Shank,-0.0768,-0.222,0.97,1.95,-3.11,0.36,16.84,33.64,-9.76,0.859798,-0.104526,-0.014954,0.499527,0.0,0.0,0.0,0,0
2026-06-16 16:16:43.162,2616317,R_Shank,-0.1706,-2.228,0.985,-0.34,-3.4,-9.62,-6.43,-27.26,-13.15,0.68276,0.053438,0.088961,-0.723197,0.0,0.0,0.0,0,0
2026-06-16 16:16:43.162,2616382,L_Shank,-0.0621,-0.2166,0.9609,1.96,-3.06,0.37,0.0,0.0,0.0,0.859615,-0.103641,-0.016205,0.500015,0.0,0.0,0.0,0,0
2026-06-16 16:16:43.166,2616402,L_Shank,-0.0626,-0.2088,0.9676,1.95,-2.99,0.37,18.22,32.94,-8.21,0.859432,-0.102786,-0.017426,0.500473,0.0,0.0,0.0,0,0
2026-06-16 16:16:43.167,2616287,R_Hip,-0.2507,-0.9528,0.0418,0.14,0.44,0.62,-16.87,4.43,-39.76,0.160588,0.033631,0.646046,-0.745415,0.0,0.0,0.0,0,0
2026-06-16 16:16:43.169,2616422,L_Shank,-0.0577,-0.2049,0.9599,1.97,-2.87,0.36,18.05,33.12,-8.99,0.859249,-0.101962,-0.018586,0.500931,0.0,0.0,0.0,0,0
2026-06-16 16:16:43.170,2616307,R_Hip,-0.2325,-0.9635,0.0317,0.15,0.39,0.61,0.0,0.0,0.0,0.15894,0.033998,0.646413,-0.745445,0.0,0.0,0.0,0,0
2026-06-16 16:16:43.172,2616288,R_Hip,-0.2423,-0.9625,0.0389,0.15,0.34,0.64,-15.95,3.15,-39.59,0.157292,0.034303,0.646748,-0.745476,0.0,0.0,0.0,0,0
2026-06-16 16:16:43.172,2616379,L_Hip,-0.209,0.9009,0.3959,-4.08,4.7,3.12,18.15,3.72,-35.03,0.85287,0.465773,0.213233,0.10065,0.0,0.0,0.0,0,0
2026-06-16 16:16:43.175,2616308,R_Hip,-0.2265,-0.9635,0.0433,0.15,0.24,0.64,-16.5,3.34,-40.44,0.155675,0.034577,0.647114,-0.745506,0.0,0.0,0.0,0,0
2026-06-16 16:16:43.176,2616399,L_Hip,-0.2031,0.9039,0.3877,-4.09,4.61,2.99,15.96,2.88,-36.01,0.852657,0.466109,0.213111,0.10123,0.0,0.0,0.0,0,0
2026-06-16 16:16:43.180,2616419,L_Hip,-0.2026,0.8941,0.4027,-4.14,4.51,2.85,0.0,0.0,0.0,0.852504,0.466414,0.212928,0.101596,0.0,0.0,0.0,0,0
2026-06-16 16:16:43.181,2616307,R_Ankle,-0.1608,-0.1077,0.999,-0.19,-3.93,-1.38,-17.78,-22.3,-23.15,0.969756,-0.013459,0.009125,0.243507,0.0,0.0,0.0,0,0
2026-06-16 16:16:43.183,2616439,L_Hip,-0.2031,0.8995,0.3969,-4.19,4.32,2.59,15.95,3.2,-35.14,0.852382,0.466689,0.212683,0.101779,0.0,0.0,0.0,0,0
2026-06-16 16:16:43.187,2616327,R_Ankle,-0.1637,-0.1221,1.0058,-0.19,-3.93,-1.4,-18.78,-21.37,-21.94,0.969909,-0.013764,0.007416,0.242958,0.0,0.0,0.0,0,0
2026-06-16 16:16:43.189,2616391,L_Ankle,0.1109,-0.2514,0.9506,5.51,-2.23,-10.63,14.85,36.45,-3.59,-0.745659,0.069704,0.100375,-0.655019,0.0,0.0,0.0,0,0
2026-06-16 16:16:43.191,2616347,R_Ankle,-0.1598,-0.1117,1.001,-0.19,-3.92,-1.41,0.0,0.0,0.0,0.970061,-0.014008,0.005737,0.242347,0.0,0.0,0.0,0,0
2026-06-16 16:16:43.195,2616411,L_Ankle,0.1104,-0.2676,0.9506,5.48,-2.05,-10.55,16.26,35.72,-3.56,-0.745842,0.068148,0.101993,-0.654683,0.0,0.0,0.0,0,0
2026-06-16 16:16:43.195,2616367,R_Ankle,-0.151,-0.1211,0.9976,-0.19,-3.9,-1.41,-18.26,-20.89,-21.79,0.970214,-0.014344,0.004089,0.241768,0.0,0.0,0.0,0,0
2026-06-16 16:16:43.197,2616431,L_Ankle,0.105,-0.2588,0.952,5.48,-2.0,-10.59,0.0,0.0,0.0,-0.745842,0.066195,0.103946,-0.654592,0.0,0.0,0.0,0,0
2026-06-16 16:16:43.200,2616325,R_Shank,-0.1637,-1.71,0.9879,-0.3,-3.19,-9.54,-4.41,-26.64,-13.47,0.682302,0.052095,0.088076,-0.723838,0.0,0.0,0.0,0,0
2026-06-16 16:16:43.202,2616451,L_Ankle,0.1168,-0.2544,0.9674,5.46,-1.8,-10.6,15.21,35.03,-4.27,-0.745628,0.063875,0.106265,-0.654683,0.0,0.0,0.0,0,0
2026-06-16 16:16:43.205,2616345,R_Shank,-0.1568,1.3724,1.0008,-0.3,-3.12,-9.52,0.0,0.0,0.0,0.681845,0.050783,0.087222,-0.724448,0.0,0.0,0.0,0,0
2026-06-16 16:16:43.208,2616414,L_Ankle,0.1237,-0.2573,0.9558,5.45,-1.49,-10.58,14.49,37.17,-3.59,-0.745811,0.061647,0.108249,-0.654347,0.0,0.0,0.0,0,0
2026-06-16 16:16:43.211,2616365,R_Shank,-0.149,-1.5804,1.0018,-0.29,-3.08,-9.51,-6.26,-27.1,-13.0,0.681417,0.049562,0.086398,-0.725059,0.0,0.0,0.0,0,0
2026-06-16 16:16:43.212,2616434,L_Ankle,0.1109,-0.2607,0.9693,5.44,-1.28,-10.56,15.01,36.63,-4.43,-0.747276,0.059999,0.10773,-0.652944,0.0,0.0,0.0,0,0
2026-06-16 16:16:43.216,2616385,R_Shank,-0.1406,-1.71,0.9879,-0.29,-2.96,-9.45,-5.42,-26.62,-14.06,0.68099,0.048341,0.085635,-0.725639,0.0,0.0,0.0,0,0
2026-06-16 16:16:43.216,2616454,L_Ankle,0.1222,-0.2553,0.964,5.43,-1.16,-10.55,0.0,0.0,0.0,-0.747398,0.057558,0.111179,-0.652425,0.0,0.0,0.0,0,0
2026-06-16 16:16:43.220,2616474,L_Ankle,0.1241,-0.2602,0.9611,5.41,-0.92,-10.5,16.26,35.72,-3.56,-0.747398,0.056612,0.112094,-0.652364,0.0,0.0,0.0,0,0
2026-06-16 16:16:43.225,2616424,L_Hip,-0.1869,0.8975,0.41,-4.29,3.9,2.07,16.3,3.53,-35.44,0.852351,0.466872,0.212409,0.101749,0.0,0.0,0.0,0,0
2026-06-16 16:16:43.228,2616352,R_Ankle,-0.1089,-0.135,0.999,0.13,-3.01,-1.07,-18.44,-21.37,-21.94,0.971221,-0.016907,-0.009278,0.237342,0.0,0.0,0.0,0,0
2026-06-16 16:16:43.232,2616444,L_Hip,-0.1948,0.8975,0.4071,-4.32,3.8,1.92,15.6,2.87,-34.56,0.852382,0.467025,0.212104,0.101505,0.0,0.0,0.0,0,0
2026-06-16 16:16:43.235,2616464,L_Hip,-0.1938,0.8941,0.4037,-4.32,3.7,1.8,16.1,2.39,-35.0,0.852504,0.467086,0.211707,0.101077,0.0,0.0,0.0,0,0
2026-06-16 16:16:43.235,2616372,R_Ankle,-0.1113,-0.135,1.0024,0.17,-2.95,-1.05,-18.1,-21.69,-21.62,0.971282,-0.017151,-0.010407,0.236946,0.0,0.0,0.0,0,0
2026-06-16 16:16:43.241,2616484,L_Hip,-0.1928,0.9122,0.41,-4.37,3.48,1.55,0.0,0.0,0.0,0.852687,0.467116,0.21128,0.100406,0.0,0.0,0.0,0,0
2026-06-16 16:16:43.243,2616392,R_Ankle,-0.1049,-0.136,0.9943,0.19,-2.87,-1.03,0.0,0.0,0.0,0.971374,-0.017396,-0.011444,0.236579,0.0,0.0,0.0,0,0
2026-06-16 16:16:43.247,2616436,L_Shank,-0.0455,-0.1897,0.957,1.95,-2.61,0.28,18.23,32.62,-9.45,0.859066,-0.101138,-0.019623,0.501358,0.0,0.0,0.0,0,0
2026-06-16 16:16:43.249,2616412,R_Ankle,-0.1079,-0.1518,1.0019,0.26,-2.74,-0.93,-17.6,-21.51,-22.7,0.971435,-0.017579,-0.012391,0.236213,0.0,0.0,0.0,0,0
2026-06-16 16:16:43.251,2616456,L_Shank,-0.0392,-0.1888,0.9676,1.94,-2.54,0.23,0.0,0.0,0.0,0.858882,-0.100345,-0.0206,0.501785,0.0,0.0,0.0,0,0
2026-06-16 16:16:43.255,2616476,L_Shank,-0.0313,-0.1868,0.9762,1.91,-2.47,0.19,17.36,31.78,-10.21,0.85873,-0.099582,-0.021516,0.502152,0.0,0.0,0.0,0,0
2026-06-16 16:16:43.259,2616496,L_Shank,-0.0235,-0.1912,0.9532,1.9,-2.29,0.09,17.35,33.12,-8.98,0.858638,-0.098849,-0.02237,0.502426,0.0,0.0,0.0,0,0
2026-06-16 16:16:43.261,2616461,L_Shank,-0.0098,-0.1922,0.969,1.87,-1.95,-0.18,17.52,32.95,-8.83,0.858547,-0.098178,-0.023164,0.50264,0.0,0.0,0.0,0,0
2026-06-16 16:16:43.266,2616481,L_Shank,-0.0045,-0.1892,0.982,1.87,-1.87,-0.25,0.0,0.0,0.0,0.858547,-0.097568,-0.023927,0.502762,0.0,0.0,0.0,0,0
2026-06-16 16:16:43.267,2616392,R_Shank,-0.1234,-1.4508,0.9883,-0.26,-2.68,-9.3,-4.74,-26.64,-14.37,0.680593,0.047182,0.084841,-0.726188,0.0,0.0,0.0,0,0
2026-06-16 16:16:43.272,2616412,R_Shank,-0.1254,-0.2916,1.0018,-0.26,-2.6,-9.25,0.0,0.0,0.0,0.680197,0.046113,0.08417,-0.726676,0.0,0.0,0.0,0,0
2026-06-16 16:16:43.272,2616501,L_Shank,-0.0035,-0.1868,0.9686,1.85,-1.77,-0.32,18.41,32.46,-9.92,0.858577,-0.097018,-0.024567,0.502792,0.0,0.0,0.0,0,0
2026-06-16 16:16:43.276,2616432,R_Shank,-0.1244,-0.5508,0.9893,-0.26,-2.51,-9.18,-5.08,-26.3,-14.36,0.679861,0.045076,0.083529,-0.727134,0.0,0.0,0.0,0,0
2026-06-16 16:16:43.279,2616521,L_Shank,0.0047,-0.1804,0.9719,1.82,-1.58,-0.47,18.75,33.81,-9.31,0.858669,-0.0965,-0.025178,0.502701,0.0,0.0,0.0,0,0
2026-06-16 16:16:43.284,2616452,R_Shank,-0.1107,3.1796,0.9855,-0.21,-2.35,-9.02,-4.72,-27.31,-14.98,0.679556,0.044099,0.08298,-0.727531,0.0,0.0,0.0,0,0
2026-06-16 16:16:43.284,2616469,L_Hip,-0.2071,0.897,0.408,-4.45,3.09,1.13,16.79,2.73,-35.59,0.852901,0.467086,0.210791,0.099521,0.0,0.0,0.0,0,0
2026-06-16 16:16:43.290,2616489,L_Hip,-0.2183,0.9,0.4076,-4.48,3.02,1.03,16.13,3.69,-35.29,0.853175,0.467055,0.210242,0.098453,0.0,0.0,0.0,0,0
2026-06-16 16:16:43.291,2616398,R_Ankle,-0.0961,-0.1414,0.9919,0.43,-2.39,-0.76,-18.47,-22.94,-23.77,0.971496,-0.017823,-0.013215,0.235939,0.0,0.0,0.0,0,0
2026-06-16 16:16:43.294,2616418,R_Ankle,-0.0991,-0.1474,0.9986,0.46,-2.32,-0.7,-17.91,-20.26,-21.17,0.971526,-0.017975,-0.013947,0.235725,0.0,0.0,0.0,0,0
2026-06-16 16:16:43.294,2616509,L_Hip,-0.2208,0.897,0.3935,-4.51,2.93,0.94,15.95,3.84,-34.56,0.853542,0.466933,0.209723,0.097171,0.0,0.0,0.0,0,0
2026-06-16 16:16:43.297,2616438,R_Ankle,-0.0961,-0.1449,1.0096,0.53,-2.23,-0.64,0.0,0.0,0.0,0.971557,-0.018128,-0.014557,0.235542,0.0,0.0,0.0,0,0
2026-06-16 16:16:43.298,2616529,L_Hip,-0.2311,0.8921,0.4056,-4.55,2.78,0.76,0.0,0.0,0.0,0.853938,0.46675,0.209174,0.095737,0.0,0.0,0.0,0,0
2026-06-16 16:16:43.302,2616458,R_Ankle,-0.0971,-0.1563,1.0019,0.63,-2.05,-0.49,-18.43,-20.42,-21.64,0.971557,-0.01825,-0.015015,0.235481,0.0,0.0,0.0,0,0
2026-06-16 16:16:43.303,2616481,L_Ankle,0.1178,-0.2534,0.9477,5.37,-0.54,-10.35,15.72,36.62,-4.08,-0.747215,0.055696,0.113102,-0.652486,0.0,0.0,0.0,0,0
2026-06-16 16:16:43.305,2616501,L_Ankle,0.1207,-0.2617,0.963,5.35,-0.24,-10.24,14.83,36.45,-4.95,-0.747459,0.054842,0.113865,-0.65215,0.0,0.0,0.0,0,0
2026-06-16 16:16:43.308,2616521,L_Ankle,0.1158,-0.2514,0.9582,5.32,-0.1,-10.2,0.0,0.0,0.0,-0.74752,0.054018,0.114628,-0.651997,0.0,0.0,0.0,0,0
2026-06-16 16:16:43.311,2616541,L_Ankle,0.1178,-0.2592,0.9525,5.3,0.15,-10.12,15.36,36.26,-4.77,-0.747551,0.053285,0.11536,-0.651906,0.0,0.0,0.0,0,0
2026-06-16 16:16:43.314,2616486,L_Shank,0.0174,-0.1839,0.9734,1.78,-1.12,-0.72,17.52,32.94,-8.2,0.858791,-0.096072,-0.025666,0.502518,0.0,0.0,0.0,0,0
2026-06-16 16:16:43.318,2616506,L_Shank,0.0169,-0.1858,0.9935,1.77,-0.99,-0.77,0.0,0.0,0.0,0.858974,-0.095706,-0.026093,0.502243,0.0,0.0,0.0,0,0
2026-06-16 16:16:43.321,2616526,L_Shank,0.0125,-0.1873,0.9738,1.76,-0.87,-0.83,17.18,31.94,-9.12,0.859218,-0.095431,-0.026399,0.501877,0.0,0.0,0.0,0,0
2026-06-16 16:16:43.326,2616546,L_Shank,0.0238,-0.1868,0.9887,1.75,-0.64,-0.93,17.52,32.27,-8.82,0.859493,-0.095279,-0.026551,0.50145,0.0,0.0,0.0,0,0
2026-06-16 16:16:43.332,2616504,L_Ankle,0.1212,-0.2553,0.9645,5.25,0.53,-10.08,15.92,35.37,-3.57,-0.747612,0.052675,0.11597,-0.651753,0.0,0.0,0.0,0,0
2026-06-16 16:16:43.335,2616461,R_Shank,-0.0984,-0.9328,1.0013,-0.18,-1.95,-8.64,-5.58,-26.46,-14.51,0.679342,0.043275,0.082492,-0.727836,0.0,0.0,0.0,0,0
2026-06-16 16:16:43.338,2616524,L_Ankle,0.1197,-0.2602,0.9544,5.24,0.8,-10.03,15.2,37.16,-3.24,-0.747673,0.052126,0.11652,-0.651631,0.0,0.0,0.0,0,0
2026-06-16 16:16:43.340,2616481,R_Shank,-0.0984,-2.6036,0.9855,-0.16,-1.87,-8.53,0.0,0.0,0.0,0.67922,0.042512,0.082064,-0.72805,0.0,0.0,0.0,0,0
2026-06-16 16:16:43.342,2616544,L_Ankle,0.1094,-0.2622,0.9602,5.24,0.92,-10.01,0.0,0.0,0.0,-0.747765,0.051668,0.116977,-0.651509,0.0,0.0,0.0,0,0
2026-06-16 16:16:43.346,2616501,R_Shank,-0.096,-1.1916,1.0066,-0.17,-1.77,-8.41,-5.07,-26.64,-14.97,0.679159,0.041871,0.081698,-0.728172,0.0,0.0,0.0,0,0
2026-06-16 16:16:43.349,2616564,L_Ankle,0.0996,-0.2544,0.9578,5.22,1.14,-9.92,16.62,35.36,-3.56,-0.747856,0.051332,0.117313,-0.651357,0.0,0.0,0.0,0,0
2026-06-16 16:16:43.351,2616521,R_Shank,-0.0989,3.1796,0.9917,-0.11,-1.55,-8.16,-4.07,-26.0,-15.28,0.67925,0.041353,0.081393,-0.728202,0.0,0.0,0.0,0,0
2026-06-16 16:16:43.353,2616514,L_Hip,-0.2468,0.872,0.4211,-4.61,2.51,0.43,16.65,3.86,-36.03,0.854366,0.466506,0.208625,0.094119,0.0,0.0,0.0,0,0
2026-06-16 16:16:43.354,2616463,R_Hip,-0.2285,-0.9791,0.023,0.17,-0.01,0.7,-15.95,4.25,-39.59,0.154149,0.034761,0.64742,-0.745537,0.0,0.0,0.0,0,0
2026-06-16 16:16:43.357,2616534,L_Hip,-0.263,0.8744,0.4226,-4.62,2.44,0.35,15.13,3.99,-35.57,0.854854,0.466231,0.208045,0.092318,0.0,0.0,0.0,0,0
2026-06-16 16:16:43.358,2616483,R_Hip,-0.227,-0.9762,0.0317,0.18,-0.08,0.73,0.0,0.0,0.0,0.152654,0.034883,0.647755,-0.745537,0.0,0.0,0.0,0,0
2026-06-16 16:16:43.360,2616554,L_Hip,-0.2654,0.8661,0.4279,-4.64,2.39,0.29,16.81,3.38,-35.59,0.855403,0.465835,0.207465,0.090365,0.0,0.0,0.0,0,0
2026-06-16 16:16:43.362,2616503,R_Hip,-0.2167,-0.9679,0.0235,0.18,-0.16,0.77,-16.14,4.07,-39.76,0.15125,0.034944,0.648061,-0.745567,0.0,0.0,0.0,0,0
2026-06-16 16:16:43.364,2616574,L_Hip,-0.2831,0.8558,0.4337,-4.66,2.32,0.2,14.6,2.85,-35.41,0.855983,0.465407,0.206915,0.08826,0.0,0.0,0.0,0,0
2026-06-16 16:16:43.365,2616523,R_Hip,-0.2039,-0.9767,0.0365,0.2,-0.32,0.89,-16.13,3.7,-37.71,0.149998,0.034974,0.648335,-0.745598,0.0,0.0,0.0,0,0
2026-06-16 16:16:43.367,2616526,L_Ankle,0.0761,-0.2597,0.9587,5.25,1.48,-9.8,15.2,35.38,-4.95,-0.747948,0.051088,0.117527,-0.651234,0.0,0.0,0.0,0,0
2026-06-16 16:16:43.369,2616466,R_Ankle,-0.0839,-0.1568,1.0,0.87,-1.65,-0.28,-17.75,-20.41,-21.94,0.971557,-0.018372,-0.015351,0.235481,0.0,0.0,0.0,0,0
2026-06-16 16:16:43.372,2616546,L_Ankle,0.0849,-0.2666,0.9573,5.29,1.64,-9.78,14.85,36.45,-3.93,-0.748039,0.050966,0.117649,-0.651112,0.0,0.0,0.0,0,0
2026-06-16 16:16:43.373,2616486,R_Ankle,-0.0878,-0.1578,1.0091,0.93,-1.53,-0.22,-18.6,-19.62,-22.11,0.971526,-0.018403,-0.015564,0.235572,0.0,0.0,0.0,0,0
2026-06-16 16:16:43.376,2616566,L_Ankle,0.0786,-0.2676,0.9539,5.32,1.73,-9.76,0.0,0.0,0.0,-0.7481,0.050966,0.117618,-0.651051,0.0,0.0,0.0,0,0
2026-06-16 16:16:43.377,2616506,R_Ankle,-0.0917,-0.1464,0.9938,1.0,-1.43,-0.14,0.0,0.0,0.0,0.971496,-0.018403,-0.015625,0.235725,0.0,0.0,0.0,0,0
2026-06-16 16:16:43.379,2616586,L_Ankle,0.0805,-0.2695,0.9616,5.33,1.89,-9.65,16.28,35.37,-2.89,-0.748161,0.051149,0.117466,-0.651021,0.0,0.0,0.0,0,0
2026-06-16 16:16:43.380,2616526,R_Ankle,-0.0863,-0.1538,1.0101,1.11,-1.18,0.0,-19.28,-18.98,-23.05,0.971435,-0.018342,-0.015473,0.236,0.0,0.0,0.0,0,0
2026-06-16 16:16:43.384,2616560,L_Hip,-0.3101,0.8327,0.4395,-4.68,2.19,0.11,15.28,2.87,-35.71,0.856624,0.464919,0.206336,0.086062,0.0,0.0,0.0,0,0
2026-06-16 16:16:43.385,2616482,R_Shank,-0.0798,0.6088,0.9883,-0.03,-1.09,-7.7,-6.26,-26.12,-14.5,0.679403,0.040956,0.081149,-0.72808,0.0,0.0,0.0,0,0
2026-06-16 16:16:43.388,2616580,L_Hip,-0.3179,0.8327,0.4279,-4.67,2.15,0.12,0.0,0.0,0.0,0.857295,0.4644,0.205756,0.083773,0.0,0.0,0.0,0,0
2026-06-16 16:16:43.389,2616502,R_Shank,-0.0793,-2.7328,0.9874,0.0,-1.0,-7.59,0.0,0.0,0.0,0.679678,0.040681,0.081027,-0.727866,0.0,0.0,0.0,0,0
2026-06-16 16:16:43.391,2616600,L_Hip,-0.3233,0.8204,0.4352,-4.67,2.15,0.13,15.99,4.17,-36.31,0.857967,0.46379,0.205237,0.081423,0.0,0.0,0.0,0,0
2026-06-16 16:16:43.394,2616522,R_Shank,-0.0783,-0.0324,0.9893,0.0,-0.9,-7.46,-4.03,-27.98,-15.29,0.680074,0.040559,0.080905,-0.7275,0.0,0.0,0.0,0,0
2026-06-16 16:16:43.396,2616620,L_Hip,-0.3395,0.8174,0.4473,-4.66,2.14,0.12,14.12,3.65,-35.84,0.858608,0.46321,0.204718,0.079012,0.0,0.0,0.0,0,0
2026-06-16 16:16:43.398,2616542,R_Shank,-0.0739,0.738,0.9912,0.03,-0.64,-7.22,-5.26,-26.13,-13.91,0.680563,0.040559,0.080874,-0.727073,0.0,0.0,0.0,0,0
2026-06-16 16:16:43.400,2616581,L_Hip,-0.3753,0.789,0.4594,-4.62,2.24,0.22,14.13,3.97,-36.14,0.859279,0.4626,0.20423,0.076571,0.0,0.0,0.0,0,0
2026-06-16 16:16:43.402,2616487,R_Hip,-0.2117,-0.9752,0.0067,0.22,-0.69,1.2,-15.59,3.52,-39.25,0.148839,0.034974,0.648579,-0.745628,0.0,0.0,0.0,0,0
2026-06-16 16:16:43.404,2616582,L_Hip,-0.3846,0.7919,0.4657,-4.61,2.26,0.25,0.0,0.0,0.0,0.859951,0.461959,0.203803,0.074129,0.0,0.0,0.0,0,0
2026-06-16 16:16:43.406,2616507,R_Hip,-0.1989,-0.9762,0.0091,0.23,-0.8,1.29,0.0,0.0,0.0,0.147862,0.034944,0.648793,-0.745598,0.0,0.0,0.0,0,0
2026-06-16 16:16:43.407,2616602,L_Hip,-0.3866,0.784,0.4642,-4.6,2.29,0.31,14.3,5.1,-35.12,0.860622,0.461287,0.203406,0.071688,0.0,0.0,0.0,0,0
2026-06-16 16:16:43.409,2616527,R_Hip,-0.2019,-0.9811,0.0076,0.23,-0.91,1.38,-15.04,5.16,-39.08,0.147069,0.034883,0.649037,-0.745567,0.0,0.0,0.0,0,0
2026-06-16 16:16:43.411,2616622,L_Hip,-0.3974,0.7831,0.469,-4.56,2.38,0.41,14.63,3.5,-36.58,0.861263,0.460585,0.20307,0.069308,0.0,0.0,0.0,0,0
2026-06-16 16:16:43.413,2616547,R_Hip,-0.1935,-0.9806,0.0038,0.25,-1.1,1.58,-15.77,4.43,-39.08,0.146458,0.034761,0.64922,-0.745537,0.0,0.0,0.0,0,0
2026-06-16 16:16:43.414,2616586,L_Shank,0.0076,-0.1873,0.9878,1.73,-0.12,-1.24,17.35,33.12,-8.67,0.859798,-0.095187,-0.026582,0.500931,0.0,0.0,0.0,0,0
2026-06-16 16:16:43.416,2616606,L_Shank,0.015,-0.1804,0.9724,1.71,0.0,-1.33,0.0,0.0,0.0,0.860195,-0.095157,-0.02646,0.50029,0.0,0.0,0.0,0,0
2026-06-16 16:16:43.418,2616626,L_Shank,0.0081,-0.1819,0.9974,1.7,0.1,-1.38,17.53,33.64,-9.77,0.860622,-0.095248,-0.026185,0.499527,0.0,0.0,0.0,0,0
2026-06-16 16:16:43.422,2616646,L_Shank,-0.0113,-0.1951,0.9676,1.67,0.32,-1.46,18.06,33.48,-10.24,0.86111,-0.095431,-0.025788,0.498672,0.0,0.0,0.0,0,0
2026-06-16 16:16:43.424,2616594,L_Ankle,0.0619,-0.2549,0.9438,5.37,2.05,-9.58,16.12,35.55,-2.04,-0.748161,0.051485,0.117161,-0.651021,0.0,0.0,0.0,0,0
2026-06-16 16:16:43.427,2616614,L_Ankle,0.0433,-0.2588,0.9654,5.4,2.12,-9.53,15.93,36.8,-1.53,-0.748192,0.051943,0.116764,-0.651051,0.0,0.0,0.0,0,0
2026-06-16 16:16:43.428,2616555,R_Ankle,-0.0981,-0.1211,1.0029,1.76,0.25,0.59,-17.4,-21.38,-20.39,0.970824,-0.017396,-0.012024,0.238746,0.0,0.0,0.0,0,0
2026-06-16 16:16:43.432,2616634,L_Ankle,0.0565,-0.2676,0.9438,5.41,2.15,-9.52,16.25,35.72,-4.59,-0.748192,0.052522,0.116214,-0.651082,0.0,0.0,0.0,0,0
2026-06-16 16:16:43.432,2616575,R_Ankle,-0.102,-0.1152,1.0062,1.77,0.34,0.55,-17.58,-20.89,-21.16,0.970672,-0.01706,-0.010773,0.239479,0.0,0.0,0.0,0,0
2026-06-16 16:16:43.435,2616654,L_Ankle,0.0467,-0.2602,0.9573,5.42,2.18,-9.49,0.0,0.0,0.0,-0.748222,0.053255,0.115574,-0.651112,0.0,0.0,0.0,0,0
2026-06-16 16:16:43.437,2616595,R_Ankle,-0.1059,-0.1305,1.012,1.8,0.45,0.53,-17.94,-20.55,-23.33,0.970519,-0.016724,-0.009339,0.240181,0.0,0.0,0.0,0,0
2026-06-16 16:16:43.439,2616604,L_Hip,-0.4194,0.7777,0.4913,-4.48,2.65,0.74,15.31,4.8,-35.14,0.861904,0.459853,0.202795,0.066988,0.0,0.0,0.0,0,0
2026-06-16 16:16:43.442,2616615,R_Ankle,-0.1162,-0.1256,1.0129,1.83,0.64,0.45,0.0,0.0,0.0,0.970367,-0.016358,-0.007752,0.240852,0.0,0.0,0.0,0,0
2026-06-16 16:16:43.443,2616624,L_Hip,-0.4248,0.7649,0.4923,-4.48,2.72,0.83,0.0,0.0,0.0,0.862514,0.459151,0.202521,0.06473,0.0,0.0,0.0,0,0
2026-06-16 16:16:43.446,2616572,R_Shank,-0.0758,-0.2916,0.997,0.09,-0.1,-6.77,-6.24,-27.11,-15.11,0.681143,0.040681,0.080935,-0.726493,0.0,0.0,0.0,0,0
2026-06-16 16:16:43.448,2616644,L_Hip,-0.4292,0.7664,0.4908,-4.45,2.79,0.94,12.96,4.44,-36.26,0.863094,0.458449,0.202307,0.062624,0.0,0.0,0.0,0,0
2026-06-16 16:16:43.450,2616592,R_Shank,-0.0847,0.8612,0.9903,0.1,0.0,-6.67,0.0,0.0,0.0,0.681845,0.040986,0.081088,-0.725791,0.0,0.0,0.0,0,0
2026-06-16 16:16:43.452,2616664,L_Hip,-0.4332,0.7654,0.4923,-4.41,2.96,1.2,13.12,4.6,-35.54,0.863613,0.457778,0.202155,0.060671,0.0,0.0,0.0,0,0
2026-06-16 16:16:43.455,2616612,R_Shank,-0.094,-3.2512,0.9994,0.11,0.13,-6.61,-6.1,-25.95,-14.65,0.682638,0.041444,0.081332,-0.724998,0.0,0.0,0.0,0,0
2026-06-16 16:16:43.457,2616611,L_Shank,-0.0167,-0.2088,0.9738,1.64,0.77,-1.45,16.48,32.28,-9.43,0.861599,-0.095798,-0.025239,0.497787,0.0,0.0,0.0,0,0
2026-06-16 16:16:43.460,2616632,R_Shank,-0.091,2.0136,0.9754,0.12,0.35,-6.52,-5.9,-27.44,-14.21,0.683493,0.042146,0.081698,-0.724113,0.0,0.0,0.0,0,0
2026-06-16 16:16:43.461,2616631,L_Shank,-0.024,-0.2078,0.9676,1.61,0.89,-1.42,16.13,34.31,-8.83,0.862087,-0.096255,-0.024598,0.496872,0.0,0.0,0.0,0,0
2026-06-16 16:16:43.464,2616651,L_Shank,-0.0313,-0.2083,0.9614,1.59,1.09,-1.32,0.0,0.0,0.0,0.862575,-0.096805,-0.023774,0.495956,0.0,0.0,0.0,0,0
2026-06-16 16:16:43.468,2616671,L_Shank,-0.0489,-0.2059,0.9671,1.57,1.19,-1.28,16.47,32.95,-8.5,0.863033,-0.097507,-0.022828,0.495102,0.0,0.0,0.0,0,0
2026-06-16 16:16:43.468,2616595,R_Shank,-0.2172,2.5252,0.9816,0.18,1.24,-7.25,-5.39,-27.95,-13.77,0.687094,0.04767,0.084841,-0.719993,0.0,0.0,0.0,0,0
2026-06-16 16:16:43.471,2616616,L_Ankle,0.0095,-0.2695,0.9366,5.46,2.18,-9.5,16.62,36.78,-2.53,-0.748222,0.054109,0.11478,-0.651173,0.0,0.0,0.0,0,0
2026-06-16 16:16:43.473,2616615,R_Shank,-0.2314,-1.328,0.9763,0.18,1.28,-7.29,-5.04,-28.62,-14.08,0.687551,0.049104,0.085818,-0.719321,0.0,0.0,0.0,0,0
2026-06-16 16:16:43.476,2616636,L_Ankle,0.0242,-0.2588,0.9477,5.46,2.09,-9.35,16.26,35.72,-3.56,-0.748222,0.055116,0.113834,-0.651265,0.0,0.0,0.0,0,0
2026-06-16 16:16:43.477,2616635,R_Shank,-0.2413,-0.1752,0.9835,0.19,1.3,-7.32,0.0,0.0,0.0,0.687979,0.050661,0.086886,-0.718711,0.0,0.0,0.0,0,0
2026-06-16 16:16:43.480,2616656,L_Ankle,-0.0115,-0.2456,0.9602,5.5,1.96,-9.19,15.76,35.91,-2.04,-0.748161,0.056215,0.112796,-0.651387,0.0,0.0,0.0,0,0
2026-06-16 16:16:43.481,2616655,R_Shank,-0.2653,0.7248,0.9624,0.19,1.32,-7.32,-5.9,-27.45,-14.51,0.688345,0.052278,0.088046,-0.71807,0.0,0.0,0.0,0,0
2026-06-16 16:16:43.485,2616676,L_Ankle,-0.0056,-0.2456,0.9736,5.47,1.85,-8.96,0.0,0.0,0.0,-0.748131,0.057405,0.111576,-0.65154,0.0,0.0,0.0,0,0
2026-06-16 16:16:43.486,2616600,R_Ankle,-0.129,-0.1156,0.9919,1.87,0.84,0.35,-18.61,-20.89,-21.79,0.970244,-0.016022,-0.006012,0.241432,0.0,0.0,0.0,0,0
2026-06-16 16:16:43.488,2616637,L_Shank,-0.0841,-0.2059,0.9642,1.54,1.51,-1.09,17.17,32.61,-8.82,0.86343,-0.098331,-0.021699,0.494278,0.0,0.0,0.0,0,0
2026-06-16 16:16:43.488,2616620,R_Ankle,-0.1397,-0.1196,0.9904,1.89,0.93,0.35,-16.55,-20.25,-21.47,0.970122,-0.015687,-0.004151,0.242012,0.0,0.0,0.0,0,0
2026-06-16 16:16:43.491,2616640,R_Ankle,-0.1495,-0.1191,1.0014,1.89,0.96,0.33,0.0,0.0,0.0,0.97,-0.015381,-0.002197,0.242561,0.0,0.0,0.0,0,0
2026-06-16 16:16:43.491,2616657,L_Shank,-0.0924,-0.2171,0.959,1.55,1.56,-1.06,18.75,33.13,-9.31,0.863796,-0.099246,-0.020417,0.493484,0.0,0.0,0.0,0,0
2026-06-16 16:16:43.494,2616677,L_Shank,-0.1002,-0.2098,0.9489,1.54,1.65,-0.98,0.0,0.0,0.0,0.864132,-0.100223,-0.019013,0.492752,0.0,0.0,0.0,0,0
2026-06-16 16:16:43.495,2616660,R_Ankle,-0.1593,-0.1117,1.0029,1.91,1.02,0.27,-19.29,-20.9,-21.8,0.969878,-0.015076,-0.000153,0.24308,0.0,0.0,0.0,0,0
2026-06-16 16:16:43.498,2616697,L_Shank,-0.1164,-0.2147,0.9566,1.54,1.69,-0.96,16.66,32.79,-9.59,0.864437,-0.101321,-0.017518,0.49208,0.0,0.0,0.0,0,0
2026-06-16 16:16:43.499,2616617,R_Shank,-0.309,-0.046,0.9715,0.19,1.26,-7.24,-6.91,-27.43,-14.5,0.688711,0.053957,0.089267,-0.71746,0.0,0.0,0.0,0,0
2026-06-16 16:16:43.501,2616649,L_Hip,-0.4484,0.7438,0.5092,-4.32,3.4,1.7,15.14,4.31,-35.57,0.864101,0.457137,0.202063,0.05887,0.0,0.0,0.0,0,0
2026-06-16 16:16:43.502,2616637,R_Shank,-0.3149,2.5252,0.9662,0.19,1.22,-7.21,-5.42,-26.62,-13.76,0.689108,0.055635,0.090518,-0.716788,0.0,0.0,0.0,0,0
2026-06-16 16:16:43.505,2616669,L_Hip,-0.4557,0.7565,0.4952,-4.29,3.51,1.86,0.0,0.0,0.0,0.864528,0.456557,0.202002,0.057283,0.0,0.0,0.0,0,0
2026-06-16 16:16:43.507,2616657,R_Shank,-0.3296,-0.6868,0.9441,0.19,1.16,-7.15,0.0,0.0,0.0,0.689505,0.057375,0.0918,-0.716117,0.0,0.0,0.0,0,0
2026-06-16 16:16:43.510,2616689,L_Hip,-0.4572,0.7452,0.5049,-4.26,3.64,2.01,13.82,5.26,-36.13,0.864925,0.456008,0.202033,0.055879,0.0,0.0,0.0,0,0
2026-06-16 16:16:43.511,2616677,R_Shank,-0.3448,-0.046,0.9614,0.19,1.09,-7.13,-6.56,-27.77,-14.81,0.689962,0.059145,0.093081,-0.715384,0.0,0.0,0.0,0,0
2026-06-16 16:16:43.513,2616709,L_Hip,-0.4626,0.7546,0.4981,-4.22,3.87,2.32,15.81,3.36,-36.45,0.865261,0.455489,0.202094,0.05475,0.0,0.0,0.0,0,0
2026-06-16 16:16:43.515,2616685,L_Ankle,0.0276,-0.2617,0.9486,5.41,2.06,-8.77,16.29,35.37,-2.55,-0.74807,0.058687,0.110324,-0.651692,0.0,0.0,0.0,0,0
2026-06-16 16:16:43.518,2616705,L_Ankle,0.0408,-0.2553,0.9486,5.35,2.32,-8.9,17.16,35.18,-2.7,-0.747978,0.06003,0.108921,-0.651936,0.0,0.0,0.0,0,0
2026-06-16 16:16:43.520,2616725,L_Ankle,0.0428,-0.2759,0.9342,5.29,2.99,-9.25,16.29,35.02,-2.55,-0.747887,0.061373,0.107486,-0.65215,0.0,0.0,0.0,0,0
2026-06-16 16:16:43.522,2616745,L_Ankle,0.0447,-0.2392,0.9429,5.16,3.95,-9.7,16.64,35.37,-2.54,-0.747765,0.062777,0.105899,-0.652425,0.0,0.0,0.0,0,0
2026-06-16 16:16:43.526,2616706,L_Ankle,-1.9229,0.228,1.9561,5.33,0.79,-7.38,16.27,36.08,-2.88,-0.747612,0.064241,0.104312,-0.652699,0.0,0.0,0.0,0,0
2026-06-16 16:16:43.528,2616707,L_Ankle,0.6476,-0.356,0.6712,5.49,0.11,-6.7,0.0,0.0,0.0,-0.74749,0.065645,0.102664,-0.652974,0.0,0.0,0.0,0,0
2026-06-16 16:16:43.530,2616727,L_Ankle,0.0433,-0.3546,0.9333,5.35,-0.01,-8.0,16.28,36.08,-2.2,-0.747337,0.067019,0.101047,-0.653249,0.0,0.0,0.0,0,0
2026-06-16 16:16:43.533,2616747,L_Ankle,-0.0532,-0.2837,0.9328,5.41,0.21,-10.12,17.71,34.29,-2.52,-0.747093,0.068484,0.099399,-0.653615,0.0,0.0,0.0,0,0
2026-06-16 16:16:43.535,2616711,L_Shank,-0.1564,-0.221,0.9412,1.54,1.7,-0.91,17.01,32.46,-9.9,0.864711,-0.102451,-0.015931,0.491409,0.0,0.0,0.0,0,0
2026-06-16 16:16:43.538,2616731,L_Shank,-0.174,-0.2108,0.9474,1.54,1.7,-0.93,16.31,32.11,-9.27,0.864956,-0.10361,-0.014283,0.490768,0.0,0.0,0.0,0,0
2026-06-16 16:16:43.541,2616751,L_Shank,-0.1789,-0.2078,0.9422,1.54,1.67,-0.94,0.0,0.0,0.0,0.86523,-0.104801,-0.012604,0.490127,0.0,0.0,0.0,0,0
2026-06-16 16:16:43.543,2616771,L_Shank,-0.1916,-0.2088,0.9249,1.54,1.61,-0.93,17.17,33.62,-7.9,0.865474,-0.10596,-0.010865,0.489456,0.0,0.0,0.0,0,0
2026-06-16 16:16:43.546,2616729,L_Ankle,-0.0733,-0.247,0.9395,5.45,-0.03,-10.8,15.91,35.73,-3.57,-0.746788,0.069796,0.097751,-0.654103,0.0,0.0,0.0,0,0
2026-06-16 16:16:43.548,2616749,L_Ankle,-0.0875,-0.2524,0.9578,5.42,-0.56,-10.25,0.0,0.0,0.0,-0.74633,0.071139,0.096164,-0.654714,0.0,0.0,0.0,0,0
2026-06-16 16:16:43.551,2616769,L_Ankle,-0.0767,-0.2514,0.94,5.44,-0.81,-10.04,15.94,35.38,-2.55,-0.745811,0.072512,0.094607,-0.655354,0.0,0.0,0.0,0,0
2026-06-16 16:16:43.557,2616789,L_Ankle,-0.0738,-0.248,0.9477,5.41,-1.15,-10.13,18.08,33.57,-1.5,-0.745415,0.074129,0.092898,-0.655873,0.0,0.0,0.0,0,0
2026-06-16 16:16:43.558,2616685,R_Shank,-0.4484,1.3592,0.9408,0.14,-0.22,-7.49,-5.58,-27.12,-13.91,0.692312,0.067263,0.098636,-0.711631,0.0,0.0,0.0,0,0
2026-06-16 16:16:43.560,2616737,L_Shank,-0.2273,-0.2303,0.923,1.55,1.36,-0.93,16.82,32.61,-8.5,0.865719,-0.10715,-0.009156,0.488815,0.0,0.0,0.0,0,0
2026-06-16 16:16:43.562,2616705,R_Shank,-0.4558,2.9004,0.9456,0.12,-0.38,-7.6,-6.57,-28.09,-13.91,0.692679,0.068636,0.099551,-0.71099,0.0,0.0,0.0,0,0
2026-06-16 16:16:43.563,2616757,L_Shank,-0.2361,-0.2108,0.9187,1.55,1.29,-0.93,17.87,31.25,-8.18,0.865932,-0.108341,-0.007477,0.488174,0.0,0.0,0.0,0,0
2026-06-16 16:16:43.565,2616725,R_Shank,-0.4543,-2.112,0.9441,0.08,-0.65,-7.83,0.0,0.0,0.0,0.693014,0.069887,0.100314,-0.710471,0.0,0.0,0.0,0,0
2026-06-16 16:16:43.566,2616777,L_Shank,-0.2512,-0.2323,0.9129,1.55,1.09,-0.91,0.0,0.0,0.0,0.866146,-0.109531,-0.005829,0.487564,0.0,0.0,0.0,0,0
2026-06-16 16:16:43.569,2616745,R_Shank,-0.4582,0.3296,0.9331,0.03,-0.94,-8.09,-5.6,-26.12,-13.6,0.693228,0.071017,0.100986,-0.710044,0.0,0.0,0.0,0,0
2026-06-16 16:16:43.570,2616797,L_Shank,-0.2644,-0.2161,0.923,1.57,1.01,-0.9,15.95,32.78,-8.96,0.866359,-0.11066,-0.004212,0.486953,0.0,0.0,0.0,0,0
2026-06-16 16:16:43.572,2616690,R_Ankle,-0.1716,-0.1082,0.9899,1.9,1.0,0.28,-17.94,-20.88,-23.02,0.969756,-0.01474,0.001923,0.243568,0.0,0.0,0.0,0,0
2026-06-16 16:16:43.575,2616739,L_Hip,-0.4543,0.7487,0.487,-4.11,4.42,2.92,13.62,4.45,-35.69,0.865505,0.455031,0.202246,0.053835,0.0,0.0,0.0,0,0
2026-06-16 16:16:43.577,2616710,R_Ankle,-0.1789,-0.1043,0.9837,1.88,0.98,0.29,-17.93,-20.88,-22.4,0.969634,-0.014466,0.004028,0.244057,0.0,0.0,0.0,0,0
2026-06-16 16:16:43.578,2616759,L_Hip,-0.4459,0.7526,0.4947,-4.09,4.59,3.04,0.0,0.0,0.0,0.865688,0.454634,0.20246,0.053163,0.0,0.0,0.0,0,0
2026-06-16 16:16:43.581,2616730,R_Ankle,-0.1794,-0.1008,0.9751,1.9,0.95,0.27,-17.07,-20.4,-22.24,0.969481,-0.014161,0.006104,0.244545,0.0,0.0,0.0,0,0
2026-06-16 16:16:43.582,2616779,L_Hip,-0.4464,0.7634,0.4865,-4.07,4.76,3.19,13.63,5.09,-35.11,0.86581,0.454329,0.202704,0.052797,0.0,0.0,0.0,0,0
2026-06-16 16:16:43.584,2616750,R_Ankle,-0.1951,-0.0988,0.9741,1.87,0.87,0.29,0.0,0.0,0.0,0.969359,-0.013825,0.008179,0.245033,0.0,0.0,0.0,0,0
2026-06-16 16:16:43.585,2616799,L_Hip,-0.4464,0.7718,0.4971,-4.07,5.06,3.43,14.65,4.47,-36.58,0.865871,0.454115,0.203101,0.052705,0.0,0.0,0.0,0,0
2026-06-16 16:16:43.588,2616774,L_Ankle,-0.0684,-0.2549,0.9333,5.38,-1.51,-10.54,17.36,35.0,-1.51,-0.745262,0.076052,0.090884,-0.656117,0.0,0.0,0.0,0,0
2026-06-16 16:16:43.590,2616794,L_Ankle,-0.0718,-0.2544,0.964,5.38,-1.84,-10.57,0.0,0.0,0.0,-0.745384,0.078463,0.088443,-0.656056,0.0,0.0,0.0,0,0
2026-06-16 16:16:43.592,2616814,L_Ankle,-0.0502,-0.2534,0.9453,5.39,-1.96,-10.58,16.84,33.77,-2.37,-0.744835,0.081332,0.082339,-0.657094,0.0,0.0,0.0,0,0
2026-06-16 16:16:43.594,2616834,L_Ankle,-0.0458,-0.2495,0.9544,5.38,-2.24,-10.65,15.77,35.2,-2.39,-0.742637,0.082461,0.079531,-0.65978,0.0,0.0,0.0,0,0
2026-06-16 16:16:43.597,2616785,L_Hip,-0.4332,0.7703,0.4903,-4.06,5.61,3.93,12.8,4.92,-36.41,0.86581,0.453963,0.203558,0.052858,0.0,0.0,0.0,0,0
2026-06-16 16:16:43.600,2616805,L_Hip,-0.4194,0.7708,0.4792,-4.05,5.71,4.06,13.48,4.93,-36.71,0.865749,0.45381,0.204108,0.053285,0.0,0.0,0.0,0,0
2026-06-16 16:16:43.602,2616825,L_Hip,-0.4185,0.7772,0.4816,-4.05,5.85,4.19,0.0,0.0,0.0,0.865596,0.453719,0.204688,0.053957,0.0,0.0,0.0,0,0
2026-06-16 16:16:43.604,2616845,L_Hip,-0.4229,0.7693,0.4855,-4.02,6.07,4.42,14.97,4.47,-35.71,0.865413,0.453688,0.205329,0.054842,0.0,0.0,0.0,0,0
2026-06-16 16:16:43.608,2616796,L_Ankle,-0.0341,-0.2514,0.9458,5.36,-2.54,-10.85,17.72,34.64,-1.5,-0.741783,0.082736,0.079714,-0.660695,0.0,0.0,0.0,0,0
2026-06-16 16:16:43.609,2616736,R_Ankle,-0.2054,-0.0864,0.988,1.79,0.69,0.31,-17.93,-20.88,-22.71,0.969207,-0.01355,0.010193,0.245552,0.0,0.0,0.0,0,0
2026-06-16 16:16:43.611,2616797,L_Ankle,-0.0203,-0.2622,0.9621,5.35,-2.69,-11.02,0.0,0.0,0.0,-0.741874,0.083407,0.079104,-0.660573,0.0,0.0,0.0,0,0
2026-06-16 16:16:43.612,2616756,R_Ankle,-0.2211,-0.0874,0.9818,1.71,0.53,0.29,-19.13,-22.01,-21.94,0.969054,-0.013245,0.012146,0.246071,0.0,0.0,0.0,0,0
2026-06-16 16:16:43.615,2616817,L_Ankle,-0.0282,-0.2558,0.9486,5.32,-2.75,-11.14,16.47,35.55,-2.03,-0.74218,0.083926,0.078494,-0.660237,0.0,0.0,0.0,0,0
2026-06-16 16:16:43.615,2616776,R_Ankle,-0.225,-0.0894,0.9789,1.68,0.45,0.32,0.0,0.0,0.0,0.968902,-0.01294,0.014039,0.24659,0.0,0.0,0.0,0,0
2026-06-16 16:16:43.618,2616796,R_Ankle,-0.2172,-0.08,0.9741,1.61,0.24,0.29,-19.12,-22.01,-21.63,0.968749,-0.012696,0.015809,0.247108,0.0,0.0,0.0,0,0
2026-06-16 16:16:43.619,2616837,L_Ankle,-0.0262,-0.2622,0.9611,5.3,-2.87,-11.22,16.47,34.48,-2.72,-0.742241,0.084231,0.078066,-0.660176,0.0,0.0,0.0,0,0
2026-06-16 16:16:43.621,2616811,L_Shank,-0.2903,-0.2269,0.9259,1.63,0.45,-0.75,16.47,31.58,-7.86,0.866543,-0.111759,-0.002716,0.486373,0.0,0.0,0.0,0,0
2026-06-16 16:16:43.623,2616831,L_Shank,-0.2982,-0.2308,0.9167,1.64,0.32,-0.71,0.0,0.0,0.0,0.866695,-0.112766,-0.001312,0.485855,0.0,0.0,0.0,0,0
2026-06-16 16:16:43.625,2616752,R_Shank,-0.4543,-1.3412,0.9172,-0.02,-1.37,-8.48,-6.9,-28.09,-14.81,0.69335,0.071993,0.101535,-0.709738,0.0,0.0,0.0,0,0
2026-06-16 16:16:43.627,2616812,L_Shank,-0.3026,-0.2377,0.9091,1.65,0.19,-0.67,16.83,33.29,-8.82,0.866848,-0.113712,0.0,0.485397,0.0,0.0,0.0,0,0
2026-06-16 16:16:43.629,2616772,R_Shank,-0.4401,2.6412,0.947,-0.09,-1.64,-8.7,-6.27,-26.76,-12.7,0.69335,0.072756,0.101962,-0.709586,0.0,0.0,0.0,0,0
2026-06-16 16:16:43.630,2616832,L_Shank,-0.3128,-0.2352,0.9028,1.66,-0.08,-0.55,0.0,0.0,0.0,0.866939,-0.114566,0.00116,0.485,0.0,0.0,0.0,0,0
2026-06-16 16:16:43.633,2616753,R_Shank,-0.4381,1.7412,0.9389,-0.11,-1.79,-8.8,0.0,0.0,0.0,0.693289,0.073336,0.102298,-0.709555,0.0,0.0,0.0,0,0
2026-06-16 16:16:43.634,2616829,L_Hip,-0.3993,0.784,0.4855,-3.91,6.34,4.8,14.82,4.96,-36.15,0.865169,0.453719,0.20603,0.056001,0.0,0.0,0.0,0,0
2026-06-16 16:16:43.637,2616849,L_Hip,-0.3944,0.787,0.4724,-3.9,6.39,4.9,14.47,3.98,-36.14,0.864864,0.45378,0.206763,0.057314,0.0,0.0,0.0,0,0
2026-06-16 16:16:43.638,2616773,R_Shank,-0.4342,1.8708,0.9504,-0.13,-1.9,-8.91,-7.76,-27.25,-14.64,0.693106,0.073733,0.102512,-0.709647,0.0,0.0,0.0,0,0
2026-06-16 16:16:43.640,2616869,L_Hip,-0.3885,0.785,0.4666,-3.87,6.45,4.99,0.0,0.0,0.0,0.864528,0.453932,0.207465,0.058809,0.0,0.0,0.0,0,0
2026-06-16 16:16:43.642,2616757,R_Ankle,-0.2319,-0.0795,0.9784,1.43,-0.23,0.08,-17.94,-21.83,-22.7,0.968596,-0.012391,0.017457,0.247597,0.0,0.0,0.0,0,0
2026-06-16 16:16:43.644,2616889,L_Hip,-0.3763,0.7885,0.4734,-3.83,6.53,5.15,15.0,5.44,-36.01,0.864132,0.454146,0.208136,0.060427,0.0,0.0,0.0,0,0
2026-06-16 16:16:43.645,2616777,R_Ankle,-0.2397,-0.0711,0.9732,1.4,-0.36,0.03,-17.78,-20.7,-24.4,0.968474,-0.012177,0.018891,0.248024,0.0,0.0,0.0,0,0
2026-06-16 16:16:43.647,2616836,L_Shank,-0.3329,-0.2235,0.9091,1.7,-0.5,-0.36,17.0,32.11,-8.96,0.867,-0.11539,0.002228,0.484695,0.0,0.0,0.0,0,0
2026-06-16 16:16:43.649,2616797,R_Ankle,-0.2436,-0.0696,0.9732,1.34,-0.51,-0.03,-16.92,-20.86,-23.31,0.968352,-0.011933,0.020173,0.24839,0.0,0.0,0.0,0,0
2026-06-16 16:16:43.650,2616856,L_Shank,-0.3221,-0.2274,0.9081,1.71,-0.65,-0.29,15.96,33.13,-9.28,0.867031,-0.116092,0.003174,0.484481,0.0,0.0,0.0,0,0
2026-06-16 16:16:43.651,2616817,R_Ankle,-0.25,-0.077,0.9899,1.22,-0.79,-0.16,0.0,0.0,0.0,0.968261,-0.011719,0.021271,0.248665,0.0,0.0,0.0,0,0
2026-06-16 16:16:43.653,2616876,L_Shank,-0.3421,-0.223,0.8971,1.73,-0.93,-0.13,16.29,32.08,-7.4,0.867,-0.116672,0.004028,0.48439,0.0,0.0,0.0,0,0
2026-06-16 16:16:43.655,2616896,L_Shank,-0.3329,-0.2206,0.8985,1.74,-1.07,-0.06,0.0,0.0,0.0,0.866939,-0.117161,0.0047,0.48439,0.0,0.0,0.0,0,0
2026-06-16 16:16:43.657,2616851,L_Hip,-0.3503,0.8007,0.4608,-3.76,6.65,5.38,14.98,4.47,-36.0,0.863704,0.454421,0.208808,0.062227,0.0,0.0,0.0,0,0
2026-06-16 16:16:43.660,2616787,R_Hip,-0.1881,-0.9835,-0.0019,0.25,-1.58,1.96,-15.41,5.16,-39.08,0.146031,0.034639,0.649403,-0.745476,0.0,0.0,0.0,0,0
2026-06-16 16:16:43.661,2616852,L_Hip,-0.3562,0.815,0.4594,-3.74,6.69,5.46,15.28,2.87,-35.71,0.863247,0.454756,0.209418,0.064119,0.0,0.0,0.0,0,0
2026-06-16 16:16:43.663,2616807,R_Hip,-0.1703,-0.9762,0.0047,0.25,-1.7,2.08,0.0,0.0,0.0,0.145787,0.034455,0.649556,-0.745384,0.0,0.0,0.0,0,0
2026-06-16 16:16:43.664,2616872,L_Hip,-0.3488,0.8228,0.4589,-3.74,6.7,5.48,15.62,3.52,-35.14,0.862728,0.455153,0.210028,0.066103,0.0,0.0,0.0,0,0
2026-06-16 16:16:43.666,2616827,R_Hip,-0.1708,-0.9777,-0.0053,0.25,-1.81,2.19,-15.77,6.62,-38.74,0.145756,0.034211,0.649678,-0.745293,0.0,0.0,0.0,0,0
2026-06-16 16:16:43.667,2616892,L_Hip,-0.3429,0.814,0.4511,-3.74,6.7,5.51,0.0,0.0,0.0,0.862209,0.45558,0.210578,0.068209,0.0,0.0,0.0,0,0
2026-06-16 16:16:43.671,2616847,R_Hip,-0.1812,-0.9923,0.0009,0.23,-2.04,2.45,-16.13,4.43,-38.74,0.14594,0.033937,0.64977,-0.74517,0.0,0.0,0.0,0,0
2026-06-16 16:16:43.672,2616862,L_Shank,-0.3177,-0.2289,0.91,1.76,-1.65,0.17,16.82,31.59,-8.18,0.866817,-0.117527,0.005249,0.484512,0.0,0.0,0.0,0,0
2026-06-16 16:16:43.675,2616797,R_Shank,-0.3389,0.8476,0.9552,-0.25,-3.22,-9.83,-7.08,-27.92,-14.05,0.691,0.072695,0.10181,-0.711936,0.0,0.0,0.0,0,0
2026-06-16 16:16:43.678,2616882,L_Shank,-0.3201,-0.2328,0.9119,1.75,-1.79,0.24,17.35,31.09,-8.95,0.866634,-0.117801,0.005585,0.484756,0.0,0.0,0.0,0,0
2026-06-16 16:16:43.680,2616817,R_Shank,-0.3365,2.1364,0.9523,-0.28,-3.29,-9.84,0.0,0.0,0.0,0.69042,0.071963,0.101321,-0.712638,0.0,0.0,0.0,0,0
2026-06-16 16:16:43.682,2616902,L_Shank,-0.303,-0.2382,0.9091,1.74,-2.06,0.37,0.0,0.0,0.0,0.866451,-0.117954,0.005768,0.485061,0.0,0.0,0.0,0,0
2026-06-16 16:16:43.686,2616837,R_Shank,-0.3296,-1.2052,0.9528,-0.29,-3.35,-9.84,-5.59,-26.78,-13.0,0.68984,0.071108,0.100742,-0.71334,0.0,0.0,0.0,0,0
2026-06-16 16:16:43.689,2616922,L_Shank,-0.2913,-0.2284,0.9167,1.75,-2.18,0.45,17.52,31.93,-8.19,0.866207,-0.118046,0.005707,0.485488,0.0,0.0,0.0,0,0
2026-06-16 16:16:43.691,2616857,R_Shank,-0.3183,0.4656,0.9605,-0.29,-3.44,-9.84,-5.38,-27.96,-14.97,0.689261,0.070101,0.100131,-0.714072,0.0,0.0,0.0,0,0
2026-06-16 16:16:43.693,2616874,L_Hip,-0.3287,0.8184,0.4526,-3.7,6.7,5.58,14.96,3.83,-35.42,0.86166,0.456038,0.211158,0.070345,0.0,0.0,0.0,0,0
2026-06-16 16:16:43.696,2616802,R_Ankle,-0.2157,-0.0825,0.9784,0.06,-3.22,-1.26,-18.1,-21.37,-21.93,0.968505,-0.011505,0.021302,0.247688,0.0,0.0,0.0,0,0
2026-06-16 16:16:43.698,2616894,L_Hip,-0.3262,0.8224,0.4526,-3.7,6.69,5.57,15.65,4.49,-36.01,0.86111,0.456496,0.211676,0.072481,0.0,0.0,0.0,0,0
2026-06-16 16:16:43.701,2616822,R_Ankle,-0.2172,-0.0909,0.9655,0.0,-3.38,-1.3,-17.09,-21.35,-22.85,0.968657,-0.011689,0.020325,0.2472,0.0,0.0,0.0,0,0
2026-06-16 16:16:43.701,2616914,L_Hip,-0.3233,0.8214,0.4468,-3.68,6.67,5.57,0.0,0.0,0.0,0.86053,0.457015,0.212134,0.074679,0.0,0.0,0.0,0,0
2026-06-16 16:16:43.704,2616842,R_Ankle,-0.202,-0.1013,0.9914,-0.04,-3.45,-1.32,-16.73,-20.72,-21.93,0.96881,-0.011933,0.019196,0.246681,0.0,0.0,0.0,0,0
2026-06-16 16:16:43.704,2616934,L_Hip,-0.3066,0.8287,0.4463,-3.65,6.61,5.59,15.13,3.99,-35.57,0.859951,0.457533,0.212622,0.076876,0.0,0.0,0.0,0,0
2026-06-16 16:16:43.710,2616886,L_Shank,-0.2038,-0.2171,0.9263,1.77,-3.32,0.94,16.3,32.45,-8.96,0.864376,-0.116581,0.003174,0.48912,0.0,0.0,0.0,0,0
2026-06-16 16:16:43.711,2616862,R_Ankle,-0.1922,-0.0998,0.9808,-0.1,-3.6,-1.32,-17.07,-21.36,-21.62,0.968963,-0.012207,0.017945,0.246162,0.0,0.0,0.0,0,0
2026-06-16 16:16:43.716,2616906,L_Shank,-0.2122,-0.2161,0.9383,1.77,-3.38,0.94,16.3,30.74,-8.63,0.863948,-0.116001,0.002258,0.489975,0.0,0.0,0.0,0,0
2026-06-16 16:16:43.717,2616812,R_Hip,-0.1713,-0.9874,0.0014,0.28,-2.53,2.94,-14.86,4.25,-39.93,0.146367,0.033723,0.649861,-0.745048,0.0,0.0,0.0,0,0
2026-06-16 16:16:43.720,2616832,R_Hip,-0.1664,-0.9835,0.0187,0.29,-2.67,3.06,0.0,0.0,0.0,0.147038,0.033418,0.649861,-0.744896,0.0,0.0,0.0,0,0
2026-06-16 16:16:43.720,2616887,L_Shank,-0.1999,-0.2264,0.9244,1.79,-3.48,0.98,16.47,31.92,-7.87,0.863552,-0.11536,0.00116,0.490829,0.0,0.0,0.0,0,0
2026-06-16 16:16:43.723,2616907,L_Shank,-0.1921,-0.2117,0.9201,1.8,-3.48,0.97,0.0,0.0,0.0,0.863124,-0.114689,3.1e-05,0.491745,0.0,0.0,0.0,0,0
2026-06-16 16:16:43.724,2616852,R_Hip,-0.1683,-0.9786,0.0115,0.3,-2.82,3.15,-15.04,2.97,-39.07,0.147923,0.033082,0.6498,-0.744804,0.0,0.0,0.0,0,0
2026-06-16 16:16:43.728,2616896,L_Hip,-0.2988,0.8332,0.4318,-3.64,6.45,5.56,15.63,3.84,-35.43,0.85934,0.458083,0.213019,0.079073,0.0,0.0,0.0,0,0
2026-06-16 16:16:43.730,2616872,R_Hip,-0.1535,-0.9865,0.0038,0.3,-3.11,3.32,-16.14,4.8,-40.11,0.149052,0.032655,0.649709,-0.744682,0.0,0.0,0.0,0,0
2026-06-16 16:16:43.734,2616897,L_Hip,-0.2968,0.843,0.4521,-3.63,6.41,5.57,15.96,3.84,-35.15,0.85876,0.458663,0.213355,0.08124,0.0,0.0,0.0,0,0
2026-06-16 16:16:43.735,2616837,R_Hip,-0.1659,-0.9786,-0.0038,0.35,-3.67,3.38,-15.77,5.16,-39.76,0.150334,0.032105,0.649586,-0.74456,0.0,0.0,0.0,0,0
2026-06-16 16:16:43.739,2616917,L_Hip,-0.2953,0.8341,0.4463,-3.62,6.29,5.55,17.16,3.39,-36.47,0.85815,0.459243,0.21363,0.083407,0.0,0.0,0.0,0,0
2026-06-16 16:16:43.739,2616857,R_Hip,-0.1723,-0.985,0.0192,0.36,-3.78,3.32,0.0,0.0,0.0,0.151769,0.031465,0.649434,-0.744407,0.0,0.0,0.0,0,0
2026-06-16 16:16:43.742,2616937,L_Hip,-0.2792,0.8567,0.4376,-3.62,6.24,5.53,0.0,0.0,0.0,0.85757,0.459883,0.213874,0.085513,0.0,0.0,0.0,0,0
2026-06-16 16:16:43.742,2616877,R_Hip,-0.1841,-0.9791,0.012,0.37,-3.89,3.27,-16.32,4.61,-38.91,0.153264,0.030671,0.64919,-0.744346,0.0,0.0,0.0,0,0
2026-06-16 16:16:43.747,2616897,R_Hip,-0.1945,-0.9816,0.0187,0.38,-4.06,3.15,-15.95,5.34,-38.57,0.15482,0.029756,0.648915,-0.744316,0.0,0.0,0.0,0,0
2026-06-16 16:16:43.748,2616909,L_Ankle,-0.0061,-0.2627,0.9467,5.29,-3.12,-11.16,15.74,36.26,-3.06,-0.742088,0.084353,0.077944,-0.660329,0.0,0.0,0.0,0,0
2026-06-16 16:16:43.751,2616842,R_Shank,-0.2879,0.984,0.9682,-0.35,-3.66,-9.83,-6.07,-27.6,-13.76,0.688711,0.069033,0.099429,-0.714835,0.0,0.0,0.0,0,0
2026-06-16 16:16:43.752,2616929,L_Ankle,-0.0017,-0.2592,0.9482,5.32,-3.22,-11.11,16.81,35.54,-2.71,-0.742027,0.084323,0.077975,-0.660421,0.0,0.0,0.0,0,0
2026-06-16 16:16:43.755,2616862,R_Shank,-0.2918,0.984,0.9614,-0.35,-3.69,-9.84,0.0,0.0,0.0,0.688162,0.067873,0.098697,-0.715567,0.0,0.0,0.0,0,0
2026-06-16 16:16:43.755,2616949,L_Ankle,-0.0002,-0.2617,0.9669,5.31,-3.29,-11.08,0.0,0.0,0.0,-0.742088,0.08417,0.078158,-0.66036,0.0,0.0,0.0,0,0
2026-06-16 16:16:43.758,2616882,R_Shank,-0.2849,1.7544,0.9566,-0.36,-3.7,-9.85,-5.91,-27.44,-13.91,0.687613,0.066591,0.097903,-0.71633,0.0,0.0,0.0,0,0
2026-06-16 16:16:43.759,2616969,L_Ankle,0.0134,-0.2588,0.9405,5.33,-3.33,-11.13,16.24,37.14,-3.9,-0.742149,0.083865,0.078524,-0.660298,0.0,0.0,0.0,0,0
2026-06-16 16:16:43.763,2616902,R_Shank,-0.28,-1.328,0.9586,-0.35,-3.76,-9.87,-5.74,-26.95,-14.66,0.687063,0.065279,0.097079,-0.717093,0.0,0.0,0.0,0,0
2026-06-16 16:16:43.764,2616931,L_Ankle,0.0256,-0.249,0.9674,5.36,-3.38,-11.32,15.58,34.67,-3.58,-0.74221,0.083407,0.079073,-0.660207,0.0,0.0,0.0,0,0
2026-06-16 16:16:43.767,2616863,R_Hip,-0.4238,-0.9191,0.0707,0.51,-3.49,3.13,-18.68,5.16,-37.72,0.17835,0.02002,0.643086,-0.744438,0.0,0.0,0.0,0,0
2026-06-16 16:16:43.767,2616932,L_Ankle,-0.0047,-0.269,0.9472,5.29,-3.33,-11.35,0.0,0.0,0.0,-0.742302,0.082797,0.079775,-0.660085,0.0,0.0,0.0,0,0
2026-06-16 16:16:43.772,2616883,R_Hip,-0.4406,-0.8952,0.0885,0.51,-3.35,3.07,0.0,0.0,0.0,0.180242,0.01999,0.642659,-0.744346,0.0,0.0,0.0,0,0
2026-06-16 16:16:43.773,2616952,L_Ankle,0.0379,-0.2421,0.9525,5.39,-3.37,-11.42,16.45,35.54,-3.39,-0.742454,0.082095,0.08063,-0.659932,0.0,0.0,0.0,0,0
2026-06-16 16:16:43.777,2616864,R_Hip,-0.4381,-0.9098,0.1111,0.47,-3.21,3.0,-19.05,6.26,-38.06,0.181982,0.020081,0.642201,-0.744346,0.0,0.0,0.0,0,0
2026-06-16 16:16:43.777,2616972,L_Ankle,0.0202,-0.2705,0.9568,5.33,-3.3,-11.61,17.53,35.53,-1.67,-0.742637,0.081301,0.081576,-0.659658,0.0,0.0,0.0,0,0
2026-06-16 16:16:43.780,2616884,R_Hip,-0.4505,-0.9079,0.0996,0.42,-2.92,2.81,-19.78,6.26,-39.78,0.183508,0.020264,0.641743,-0.744316,0.0,0.0,0.0,0,0
2026-06-16 16:16:43.782,2616954,L_Ankle,-0.0017,-0.2695,0.9563,5.46,-3.89,-11.52,16.84,35.9,-0.66,-0.742943,0.080416,0.082644,-0.659322,0.0,0.0,0.0,0,0
2026-06-16 16:16:43.785,2616911,R_Shank,-0.2408,-0.5572,0.9672,-0.33,-3.8,-9.89,-5.92,-26.78,-14.21,0.686514,0.063936,0.096225,-0.717856,0.0,0.0,0.0,0,0
2026-06-16 16:16:43.786,2616974,L_Ankle,0.0124,-0.2549,0.9678,5.54,-4.45,-11.16,15.93,35.37,-3.23,-0.743217,0.079562,0.083773,-0.658956,0.0,0.0,0.0,0,0
2026-06-16 16:16:43.788,2616931,R_Shank,-0.2496,2.6548,0.9864,-0.32,-3.8,-9.89,0.0,0.0,0.0,0.685934,0.062563,0.095279,-0.71865,0.0,0.0,0.0,0,0
2026-06-16 16:16:43.790,2616994,L_Ankle,0.0021,-0.272,0.9578,5.61,-4.84,-10.98,0.0,0.0,0.0,-0.743492,0.078555,0.084964,-0.65862,0.0,0.0,0.0,0,0
2026-06-16 16:16:43.793,2616951,R_Shank,-0.2452,0.3428,0.984,-0.33,-3.8,-9.88,-6.06,-28.27,-14.07,0.685385,0.061098,0.094333,-0.719413,0.0,0.0,0.0,0,0
2026-06-16 16:16:43.795,2617014,L_Ankle,-0.012,-0.2695,0.9856,5.69,-5.7,-10.7,16.94,36.77,-4.23,-0.743736,0.077517,0.086276,-0.658284,0.0,0.0,0.0,0,0
2026-06-16 16:16:43.797,2616971,R_Shank,-0.229,-1.9692,0.9672,-0.32,-3.8,-9.87,-5.09,-26.3,-13.76,0.684835,0.059694,0.093387,-0.720206,0.0,0.0,0.0,0,0
2026-06-16 16:16:43.799,2616962,L_Shank,-0.1623,-0.2103,0.9446,1.84,-3.63,0.96,16.48,31.26,-9.1,0.862728,-0.113926,-0.001129,0.49263,0.0,0.0,0.0,0,0
2026-06-16 16:16:43.801,2616913,R_Hip,-0.4495,-0.9137,0.1309,0.29,-1.16,1.44,-18.32,5.53,-37.72,0.187628,0.022309,0.640431,-0.744377,0.0,0.0,0.0,0,0
2026-06-16 16:16:43.802,2616982,L_Shank,-0.1462,-0.2137,0.9532,1.86,-3.66,0.93,17.52,32.95,-8.83,0.8623,-0.113071,-0.002411,0.493545,0.0,0.0,0.0,0,0
2026-06-16 16:16:43.804,2616933,R_Hip,-0.4391,-0.9206,0.1174,0.27,-1.01,1.31,0.0,0.0,0.0,0.187658,0.022767,0.640309,-0.744469,0.0,0.0,0.0,0,0
2026-06-16 16:16:43.806,2616963,L_Shank,-0.1476,-0.2049,0.9422,1.88,-3.67,0.87,17.87,30.92,-8.8,0.861904,-0.112186,-0.003754,0.49443,0.0,0.0,0.0,0,0
2026-06-16 16:16:43.808,2616953,R_Hip,-0.4352,-0.9186,0.1097,0.24,-0.88,1.16,-18.69,6.26,-39.43,0.187414,0.023194,0.640248,-0.74456,0.0,0.0,0.0,0,0
2026-06-16 16:16:43.809,2616983,L_Shank,-0.1374,-0.2034,0.9426,1.89,-3.7,0.83,16.13,33.3,-9.13,0.861538,-0.11124,-0.005127,0.495285,0.0,0.0,0.0,0,0
2026-06-16 16:16:43.811,2616973,R_Hip,-0.4204,-0.9279,0.0919,0.22,-0.59,0.96,-19.78,5.53,-38.4,0.186865,0.023652,0.640248,-0.744682,0.0,0.0,0.0,0,0
2026-06-16 16:16:43.813,2616986,L_Shank,-0.1071,-0.2122,0.9412,1.91,-3.72,0.7,17.17,30.92,-8.79,0.861202,-0.110263,-0.006531,0.496078,0.0,0.0,0.0,0,0
2026-06-16 16:16:43.814,2616915,R_Ankle,-0.1873,-0.1062,0.9799,-0.15,-3.74,-1.33,-16.73,-20.72,-21.93,0.969115,-0.012482,0.016572,0.245613,0.0,0.0,0.0,0,0
2026-06-16 16:16:43.815,2616987,L_Shank,-0.1105,-0.2176,0.9436,1.92,-3.7,0.66,0.0,0.0,0.0,0.860866,-0.109287,-0.007996,0.496841,0.0,0.0,0.0,0,0
2026-06-16 16:16:43.817,2616935,R_Ankle,-0.1927,-0.0998,0.9789,-0.16,-3.82,-1.32,-16.92,-21.83,-22.38,0.969298,-0.012757,0.015076,0.245064,0.0,0.0,0.0,0,0
2026-06-16 16:16:43.818,2617007,L_Shank,-0.0983,-0.2039,0.9604,1.93,-3.69,0.58,17.88,33.3,-9.46,0.860561,-0.10828,-0.009491,0.497543,0.0,0.0,0.0,0,0
2026-06-16 16:16:43.821,2616955,R_Ankle,-0.1794,-0.1092,0.9871,-0.18,-3.86,-1.34,-17.75,-21.37,-21.31,0.969451,-0.013062,0.013581,0.244545,0.0,0.0,0.0,0,0
2026-06-16 16:16:43.823,2617027,L_Shank,-0.1027,-0.2166,0.9489,1.93,-3.67,0.55,18.4,33.13,-9.3,0.860286,-0.107242,-0.010987,0.498215,0.0,0.0,0.0,0,0
2026-06-16 16:16:43.826,2616975,R_Ankle,-0.1804,-0.0998,0.9871,-0.19,-3.91,-1.39,-17.93,-19.6,-23.34,0.969604,-0.013367,0.011994,0.243965,0.0,0.0,0.0,0,0
2026-06-16 16:16:43.827,2616999,L_Ankle,-2.0366,0.1493,1.9561,5.9,-5.64,-11.39,15.02,36.27,-4.1,-0.74395,0.076418,0.087649,-0.65801,0.0,0.0,0.0,0,0
2026-06-16 16:16:43.830,2616932,R_Shank,-0.2054,1.1136,0.9735,-0.33,-3.7,-9.82,-6.24,-27.44,-14.21,0.684256,0.058229,0.09241,-0.720969,0.0,0.0,0.0,0,0
2026-06-16 16:16:43.830,2617019,L_Ankle,0.7691,-0.163,1.6783,5.61,-3.09,-13.28,15.39,35.91,-3.41,-0.744194,0.075259,0.089084,-0.657643,0.0,0.0,0.0,0,0
2026-06-16 16:16:43.832,2616952,R_Shank,-0.1981,0.4724,0.984,-0.34,-3.67,-9.8,0.0,0.0,0.0,0.683706,0.056764,0.091464,-0.721732,0.0,0.0,0.0,0,0
2026-06-16 16:16:43.833,2617039,L_Ankle,0.1305,-0.2632,0.8387,5.55,-3.73,-11.15,0.0,0.0,0.0,-0.744499,0.074099,0.090518,-0.657277,0.0,0.0,0.0,0,0
2026-06-16 16:16:43.835,2616972,R_Shank,-0.1931,-2.8692,0.9783,-0.32,-3.64,-9.77,-4.91,-27.13,-13.62,0.683187,0.05533,0.090518,-0.722465,0.0,0.0,0.0,0,0
2026-06-16 16:16:43.836,2617059,L_Ankle,0.1491,-0.3399,0.8944,5.48,-2.96,-10.7,15.78,34.85,-2.05,-0.744804,0.07297,0.091922,-0.656819,0.0,0.0,0.0,0,0
2026-06-16 16:16:43.838,2616992,R_Shank,-0.1814,1.7544,0.9831,-0.32,-3.56,-9.75,-5.42,-26.62,-13.76,0.682669,0.053896,0.089572,-0.723197,0.0,0.0,0.0,0,0
2026-06-16 16:16:43.839,2617010,L_Hip,-0.2684,0.8641,0.4361,-3.61,6.09,5.35,16.99,3.87,-35.74,0.85699,0.460494,0.213996,0.087619,0.0,0.0,0.0,0,0
2026-06-16 16:16:43.842,2617030,L_Hip,-0.2576,0.8729,0.4332,-3.61,6.06,5.29,15.77,2.39,-35.57,0.85638,0.461196,0.214057,0.089663,0.0,0.0,0.0,0,0
2026-06-16 16:16:43.842,2616937,R_Hip,-0.2206,-0.9728,0.0235,0.23,-0.29,0.88,-16.32,4.61,-38.91,0.147832,0.035371,0.648732,-0.745659,0.0,0.0,0.0,0,0
2026-06-16 16:16:43.844,2617050,L_Hip,-0.2502,0.8715,0.4395,-3.63,6.0,5.22,15.94,3.2,-34.56,0.855831,0.461837,0.214087,0.091617,0.0,0.0,0.0,0,0
2026-06-16 16:16:43.844,2616957,R_Hip,-0.2142,-0.9796,0.0139,0.22,-0.35,0.93,-15.04,4.8,-38.39,0.14658,0.035463,0.648976,-0.745689,0.0,0.0,0.0,0,0
2026-06-16 16:16:43.846,2617070,L_Hip,-0.2458,0.872,0.4168,-3.67,5.9,5.09,0.0,0.0,0.0,0.855251,0.462477,0.214087,0.093509,0.0,0.0,0.0,0,0
2026-06-16 16:16:43.848,2616977,R_Hip,-0.2073,-0.984,0.025,0.22,-0.45,1.01,-15.59,4.25,-39.93,0.14539,0.035463,0.649251,-0.745689,0.0,0.0,0.0,0,0
2026-06-16 16:16:43.850,2617012,L_Shank,-0.0802,-0.2078,0.9474,1.96,-3.53,0.48,16.65,32.78,-8.66,0.860042,-0.106204,-0.012482,0.498825,0.0,0.0,0.0,0,0
2026-06-16 16:16:43.852,2616997,R_Hip,-0.2093,-0.9762,0.0235,0.25,-0.63,1.17,-14.86,3.88,-39.25,0.144383,0.035463,0.649464,-0.745689,0.0,0.0,0.0,0,0
2026-06-16 16:16:43.854,2617032,L_Shank,-0.0831,-0.2137,0.9532,1.94,-3.51,0.46,0.0,0.0,0.0,0.859798,-0.105197,-0.013947,0.499435,0.0,0.0,0.0,0,0
2026-06-16 16:16:43.856,2616955,R_Shank,-0.1769,0.4724,0.9999,-0.31,-3.37,-9.7,-5.56,-28.11,-13.92,0.68215,0.052522,0.088595,-0.723899,0.0,0.0,0.0,0,0
2026-06-16 16:16:43.857,2617052,L_Shank,-0.0753,-0.2059,0.9618,1.97,-3.42,0.45,16.66,31.1,-9.57,0.859584,-0.10419,-0.015381,0.499985,0.0,0.0,0.0,0,0
2026-06-16 16:16:43.860,2616975,R_Shank,-0.1627,-1.1984,0.9874,-0.3,-3.33,-9.69,-5.74,-27.28,-13.76,0.681631,0.051149,0.08771,-0.724601,0.0,0.0,0.0,0,0
2026-06-16 16:16:43.860,2617072,L_Shank,-0.0665,-0.2122,0.9522,1.96,-3.35,0.45,17.7,32.11,-8.97,0.85934,-0.103214,-0.016755,0.500534,0.0,0.0,0.0,0,0
2026-06-16 16:16:43.863,2617032,L_Hip,-0.2443,0.8823,0.4076,-3.74,5.69,4.74,16.98,4.19,-35.16,0.854701,0.463149,0.214087,0.095309,0.0,0.0,0.0,0,0
2026-06-16 16:16:43.863,2616995,R_Shank,-0.1573,-2.8692,0.9855,-0.31,-3.25,-9.67,-5.24,-27.12,-13.61,0.681112,0.049837,0.086825,-0.725272,0.0,0.0,0.0,0,0
2026-06-16 16:16:43.867,2617052,L_Hip,-0.2394,0.8798,0.4022,-3.74,5.64,4.67,16.46,2.73,-35.88,0.854183,0.46382,0.214057,0.097018,0.0,0.0,0.0,0,0
2026-06-16 16:16:43.868,2617015,R_Shank,-0.1598,-1.9692,0.997,-0.29,-3.19,-9.64,0.0,0.0,0.0,0.680624,0.048555,0.085971,-0.725944,0.0,0.0,0.0,0,0
2026-06-16 16:16:43.871,2617072,L_Hip,-0.234,0.8921,0.4056,-3.78,5.55,4.55,17.11,2.73,-34.14,0.853694,0.4644,0.213996,0.098544,0.0,0.0,0.0,0,0
2026-06-16 16:16:43.872,2616961,R_Ankle,-0.1255,-0.1216,0.9938,-0.11,-3.74,-1.26,-18.62,-20.88,-22.72,0.970916,-0.016083,-0.003052,0.238807,0.0,0.0,0.0,0,0
2026-06-16 16:16:43.874,2617092,L_Hip,-0.2321,0.8788,0.4109,-3.81,5.44,4.36,16.75,1.44,-34.71,0.853206,0.46498,0.213935,0.099948,0.0,0.0,0.0,0,0
2026-06-16 16:16:43.875,2616981,R_Ankle,-0.1241,-0.1345,0.9986,-0.09,-3.67,-1.22,0.0,0.0,0.0,0.971007,-0.016327,-0.004639,0.238319,0.0,0.0,0.0,0,0
2026-06-16 16:16:43.878,2617054,L_Hip,-0.2232,0.8921,0.4017,-3.9,5.17,3.87,16.47,3.37,-35.88,0.852809,0.465529,0.213843,0.10123,0.0,0.0,0.0,0,0
2026-06-16 16:16:43.878,2617001,R_Ankle,-0.1177,-0.1246,1.0067,-0.07,-3.63,-1.22,-18.07,-19.79,-20.72,0.971129,-0.016602,-0.006195,0.237831,0.0,0.0,0.0,0,0
2026-06-16 16:16:43.880,2617074,L_Hip,-0.2134,0.9009,0.4003,-3.94,5.09,3.75,0.0,0.0,0.0,0.852443,0.465987,0.213721,0.102359,0.0,0.0,0.0,0,0
2026-06-16 16:16:43.882,2617021,R_Ankle,-0.1206,-0.1325,0.9971,-0.02,-3.51,-1.25,-18.6,-20.58,-21.18,0.971221,-0.016877,-0.007691,0.237342,0.0,0.0,0.0,0,0
2026-06-16 16:16:43.884,2617094,L_Hip,-0.2169,0.9039,0.4027,-3.95,5.03,3.63,16.63,3.21,-35.44,0.852107,0.466475,0.21363,0.103275,0.0,0.0,0.0,0,0
2026-06-16 16:16:43.885,2616977,R_Shank,-0.1122,0.4792,1.0076,-0.2,-2.38,-9.06,-5.06,-27.3,-14.37,0.678365,0.04294,0.082339,-0.728782,0.0,0.0,0.0,0,0
2026-06-16 16:16:43.887,2617114,L_Hip,-0.1992,0.9108,0.3887,-4.02,4.86,3.38,15.76,2.07,-34.99,0.851802,0.466872,0.213477,0.104007,0.0,0.0,0.0,0,0
2026-06-16 16:16:43.888,2616997,R_Shank,-0.1117,2.15,0.9754,-0.19,-2.28,-8.97,-4.74,-27.29,-13.17,0.67806,0.041993,0.081759,-0.729209,0.0,0.0,0.0,0,0
2026-06-16 16:16:43.890,2617067,L_Ankle,0.083,-0.2685,0.9515,5.51,-2.85,-10.32,14.86,36.1,-3.59,-0.745201,0.071718,0.093387,-0.656331,0.0,0.0,0.0,0,0
2026-06-16 16:16:43.891,2617017,R_Shank,-0.1092,-2.6036,0.9989,-0.19,-2.09,-8.77,0.0,0.0,0.0,0.677816,0.041139,0.08121,-0.729545,0.0,0.0,0.0,0,0
2026-06-16 16:16:43.893,2617087,L_Ankle,0.106,-0.2549,0.9669,5.5,-2.5,-11.09,15.57,35.38,-3.58,-0.745628,0.070528,0.094821,-0.655782,0.0,0.0,0.0,0,0
2026-06-16 16:16:43.894,2617037,R_Shank,-0.1033,-0.2916,1.0013,-0.18,-2.0,-8.66,-4.56,-27.14,-14.53,0.677664,0.040376,0.080782,-0.729759,0.0,0.0,0.0,0,0
2026-06-16 16:16:43.897,2617107,L_Ankle,0.1129,-0.248,0.9712,5.51,-2.54,-10.71,0.0,0.0,0.0,-0.745994,0.069124,0.096347,-0.655263,0.0,0.0,0.0,0,0
2026-06-16 16:16:43.899,2616982,R_Ankle,-0.1069,-0.1429,0.9995,0.01,-3.35,-1.19,-17.92,-20.25,-21.79,0.971343,-0.01709,-0.009095,0.236854,0.0,0.0,0.0,0,0
2026-06-16 16:16:43.901,2617127,L_Ankle,0.1036,-0.2646,0.9626,5.51,-2.37,-10.64,15.74,35.2,-4.09,-0.746208,0.067629,0.098117,-0.654927,0.0,0.0,0.0,0,0
2026-06-16 16:16:43.902,2617002,R_Ankle,-0.1089,-0.137,0.999,0.06,-3.22,-1.14,0.0,0.0,0.0,0.971435,-0.017365,-0.010468,0.236396,0.0,0.0,0.0,0,0
2026-06-16 16:16:43.905,2617087,L_Shank,-0.0475,-0.2069,0.9676,1.98,-3.13,0.41,18.41,32.46,-9.92,0.859127,-0.102237,-0.018097,0.501083,0.0,0.0,0.0,0,0
2026-06-16 16:16:43.906,2617022,R_Ankle,-0.1147,-0.1374,0.9986,0.09,-3.16,-1.15,-16.91,-21.19,-22.39,0.971526,-0.01764,-0.011719,0.235939,0.0,0.0,0.0,0,0
2026-06-16 16:16:43.909,2617107,L_Shank,-0.0475,-0.2073,0.9484,1.98,-3.04,0.4,0.0,0.0,0.0,0.858913,-0.10126,-0.019379,0.501602,0.0,0.0,0.0,0,0
2026-06-16 16:16:43.910,2617042,R_Ankle,-0.1069,-0.1379,0.9852,0.15,-3.01,-1.08,-18.95,-20.57,-22.41,0.971587,-0.017884,-0.012879,0.235511,0.0,0.0,0.0,0,0
2026-06-16 16:16:43.912,2617127,L_Shank,-0.0465,-0.2044,0.959,1.98,-2.92,0.35,17.2,33.67,-11.63,0.858699,-0.100314,-0.0206,0.502091,0.0,0.0,0.0,0,0
2026-06-16 16:16:43.913,2617000,R_Shank,-0.0866,1.6384,0.9994,-0.12,-1.56,-8.16,-4.41,-26.31,-14.37,0.677602,0.039735,0.080416,-0.729881,0.0,0.0,0.0,0,0
2026-06-16 16:16:43.915,2617147,L_Shank,-0.0445,-0.1961,0.9695,1.99,-2.84,0.31,18.07,32.13,-10.84,0.858516,-0.09946,-0.02176,0.502518,0.0,0.0,0.0,0,0
2026-06-16 16:16:43.917,2617020,R_Shank,-0.0788,1.5088,0.9999,-0.1,-1.45,-8.03,-4.07,-26.65,-14.08,0.677694,0.039216,0.080142,-0.729881,0.0,0.0,0.0,0,0
2026-06-16 16:16:43.918,2617089,L_Ankle,0.1251,-0.2666,0.9717,5.53,-2.12,-10.67,15.55,36.44,-3.92,-0.746208,0.065615,0.100162,-0.654805,0.0,0.0,0.0,0,0
2026-06-16 16:16:43.920,2617040,R_Shank,-0.0758,2.5384,0.9922,-0.06,-1.22,-7.8,0.0,0.0,0.0,0.677877,0.038789,0.079897,-0.729759,0.0,0.0,0.0,0,0
2026-06-16 16:16:43.922,2617109,L_Ankle,0.1153,-0.268,0.9501,5.5,-1.9,-10.62,15.7,36.61,-4.76,-0.746025,0.063234,0.102573,-0.654897,0.0,0.0,0.0,0,0
2026-06-16 16:16:43.924,2617060,R_Shank,-0.0719,0.738,1.0056,-0.03,-1.12,-7.67,-4.56,-27.14,-14.53,0.678152,0.038484,0.079745,-0.729545,0.0,0.0,0.0,0,0
2026-06-16 16:16:43.926,2617129,L_Ankle,0.1197,-0.2509,0.9582,5.49,-1.8,-10.6,0.0,0.0,0.0,-0.745933,0.06061,0.105045,-0.654836,0.0,0.0,0.0,0,0
2026-06-16 16:16:43.928,2617028,R_Ankle,-0.0971,-0.137,0.9938,0.24,-2.79,-1.0,-18.61,-21.53,-22.09,0.971679,-0.018097,-0.013916,0.235145,0.0,0.0,0.0,0,0
2026-06-16 16:16:43.929,2617149,L_Ankle,0.1192,-0.2524,0.9626,5.47,-1.61,-10.59,15.54,36.44,-4.26,-0.747429,0.062685,0.099734,-0.653798,0.0,0.0,0.0,0,0
2026-06-16 16:16:43.930,2617048,R_Ankle,-0.0947,-0.1518,1.0048,0.32,-2.67,-0.92,0.0,0.0,0.0,0.97174,-0.018311,-0.014863,0.234809,0.0,0.0,0.0,0,0
2026-06-16 16:16:43.933,2617111,L_Shank,-0.0181,-0.1917,0.9638,1.94,-2.53,0.12,17.53,32.29,-9.75,0.858364,-0.098575,-0.022828,0.502915,0.0,0.0,0.0,0,0
2026-06-16 16:16:43.934,2617068,R_Ankle,-0.0976,-0.1508,0.9938,0.35,-2.58,-0.86,-17.92,-21.85,-20.85,0.971801,-0.018494,-0.015717,0.234504,0.0,0.0,0.0,0,0
2026-06-16 16:16:43.936,2617112,L_Shank,-0.0142,-0.1863,0.9748,1.93,-2.45,0.07,0.0,0.0,0.0,0.858242,-0.097751,-0.023865,0.50325,0.0,0.0,0.0,0,0
2026-06-16 16:16:43.937,2617088,R_Ankle,-0.0976,-0.1503,1.0034,0.45,-2.41,-0.8,-17.92,-19.93,-22.41,0.971831,-0.018647,-0.016449,0.23426,0.0,0.0,0.0,0,0
2026-06-16 16:16:43.939,2617132,L_Shank,-0.0157,-0.1897,0.9844,1.93,-2.25,-0.02,18.05,33.12,-8.68,0.85815,-0.096988,-0.024812,0.503494,0.0,0.0,0.0,0,0
2026-06-16 16:16:43.942,2617037,R_Hip,-0.192,-0.986,0.0019,0.23,-1.03,1.54,-16.5,3.34,-39.76,0.143529,0.035432,0.649648,-0.745689,0.0,0.0,0.0,0,0
2026-06-16 16:16:43.943,2617152,L_Shank,-0.005,-0.1951,0.9782,1.92,-2.16,-0.09,17.52,32.27,-8.5,0.858089,-0.096255,-0.025636,0.503677,0.0,0.0,0.0,0,0
2026-06-16 16:16:43.946,2617057,R_Hip,-0.1891,-0.9777,0.0028,0.25,-1.14,1.64,0.0,0.0,0.0,0.142857,0.035371,0.649861,-0.745628,0.0,0.0,0.0,0,0
2026-06-16 16:16:43.948,2617121,L_Hip,-0.1982,0.9019,0.3872,-4.15,4.49,2.87,15.57,2.22,-33.68,0.851588,0.467238,0.213324,0.104587,0.0,0.0,0.0,0,0
2026-06-16 16:16:43.950,2617077,R_Hip,-0.1836,-0.9908,0.0105,0.25,-1.38,1.87,-14.32,5.17,-40.45,0.142399,0.035249,0.650044,-0.745567,0.0,0.0,0.0,0,0
2026-06-16 16:16:43.951,2617122,L_Hip,-0.1918,0.9078,0.3887,-4.17,4.41,2.72,0.0,0.0,0.0,0.851375,0.467605,0.213111,0.104984,0.0,0.0,0.0,0,0
2026-06-16 16:16:43.953,2617097,R_Hip,-0.1782,-0.9908,0.0028,0.25,-1.51,1.97,-15.04,4.43,-38.73,0.142125,0.035096,0.650166,-0.745506,0.0,0.0,0.0,0,0
2026-06-16 16:16:43.955,2617142,L_Hip,-0.1914,0.9132,0.3911,-4.21,4.32,2.58,15.92,1.91,-34.85,0.851283,0.467879,0.212806,0.105197,0.0,0.0,0.0,0,0
2026-06-16 16:16:43.958,2617045,R_Shank,-0.0734,-2.6036,0.9922,0.03,-0.67,-7.16,-6.24,-27.11,-14.81,0.678549,0.038362,0.079623,-0.729179,0.0,0.0,0.0,0,0
2026-06-16 16:16:43.958,2617162,L_Hip,-0.1879,0.8946,0.3988,-4.3,4.03,2.16,17.31,3.23,-35.45,0.851253,0.468093,0.212531,0.105167,0.0,0.0,0.0,0,0
2026-06-16 16:16:43.961,2617065,R_Shank,-0.0611,0.0972,1.0176,0.06,-0.57,-7.05,-5.57,-27.12,-14.82,0.679067,0.038331,0.079623,-0.72869,0.0,0.0,0.0,0,0
2026-06-16 16:16:43.964,2617135,L_Ankle,0.1281,-0.2553,0.9616,5.43,-1.28,-10.52,15.37,35.91,-4.43,-0.747673,0.060152,0.10184,-0.653401,0.0,0.0,0.0,0,0
2026-06-16 16:16:43.966,2617085,R_Shank,-0.0616,-0.0324,1.0052,0.07,-0.32,-6.89,0.0,0.0,0.0,0.679708,0.038484,0.079653,-0.728111,0.0,0.0,0.0,0,0
2026-06-16 16:16:43.967,2617155,L_Ankle,0.1276,-0.2558,0.9582,5.42,-1.03,-10.49,15.19,36.8,-3.92,-0.747673,0.059145,0.103183,-0.653279,0.0,0.0,0.0,0,0
2026-06-16 16:16:43.970,2617105,R_Shank,-0.0832,-1.8328,1.0018,0.1,-0.19,-6.8,-5.76,-26.29,-14.05,0.68041,0.038728,0.079775,-0.727409,0.0,0.0,0.0,0,0
2026-06-16 16:16:43.972,2617175,L_Ankle,0.1217,-0.2627,0.9592,5.41,-0.89,-10.46,15.39,35.56,-3.75,-0.74749,0.058107,0.104312,-0.653432,0.0,0.0,0.0,0,0
2026-06-16 16:16:43.973,2617067,R_Shank,-0.096,-2.3508,1.0071,0.15,0.25,-6.61,-6.24,-27.11,-14.51,0.681173,0.039155,0.08002,-0.726646,0.0,0.0,0.0,0,0
2026-06-16 16:16:43.976,2617195,L_Ankle,0.132,-0.2661,0.952,5.38,-0.64,-10.38,0.0,0.0,0.0,-0.747703,0.057192,0.10535,-0.653096,0.0,0.0,0.0,0,0
2026-06-16 16:16:43.977,2617087,R_Shank,-0.0974,2.6612,0.9802,0.15,0.38,-6.61,-5.08,-26.63,-13.76,0.681997,0.039796,0.080386,-0.725791,0.0,0.0,0.0,0,0
2026-06-16 16:16:43.979,2617136,L_Shank,0.0013,-0.1863,0.9758,1.86,-1.8,-0.32,17.36,32.11,-9.59,0.858089,-0.095614,-0.026399,0.503769,0.0,0.0,0.0,0,0
2026-06-16 16:16:43.981,2617107,R_Shank,-0.1117,-2.228,0.9898,0.19,0.58,-6.66,0.0,0.0,0.0,0.682821,0.040559,0.080813,-0.724937,0.0,0.0,0.0,0,0
2026-06-16 16:16:43.983,2617137,L_Shank,0.0086,-0.1829,0.9729,1.84,-1.7,-0.38,0.0,0.0,0.0,0.858119,-0.095004,-0.02707,0.5038,0.0,0.0,0.0,0,0
2026-06-16 16:16:43.985,2617127,R_Shank,-0.1284,2.9136,0.996,0.21,0.68,-6.72,-6.42,-26.28,-14.95,0.683615,0.041505,0.081332,-0.724082,0.0,0.0,0.0,0,0
2026-06-16 16:16:43.986,2617157,L_Shank,0.0086,-0.1863,0.9791,1.82,-1.48,-0.5,18.23,32.29,-10.07,0.858211,-0.094485,-0.02768,0.503708,0.0,0.0,0.0,0,0
2026-06-16 16:16:43.989,2617072,R_Ankle,-0.0942,-0.1558,1.0134,0.63,-2.08,-0.52,-18.95,-20.89,-22.1,0.971862,-0.018799,-0.01706,0.234077,0.0,0.0,0.0,0,0
2026-06-16 16:16:43.990,2617177,L_Shank,0.0106,-0.1814,0.9767,1.8,-1.36,-0.57,16.66,32.8,-9.9,0.858364,-0.094058,-0.028169,0.503555,0.0,0.0,0.0,0,0
2026-06-16 16:16:43.994,2617092,R_Ankle,-0.0809,-0.1508,1.001,0.69,-1.97,-0.46,0.0,0.0,0.0,0.971892,-0.018921,-0.017518,0.233985,0.0,0.0,0.0,0,0
2026-06-16 16:16:43.995,2617144,L_Hip,-0.1889,0.9039,0.3959,-4.35,3.74,1.79,15.11,3.67,-34.99,0.851253,0.468245,0.212226,0.104923,0.0,0.0,0.0,0,0
2026-06-16 16:16:43.997,2617112,R_Ankle,-0.0893,-0.1612,1.0101,0.72,-1.87,-0.39,-18.28,-22.16,-22.08,0.971862,-0.018983,-0.017853,0.233985,0.0,0.0,0.0,0,0
2026-06-16 16:16:43.998,2617164,L_Hip,-0.1874,0.9034,0.3993,-4.39,3.51,1.53,16.28,1.6,-36.3,0.851375,0.468307,0.211859,0.104495,0.0,0.0,0.0,0,0
2026-06-16 16:16:44.000,2617132,R_Ankle,-0.0907,-0.1454,1.0177,0.83,-1.65,-0.25,-19.31,-21.84,-22.71,0.971831,-0.019044,-0.018067,0.234077,0.0,0.0,0.0,0,0
2026-06-16 16:16:44.000,2617184,L_Hip,-0.2061,0.9147,0.3993,-4.42,3.41,1.41,0.0,0.0,0.0,0.851558,0.468276,0.211463,0.103824,0.0,0.0,0.0,0,0
2026-06-16 16:16:44.004,2617088,R_Hip,-0.1792,-0.9865,0.0033,0.25,-2.02,2.44,-16.32,4.62,-39.93,0.142064,0.034913,0.650288,-0.745415,0.0,0.0,0.0,0,0
2026-06-16 16:16:44.005,2617204,L_Hip,-0.2031,0.9093,0.4105,-4.45,3.28,1.3,17.16,3.39,-36.47,0.851802,0.468276,0.211005,0.102969,0.0,0.0,0.0,0,0
2026-06-16 16:16:44.007,2617108,R_Hip,-0.1644,-0.9938,-0.0048,0.23,-2.13,2.6,-15.22,4.25,-38.56,0.142277,0.034669,0.65038,-0.745323,0.0,0.0,0.0,0,0
2026-06-16 16:16:44.008,2617156,L_Ankle,0.1237,-0.2514,0.9654,5.32,-0.23,-10.22,15.89,36.43,-4.59,-0.747765,0.056215,0.106326,-0.652944,0.0,0.0,0.0,0,0
2026-06-16 16:16:44.010,2617176,L_Ankle,0.1227,-0.2534,0.9568,5.28,0.05,-10.14,15.56,35.38,-3.92,-0.747826,0.055391,0.107212,-0.652791,0.0,0.0,0.0,0,0
2026-06-16 16:16:44.011,2617128,R_Hip,-0.1688,-0.983,-0.0048,0.25,-2.25,2.75,-15.59,3.89,-39.59,0.142674,0.034425,0.650441,-0.745201,0.0,0.0,0.0,0,0
2026-06-16 16:16:44.013,2617148,R_Hip,-0.1708,-0.9889,0.0134,0.26,-2.51,2.99,-13.95,3.34,-39.76,0.143345,0.03415,0.650472,-0.745048,0.0,0.0,0.0,0,0
2026-06-16 16:16:44.014,2617196,L_Ankle,0.1261,-0.2549,0.9669,5.23,0.32,-10.09,15.37,37.33,-3.41,-0.747887,0.054628,0.108005,-0.652669,0.0,0.0,0.0,0,0
2026-06-16 16:16:44.017,2617112,R_Hip,-0.159,-0.9791,0.0096,0.31,-3.06,3.35,-14.49,4.61,-38.56,0.144261,0.033876,0.650441,-0.744926,0.0,0.0,0.0,0,0
2026-06-16 16:16:44.018,2617216,L_Ankle,0.1232,-0.2651,0.953,5.22,0.44,-10.06,15.54,36.79,-4.25,-0.747978,0.053926,0.108737,-0.652486,0.0,0.0,0.0,0,0
2026-06-16 16:16:44.020,2617132,R_Hip,-0.1624,-0.9889,-0.0067,0.3,-3.17,3.39,-16.32,5.34,-38.57,0.14536,0.033479,0.65038,-0.744774,0.0,0.0,0.0,0,0
2026-06-16 16:16:44.020,2617189,L_Hip,-0.2193,0.8985,0.4109,-4.51,2.91,0.83,15.95,2.56,-35.72,0.852077,0.468215,0.210517,0.101871,0.0,0.0,0.0,0,0
2026-06-16 16:16:44.022,2617152,R_Hip,-0.1609,-0.9952,0.0052,0.3,-3.32,3.41,-15.04,4.07,-39.08,0.146641,0.033021,0.650319,-0.744621,0.0,0.0,0.0,0,0
2026-06-16 16:16:44.023,2617209,L_Hip,-0.2232,0.9039,0.408,-4.54,2.83,0.72,0.0,0.0,0.0,0.852443,0.468062,0.209998,0.100589,0.0,0.0,0.0,0,0
2026-06-16 16:16:44.025,2617172,R_Hip,-0.1713,-0.9899,-0.0048,0.33,-3.58,3.38,-14.86,4.98,-39.25,0.148015,0.032411,0.650166,-0.744499,0.0,0.0,0.0,0,0
2026-06-16 16:16:44.026,2617229,L_Hip,-0.2227,0.8936,0.41,-4.58,2.74,0.64,17.27,2.9,-33.71,0.85287,0.467879,0.209449,0.099094,0.0,0.0,0.0,0,0
2026-06-16 16:16:44.028,2617117,R_Ankle,-0.0814,-0.1469,0.9919,1.54,-0.36,0.5,-18.27,-21.85,-21.16,0.971465,-0.018586,-0.01648,0.235847,0.0,0.0,0.0,0,0
2026-06-16 16:16:44.028,2617249,L_Hip,-0.2414,0.8774,0.4022,-4.61,2.57,0.45,16.8,3.38,-35.3,0.853328,0.467605,0.208899,0.097385,0.0,0.0,0.0,0,0
2026-06-16 16:16:44.031,2617137,R_Ankle,-0.0942,-0.1454,0.9962,1.64,-0.13,0.56,0.0,0.0,0.0,0.971313,-0.018372,-0.015625,0.236488,0.0,0.0,0.0,0,0
2026-06-16 16:16:44.032,2617211,L_Shank,0.0257,-0.1751,0.9767,1.74,-0.86,-0.85,18.76,32.46,-9.92,0.858516,-0.093692,-0.028565,0.503281,0.0,0.0,0.0,0,0
2026-06-16 16:16:44.034,2617157,R_Ankle,-0.0996,-0.1261,1.0096,1.7,-0.01,0.54,-18.61,-21.85,-21.78,0.97116,-0.018067,-0.014588,0.23719,0.0,0.0,0.0,0,0
2026-06-16 16:16:44.036,2617231,L_Shank,0.0208,-0.1809,0.9892,1.71,-0.63,-0.95,17.72,34.17,-10.87,0.85876,-0.093417,-0.02884,0.502915,0.0,0.0,0.0,0,0
2026-06-16 16:16:44.038,2617177,R_Ankle,-0.1089,-0.1355,0.9976,1.8,0.19,0.55,-17.76,-20.08,-22.56,0.971007,-0.017731,-0.013337,0.237892,0.0,0.0,0.0,0,0
2026-06-16 16:16:44.039,2617251,L_Shank,0.0311,-0.1878,0.969,1.7,-0.38,-1.09,0.0,0.0,0.0,0.859035,-0.093234,-0.028993,0.502457,0.0,0.0,0.0,0,0
2026-06-16 16:16:44.042,2617138,R_Hip,-0.19,-0.9747,0.01,0.39,-3.95,3.22,-15.95,4.61,-38.22,0.14951,0.031678,0.649983,-0.744377,0.0,0.0,0.0,0,0
2026-06-16 16:16:44.042,2617271,L_Shank,0.0282,-0.1873,0.9662,1.7,-0.23,-1.17,17.7,32.11,-9.28,0.859371,-0.093142,-0.029023,0.501907,0.0,0.0,0.0,0,0
2026-06-16 16:16:44.045,2617158,R_Hip,-0.2019,-0.964,0.0202,0.38,-4.01,3.17,-16.68,3.15,-38.91,0.151036,0.030854,0.64977,-0.744316,0.0,0.0,0.0,0,0
2026-06-16 16:16:44.045,2617224,L_Ankle,0.1241,-0.2651,0.9602,5.19,0.95,-10.0,15.37,36.27,-4.43,-0.748039,0.053346,0.109348,-0.652364,0.0,0.0,0.0,0,0
2026-06-16 16:16:44.048,2617178,R_Hip,-0.2004,-0.9616,0.0317,0.38,-4.09,3.12,-15.59,5.34,-38.22,0.152623,0.029939,0.649464,-0.744285,0.0,0.0,0.0,0,0
2026-06-16 16:16:44.049,2617244,L_Ankle,0.1227,-0.2661,0.965,5.19,1.09,-9.97,0.0,0.0,0.0,-0.748131,0.052889,0.109836,-0.652211,0.0,0.0,0.0,0,0
2026-06-16 16:16:44.051,2617198,R_Hip,-0.2152,-0.963,0.0433,0.39,-4.19,2.98,-17.96,4.07,-38.4,0.154241,0.028962,0.649129,-0.744285,0.0,0.0,0.0,0,0
2026-06-16 16:16:44.051,2617264,L_Ankle,0.1158,-0.2568,0.9635,5.2,1.21,-9.96,16.25,36.79,-3.56,-0.748222,0.052522,0.110233,-0.652089,0.0,0.0,0.0,0,0
2026-06-16 16:16:44.054,2617140,R_Ankle,-0.1079,-0.1295,0.9852,1.87,0.46,0.48,-19.45,-21.39,-21.02,0.970885,-0.017365,-0.011902,0.238563,0.0,0.0,0.0,0,0
2026-06-16 16:16:44.055,2617284,L_Ankle,0.1089,-0.2627,0.9539,5.22,1.44,-9.87,17.35,34.29,-2.87,-0.748314,0.052278,0.110508,-0.651967,0.0,0.0,0.0,0,0
2026-06-16 16:16:44.056,2617160,R_Ankle,-0.1231,-0.136,0.9904,1.88,0.64,0.48,0.0,0.0,0.0,0.970733,-0.016999,-0.010315,0.239235,0.0,0.0,0.0,0,0
2026-06-16 16:16:44.057,2617246,L_Ankle,0.1016,-0.2607,0.9765,5.28,1.73,-9.75,15.74,35.91,-3.4,-0.748375,0.052156,0.11066,-0.651845,0.0,0.0,0.0,0,0
2026-06-16 16:16:44.060,2617180,R_Ankle,-0.1196,-0.1221,1.001,1.91,0.71,0.48,-18.6,-20.26,-21.49,0.970611,-0.016663,-0.008606,0.239875,0.0,0.0,0.0,0,0
2026-06-16 16:16:44.061,2617266,L_Ankle,0.0893,-0.2729,0.9674,5.3,1.9,-9.66,15.05,34.86,-3.76,-0.748436,0.052187,0.110752,-0.651784,0.0,0.0,0.0,0,0
2026-06-16 16:16:44.064,2617200,R_Ankle,-0.128,-0.1132,0.9866,1.95,0.83,0.46,-17.59,-20.88,-22.4,0.970458,-0.016297,-0.006775,0.240516,0.0,0.0,0.0,0,0
2026-06-16 16:16:44.064,2617286,L_Ankle,0.082,-0.2739,0.9597,5.32,1.97,-9.63,14.33,35.93,-3.77,-0.748466,0.05237,0.11063,-0.651753,0.0,0.0,0.0,0,0
2026-06-16 16:16:44.067,2617247,L_Ankle,0.0791,-0.2666,0.9482,5.35,2.09,-9.58,16.95,36.78,-3.21,-0.748466,0.052705,0.110385,-0.651753,0.0,0.0,0.0,0,0
2026-06-16 16:16:44.067,2617158,R_Shank,-0.1544,1.7544,0.9816,0.22,1.04,-6.89,-6.59,-27.09,-13.6,0.684347,0.042634,0.081942,-0.723258,0.0,0.0,0.0,0,0
2026-06-16 16:16:44.069,2617178,R_Shank,-0.1671,1.7544,0.9994,0.22,1.1,-6.92,0.0,0.0,0.0,0.685018,0.043855,0.082644,-0.722434,0.0,0.0,0.0,0,0
2026-06-16 16:16:44.069,2617279,L_Hip,-0.2615,0.8675,0.4235,-4.67,2.31,0.23,16.64,3.54,-35.74,0.853877,0.467269,0.208289,0.095492,0.0,0.0,0.0,0,0
2026-06-16 16:16:44.071,2617299,L_Hip,-0.26,0.8641,0.4177,-4.67,2.27,0.2,0.0,0.0,0.0,0.854427,0.466903,0.207739,0.093478,0.0,0.0,0.0,0,0
2026-06-16 16:16:44.073,2617198,R_Shank,-0.1873,-0.046,0.972,0.22,1.18,-6.97,-6.24,-27.77,-13.91,0.685659,0.045228,0.083468,-0.721671,0.0,0.0,0.0,0,0
2026-06-16 16:16:44.075,2617319,L_Hip,-0.2654,0.8597,0.4284,-4.67,2.22,0.16,16.26,3.2,-33.69,0.855068,0.466475,0.207129,0.091311,0.0,0.0,0.0,0,0
2026-06-16 16:16:44.076,2617218,R_Shank,-0.1981,2.0136,0.9811,0.2,1.28,-7.08,-6.6,-26.44,-13.9,0.686209,0.046724,0.084414,-0.720939,0.0,0.0,0.0,0,0
2026-06-16 16:16:44.078,2617339,L_Hip,-0.2934,0.8504,0.4235,-4.68,2.16,0.06,15.47,3.68,-36.15,0.855708,0.465987,0.206519,0.089084,0.0,0.0,0.0,0,0
2026-06-16 16:16:44.080,2617162,R_Hip,-0.2438,-0.9537,0.0433,0.44,-4.34,2.81,-19.05,4.79,-37.38,0.155889,0.027924,0.648762,-0.744285,0.0,0.0,0.0,0,0
2026-06-16 16:16:44.082,2617286,L_Shank,0.0184,-0.1863,0.9561,1.64,0.14,-1.38,17.0,33.13,-9.29,0.859737,-0.093173,-0.028901,0.501267,0.0,0.0,0.0,0,0
2026-06-16 16:16:44.082,2617182,R_Hip,-0.2724,-0.9552,0.0466,0.44,-4.35,2.82,-16.68,3.88,-39.25,0.157537,0.026856,0.648366,-0.744346,0.0,0.0,0.0,0,0
2026-06-16 16:16:44.085,2617306,L_Shank,0.0101,-0.2108,0.9772,1.64,0.35,-1.48,19.11,32.46,-10.23,0.860195,-0.093295,-0.028657,0.500504,0.0,0.0,0.0,0,0
2026-06-16 16:16:44.085,2617202,R_Hip,-0.2739,-0.9469,0.0457,0.45,-4.38,2.8,-16.5,4.8,-39.08,0.159276,0.025849,0.647969,-0.744346,0.0,0.0,0.0,0,0
2026-06-16 16:16:44.087,2617326,L_Shank,0.0111,-0.199,0.9642,1.62,0.46,-1.51,0.0,0.0,0.0,0.860652,-0.093539,-0.02826,0.49968,0.0,0.0,0.0,0,0
2026-06-16 16:16:44.088,2617222,R_Hip,-0.2902,-0.9586,0.0466,0.48,-4.4,2.81,-17.77,4.98,-38.23,0.161046,0.024842,0.647511,-0.744407,0.0,0.0,0.0,0,0
2026-06-16 16:16:44.090,2617346,L_Shank,-0.0025,-0.2083,0.9724,1.61,0.6,-1.51,17.19,33.66,-10.7,0.861171,-0.093936,-0.027772,0.498764,0.0,0.0,0.0,0,0
2026-06-16 16:16:44.091,2617180,R_Shank,-0.2491,-0.6868,0.9595,0.2,1.38,-7.17,-5.08,-25.97,-14.66,0.686728,0.04825,0.085482,-0.720237,0.0,0.0,0.0,0,0
2026-06-16 16:16:44.093,2617301,L_Hip,-0.3316,0.8238,0.4434,-4.69,2.11,-0.03,15.79,3.36,-35.29,0.85638,0.465438,0.205908,0.086734,0.0,0.0,0.0,0,0
2026-06-16 16:16:44.093,2617200,R_Shank,-0.2501,2.5252,0.9778,0.2,1.38,-7.16,0.0,0.0,0.0,0.687185,0.049867,0.086612,-0.719535,0.0,0.0,0.0,0,0
2026-06-16 16:16:44.096,2617321,L_Hip,-0.3336,0.8204,0.4477,-4.69,2.11,-0.01,14.46,4.3,-35.27,0.857082,0.464858,0.20539,0.084292,0.0,0.0,0.0,0,0
2026-06-16 16:16:44.097,2617220,R_Shank,-0.2604,3.1664,0.9662,0.21,1.38,-7.19,-6.07,-27.28,-14.96,0.687643,0.051576,0.087802,-0.718833,0.0,0.0,0.0,0,0
2026-06-16 16:16:44.098,2617302,L_Hip,-0.337,0.8233,0.4444,-4.68,2.12,0.02,0.0,0.0,0.0,0.857784,0.464248,0.204871,0.081759,0.0,0.0,0.0,0,0
2026-06-16 16:16:44.100,2617240,R_Shank,-0.2874,-0.946,0.9677,0.2,1.35,-7.18,-4.89,-26.81,-15.12,0.68807,0.053316,0.088992,-0.718162,0.0,0.0,0.0,0,0
2026-06-16 16:16:44.102,2617322,L_Hip,-0.3449,0.8047,0.4497,-4.67,2.12,0.03,15.48,4.32,-35.87,0.858486,0.463576,0.204413,0.079226,0.0,0.0,0.0,0,0
2026-06-16 16:16:44.103,2617186,R_Ankle,-0.1544,-0.1142,0.9943,1.95,0.97,0.41,-19.13,-21.68,-22.56,0.970336,-0.015931,-0.004852,0.241127,0.0,0.0,0.0,0,0
2026-06-16 16:16:44.105,2617314,L_Ankle,0.056,-0.2456,0.9626,5.37,2.22,-9.46,16.09,35.55,-3.74,-0.748466,0.053194,0.11005,-0.651784,0.0,0.0,0.0,0,0
2026-06-16 16:16:44.106,2617206,R_Ankle,-0.1579,-0.1117,0.9895,1.95,1.03,0.41,0.0,0.0,0.0,0.970183,-0.015595,-0.002808,0.241737,0.0,0.0,0.0,0,0
2026-06-16 16:16:44.107,2617334,L_Ankle,0.0516,-0.2509,0.9554,5.41,2.28,-9.44,0.0,0.0,0.0,-0.748466,0.053835,0.109561,-0.651814,0.0,0.0,0.0,0,0
2026-06-16 16:16:44.108,2617226,R_Ankle,-0.1569,-0.1112,0.9986,1.93,1.04,0.39,-18.28,-21.52,-22.7,0.970061,-0.015259,-0.000732,0.242317,0.0,0.0,0.0,0,0
2026-06-16 16:16:44.110,2617354,L_Ankle,0.0408,-0.2578,0.9443,5.43,2.27,-9.46,16.45,36.25,-2.37,-0.748466,0.054598,0.108982,-0.651814,0.0,0.0,0.0,0,0
2026-06-16 16:16:44.111,2617246,R_Ankle,-0.1633,-0.0988,1.0029,1.94,1.06,0.33,-17.76,-21.04,-21.93,0.969909,-0.014924,0.001343,0.242897,0.0,0.0,0.0,0,0
2026-06-16 16:16:44.113,2617230,R_Ankle,-0.1745,-0.0963,0.9717,1.91,1.03,0.32,-17.07,-21.36,-21.62,0.969787,-0.014557,0.00351,0.243416,0.0,0.0,0.0,0,0
2026-06-16 16:16:44.113,2617374,L_Ankle,0.0349,-0.2705,0.9592,5.42,2.27,-9.45,15.76,35.56,-2.38,-0.748466,0.055483,0.10828,-0.651875,0.0,0.0,0.0,0,0
2026-06-16 16:16:44.115,2617250,R_Ankle,-0.1912,-0.1102,0.9818,1.87,0.96,0.32,0.0,0.0,0.0,0.969634,-0.014283,0.005646,0.243934,0.0,0.0,0.0,0,0
2026-06-16 16:16:44.116,2617324,L_Hip,-0.3851,0.8003,0.4661,-4.64,2.25,0.18,15.47,3.35,-36.15,0.859188,0.462874,0.203955,0.076724,0.0,0.0,0.0,0,0
2026-06-16 16:16:44.119,2617270,R_Ankle,-0.1931,-0.1057,0.9895,1.84,0.93,0.29,-19.47,-22.01,-21.94,0.969512,-0.013947,0.007752,0.244453,0.0,0.0,0.0,0,0
2026-06-16 16:16:44.119,2617344,L_Hip,-0.3851,0.7914,0.4618,-4.61,2.29,0.22,13.95,3.49,-36.28,0.85989,0.462172,0.203558,0.07419,0.0,0.0,0.0,0,0
2026-06-16 16:16:44.122,2617364,L_Hip,-0.3876,0.7782,0.469,-4.58,2.39,0.36,0.0,0.0,0.0,0.860561,0.46147,0.203223,0.071718,0.0,0.0,0.0,0,0
2026-06-16 16:16:44.122,2617290,R_Ankle,-0.2005,-0.0958,0.9876,1.82,0.82,0.33,-17.78,-21.67,-23.16,0.969359,-0.013672,0.009796,0.244972,0.0,0.0,0.0,0,0
2026-06-16 16:16:44.124,2617384,L_Hip,-0.3998,0.7811,0.4681,-4.56,2.44,0.45,14.62,4.46,-34.84,0.861202,0.460738,0.202918,0.069308,0.0,0.0,0.0,0,0
2026-06-16 16:16:44.125,2617238,R_Hip,-0.3119,-0.9445,0.0731,0.51,-4.45,2.96,-16.5,4.8,-38.74,0.162877,0.023865,0.647053,-0.744438,0.0,0.0,0.0,0,0
2026-06-16 16:16:44.126,2617346,L_Hip,-0.4199,0.7688,0.4792,-4.47,2.75,0.79,14.09,3.0,-34.97,0.861843,0.460036,0.202673,0.067019,0.0,0.0,0.0,0,0
2026-06-16 16:16:44.127,2617258,R_Hip,-0.338,-0.9479,0.0601,0.53,-4.45,3.0,-17.59,5.53,-38.74,0.16483,0.023011,0.646565,-0.744469,0.0,0.0,0.0,0,0
2026-06-16 16:16:44.129,2617366,L_Hip,-0.4327,0.7673,0.4884,-4.45,2.83,0.9,13.96,4.13,-35.99,0.862423,0.459304,0.20246,0.064791,0.0,0.0,0.0,0,0
2026-06-16 16:16:44.130,2617278,R_Hip,-0.342,-0.9425,0.0678,0.55,-4.44,3.03,-17.41,6.44,-39.26,0.166845,0.022248,0.646046,-0.744469,0.0,0.0,0.0,0,0
2026-06-16 16:16:44.132,2617347,L_Hip,-0.4317,0.7678,0.4913,-4.39,2.98,1.15,0.0,0.0,0.0,0.862972,0.458632,0.202338,0.062746,0.0,0.0,0.0,0,0
2026-06-16 16:16:44.133,2617298,R_Hip,-0.3681,-0.9381,0.076,0.58,-4.38,3.13,-17.41,6.08,-38.91,0.16892,0.021577,0.645466,-0.74453,0.0,0.0,0.0,0,0
2026-06-16 16:16:44.136,2617367,L_Hip,-0.444,0.756,0.4899,-4.37,3.07,1.26,13.78,3.97,-35.55,0.863491,0.457991,0.202246,0.060823,0.0,0.0,0.0,0,0
2026-06-16 16:16:44.137,2617247,R_Shank,-0.3198,2.266,0.9619,0.19,1.25,-7.07,-4.71,-27.97,-14.68,0.688528,0.055086,0.090243,-0.717429,0.0,0.0,0.0,0,0
2026-06-16 16:16:44.139,2617360,L_Ankle,0.0526,-0.248,0.9357,5.48,2.19,-9.5,17.15,34.47,-4.06,-0.748466,0.056459,0.107395,-0.651936,0.0,0.0,0.0,0,0
2026-06-16 16:16:44.140,2617267,R_Shank,-0.3286,3.1664,0.9566,0.2,1.18,-7.04,0.0,0.0,0.0,0.688986,0.056856,0.091525,-0.716697,0.0,0.0,0.0,0,0
2026-06-16 16:16:44.142,2617380,L_Ankle,0.033,-0.2641,0.9424,5.47,2.06,-9.28,0.0,0.0,0.0,-0.748436,0.057588,0.106418,-0.652028,0.0,0.0,0.0,0,0
2026-06-16 16:16:44.143,2617287,R_Shank,-0.3527,3.1664,0.9446,0.19,1.12,-7.03,-5.78,-25.95,-13.15,0.689474,0.058626,0.092776,-0.715903,0.0,0.0,0.0,0,0
2026-06-16 16:16:44.148,2617307,R_Shank,-0.362,-2.7464,0.9485,0.19,0.99,-6.98,-5.4,-27.29,-14.37,0.689993,0.060396,0.094028,-0.71511,0.0,0.0,0.0,0,0
2026-06-16 16:16:44.149,2617400,L_Ankle,0.033,-0.2456,0.9458,5.51,1.94,-9.16,16.29,35.37,-2.55,-0.748375,0.058809,0.105258,-0.652181,0.0,0.0,0.0,0,0
2026-06-16 16:16:44.152,2617262,R_Hip,-0.3863,-0.9298,0.0765,0.56,-4.16,3.29,-18.5,6.44,-37.55,0.171087,0.021058,0.644887,-0.74453,0.0,0.0,0.0,0,0
2026-06-16 16:16:44.152,2617420,L_Ankle,0.0163,-0.2632,0.9414,5.51,1.8,-8.88,17.12,36.59,-3.72,-0.748314,0.06006,0.104007,-0.652364,0.0,0.0,0.0,0,0
2026-06-16 16:16:44.156,2617282,R_Hip,-0.3942,-0.921,0.0923,0.55,-4.09,3.3,-19.05,5.9,-39.09,0.173254,0.020661,0.644337,-0.74453,0.0,0.0,0.0,0,0
2026-06-16 16:16:44.156,2617404,L_Ankle,0.0379,-0.2563,0.9525,5.36,2.28,-8.83,16.8,35.54,-3.39,-0.748192,0.061434,0.102664,-0.652577,0.0,0.0,0.0,0,0
2026-06-16 16:16:44.159,2617424,L_Ankle,0.0472,-0.2519,0.9381,5.31,2.94,-9.16,0.0,0.0,0.0,-0.74807,0.062807,0.10123,-0.652791,0.0,0.0,0.0,0,0
2026-06-16 16:16:44.159,2617302,R_Hip,-0.4031,-0.922,0.0731,0.54,-4.03,3.29,-19.05,4.8,-39.09,0.175359,0.020386,0.643788,-0.74453,0.0,0.0,0.0,0,0
2026-06-16 16:16:44.162,2617322,R_Hip,-0.4159,-0.9215,0.0914,0.54,-3.82,3.27,0.0,0.0,0.0,0.177435,0.020203,0.643269,-0.744469,0.0,0.0,0.0,0,0
2026-06-16 16:16:44.162,2617444,L_Ankle,0.0457,-0.249,0.9563,5.25,3.35,-9.45,15.58,35.38,-2.9,-0.747917,0.064302,0.099704,-0.653096,0.0,0.0,0.0,0,0
2026-06-16 16:16:44.165,2617288,R_Hip,-0.4357,-0.9103,0.0972,0.49,-3.45,3.16,-18.87,4.25,-37.89,0.179388,0.020142,0.642781,-0.744438,0.0,0.0,0.0,0,0
2026-06-16 16:16:44.165,2617464,L_Ankle,0.0536,-0.2568,0.9438,5.09,4.37,-9.87,16.47,34.48,-2.72,-0.747734,0.065706,0.098086,-0.653371,0.0,0.0,0.0,0,0
2026-06-16 16:16:44.167,2617308,R_Hip,-0.4431,-0.9108,0.1005,0.45,-3.15,3.0,-19.41,5.89,-37.38,0.181219,0.020203,0.642293,-0.744407,0.0,0.0,0.0,0,0
2026-06-16 16:16:44.168,2617414,L_Hip,-0.4528,0.7521,0.4957,-4.3,3.51,1.79,13.82,5.26,-36.13,0.863948,0.457381,0.202185,0.059114,0.0,0.0,0.0,0,0
2026-06-16 16:16:44.170,2617328,R_Hip,-0.447,-0.9118,0.1097,0.44,-3.0,2.87,-18.32,4.43,-38.06,0.182806,0.020386,0.641896,-0.744377,0.0,0.0,0.0,0,0
2026-06-16 16:16:44.171,2617434,L_Hip,-0.4464,0.7492,0.4937,-4.29,3.64,1.95,13.96,5.1,-35.12,0.864345,0.456801,0.202185,0.057588,0.0,0.0,0.0,0,0
2026-06-16 16:16:44.172,2617348,R_Hip,-0.4549,-0.9083,0.1159,0.41,-2.69,2.63,0.0,0.0,0.0,0.184149,0.0206,0.64153,-0.744346,0.0,0.0,0.0,0,0
2026-06-16 16:16:44.174,2617454,L_Hip,-0.4533,0.7477,0.4942,-4.22,3.87,2.24,0.0,0.0,0.0,0.864711,0.456252,0.202277,0.056276,0.0,0.0,0.0,0,0
2026-06-16 16:16:44.175,2617297,R_Ankle,-0.2176,-0.0904,0.9698,1.74,0.59,0.3,-17.43,-21.35,-22.85,0.969207,-0.013428,0.01178,0.245491,0.0,0.0,0.0,0,0
2026-06-16 16:16:44.177,2617474,L_Hip,-0.4557,0.758,0.501,-4.2,4.0,2.39,14.13,3.97,-36.14,0.864986,0.455763,0.202399,0.055208,0.0,0.0,0.0,0,0
2026-06-16 16:16:44.178,2617317,R_Ankle,-0.2225,-0.0874,0.9698,1.64,0.39,0.31,0.0,0.0,0.0,0.969054,-0.013123,0.013703,0.24601,0.0,0.0,0.0,0,0
2026-06-16 16:16:44.180,2617337,R_Ankle,-0.225,-0.0745,0.9751,1.63,0.31,0.29,-17.42,-21.36,-22.24,0.968902,-0.012879,0.015473,0.246529,0.0,0.0,0.0,0,0
2026-06-16 16:16:44.182,2617357,R_Ankle,-0.2338,-0.0765,0.9636,1.54,0.08,0.25,-17.76,-20.72,-22.86,0.968749,-0.012604,0.017151,0.247047,0.0,0.0,0.0,0,0
2026-06-16 16:16:44.186,2617315,R_Shank,-0.3988,2.9072,0.9504,0.16,0.64,-7.03,-5.22,-27.46,-15.12,0.690542,0.062136,0.095248,-0.714286,0.0,0.0,0.0,0,0
2026-06-16 16:16:44.188,2617335,R_Shank,-0.4145,1.748,0.9432,0.16,0.5,-7.05,0.0,0.0,0.0,0.691061,0.063814,0.096408,-0.713462,0.0,0.0,0.0,0,0
2026-06-16 16:16:44.190,2617449,L_Ankle,-1.001,-0.2245,1.7757,5.4,-1.61,-4.9,18.23,35.52,-1.66,-0.747581,0.067171,0.096469,-0.653645,0.0,0.0,0.0,0,0
2026-06-16 16:16:44.191,2617355,R_Shank,-0.4126,2.648,0.9403,0.16,0.4,-7.11,-5.56,-27.45,-14.52,0.69158,0.065432,0.097537,-0.712668,0.0,0.0,0.0,0,0
2026-06-16 16:16:44.194,2617469,L_Ankle,-0.0953,-0.3184,0.8373,5.29,0.25,-8.06,0.0,0.0,0.0,-0.747398,0.068636,0.094821,-0.65392,0.0,0.0,0.0,0,0
2026-06-16 16:16:44.194,2617375,R_Shank,-0.4278,-0.564,0.9312,0.15,0.12,-7.27,-5.6,-26.12,-13.9,0.692038,0.066958,0.098544,-0.711905,0.0,0.0,0.0,0,0
2026-06-16 16:16:44.196,2617489,L_Ankle,0.0663,-0.2446,0.9251,5.45,-0.17,-8.3,17.37,34.65,-1.51,-0.747276,0.070009,0.093173,-0.654195,0.0,0.0,0.0,0,0
2026-06-16 16:16:44.198,2617509,L_Ankle,-0.0865,-0.2524,0.9385,5.36,0.29,-10.64,17.36,33.94,-2.53,-0.747032,0.071352,0.091586,-0.65453,0.0,0.0,0.0,0,0
2026-06-16 16:16:44.200,2617460,L_Hip,-0.4459,0.7585,0.4758,-4.11,4.53,2.97,13.61,3.8,-35.69,0.86523,0.455336,0.202582,0.054384,0.0,0.0,0.0,0,0
2026-06-16 16:16:44.201,2617480,L_Hip,-0.4459,0.761,0.4899,-4.09,4.68,3.11,13.8,5.26,-35.26,0.865383,0.45497,0.202826,0.053835,0.0,0.0,0.0,0,0
2026-06-16 16:16:44.204,2617500,L_Hip,-0.4508,0.7678,0.4962,-4.08,4.98,3.38,13.97,4.46,-36.28,0.865474,0.454695,0.203162,0.053529,0.0,0.0,0.0,0,0
2026-06-16 16:16:44.205,2617520,L_Hip,-0.444,0.7698,0.4686,-4.09,5.15,3.51,0.0,0.0,0.0,0.865505,0.454512,0.203558,0.053499,0.0,0.0,0.0,0,0
2026-06-16 16:16:44.222,2617481,L_Hip,-0.4258,0.7698,0.4884,-4.06,5.64,4.01,15.65,4.17,-36.3,0.865444,0.45436,0.204047,0.053743,0.0,0.0,0.0,0,0
2026-06-16 16:16:44.225,2617501,L_Hip,-0.4248,0.7786,0.4874,-4.06,5.76,4.12,13.14,4.28,-36.99,0.865322,0.454268,0.204627,0.054201,0.0,0.0,0.0,0,0
2026-06-16 16:16:44.227,2617482,L_Hip,-0.415,0.7782,0.4719,-4.05,5.89,4.24,15.15,4.64,-35.86,0.8652,0.454176,0.205206,0.054933,0.0,0.0,0.0,0,0
2026-06-16 16:16:44.228,2617502,L_Hip,-0.417,0.7786,0.4773,-4.0,6.1,4.48,0.0,0.0,0.0,0.864986,0.454146,0.205817,0.05591,0.0,0.0,0.0,0,0
2026-06-16 16:16:44.235,2617363,R_Hip,-0.4667,-0.9132,0.1077,0.37,-2.21,2.27,-19.23,6.44,-36.52,0.185278,0.020905,0.641194,-0.744377,0.0,0.0,0.0,0,0
2026-06-16 16:16:44.238,2617383,R_Hip,-0.4667,-0.9127,0.1159,0.34,-1.9,2.07,-19.96,6.07,-37.55,0.186102,0.021271,0.640919,-0.744377,0.0,0.0,0.0,0,0
2026-06-16 16:16:44.241,2617403,R_Hip,-0.4731,-0.902,0.1193,0.32,-1.75,1.97,-18.87,6.44,-37.55,0.186712,0.021699,0.640706,-0.744377,0.0,0.0,0.0,0,0
2026-06-16 16:16:44.243,2617423,R_Hip,-0.4662,-0.9025,0.1333,0.29,-1.48,1.77,0.0,0.0,0.0,0.187109,0.022187,0.640553,-0.744407,0.0,0.0,0.0,0,0
2026-06-16 16:16:44.255,2617382,R_Shank,-0.4489,-0.182,0.9278,0.11,-0.42,-7.71,-7.11,-26.26,-14.04,0.692465,0.068392,0.09949,-0.711264,0.0,0.0,0.0,0,0
2026-06-16 16:16:44.258,2617402,R_Shank,-0.4543,0.4592,0.9264,0.09,-0.56,-7.84,-4.88,-27.47,-15.43,0.69277,0.069674,0.100314,-0.710685,0.0,0.0,0.0,0,0
2026-06-16 16:16:44.259,2617517,L_Ankle,-0.0885,-0.2402,0.9419,5.44,-0.2,-10.62,15.94,35.38,-2.21,-0.746666,0.072604,0.090121,-0.655019,0.0,0.0,0.0,0,0
2026-06-16 16:16:44.262,2617537,L_Ankle,-0.063,-0.2534,0.9395,5.43,-0.71,-10.12,0.0,0.0,0.0,-0.746147,0.073946,0.088626,-0.65566,0.0,0.0,0.0,0,0
2026-06-16 16:16:44.262,2617422,R_Shank,-0.4543,-1.2116,0.9326,0.03,-0.87,-8.1,-6.24,-27.11,-14.81,0.692984,0.070803,0.101047,-0.710288,0.0,0.0,0.0,0,0
2026-06-16 16:16:44.265,2617557,L_Ankle,-0.0752,-0.247,0.9472,5.43,-0.93,-10.03,17.01,35.72,-1.17,-0.745659,0.07532,0.087069,-0.65624,0.0,0.0,0.0,0,0
2026-06-16 16:16:44.265,2617442,R_Shank,-0.4597,1.1,0.935,0.03,-1.02,-8.22,-5.24,-26.79,-14.21,0.693106,0.07181,0.101657,-0.709983,0.0,0.0,0.0,0,0
2026-06-16 16:16:44.268,2617577,L_Ankle,-0.0664,-0.2549,0.9462,5.38,-1.22,-10.24,17.01,35.72,-1.17,-0.745354,0.076968,0.085299,-0.656667,0.0,0.0,0.0,0,0
2026-06-16 16:16:44.277,2617537,L_Shank,-0.0279,-0.1985,0.9671,1.6,1.07,-1.42,17.88,31.94,-9.13,0.86166,-0.094455,-0.0271,0.497818,0.0,0.0,0.0,0,0
2026-06-16 16:16:44.279,2617557,L_Shank,-0.0318,-0.2078,0.9772,1.6,1.15,-1.36,17.01,31.78,-9.89,0.862178,-0.095065,-0.026276,0.496872,0.0,0.0,0.0,0,0
2026-06-16 16:16:44.280,2617577,L_Shank,-0.0489,-0.2098,0.9676,1.58,1.35,-1.26,0.0,0.0,0.0,0.862636,-0.095767,-0.025269,0.495987,0.0,0.0,0.0,0,0
2026-06-16 16:16:44.282,2617597,L_Shank,-0.0695,-0.2044,0.9642,1.56,1.43,-1.2,16.83,31.94,-9.12,0.863063,-0.096591,-0.02411,0.495132,0.0,0.0,0.0,0,0
2026-06-16 16:16:44.285,2617539,L_Ankle,-0.0586,-0.2583,0.9582,5.35,-1.62,-10.58,16.84,34.83,-1.69,-0.745262,0.079012,0.083163,-0.656789,0.0,0.0,0.0,0,0
2026-06-16 16:16:44.288,2617559,L_Ankle,-0.0488,-0.2539,0.9693,5.38,-1.94,-10.58,17.89,35.17,-1.33,-0.745445,0.081606,0.08063,-0.656606,0.0,0.0,0.0,0,0
2026-06-16 16:16:44.290,2617579,L_Ankle,-0.0473,-0.2617,0.9496,5.38,-2.06,-10.6,0.0,0.0,0.0,-0.744041,0.081179,0.082308,-0.65801,0.0,0.0,0.0,0,0
2026-06-16 16:16:44.292,2617599,L_Ankle,-0.0331,-0.248,0.9578,5.37,-2.3,-10.68,16.46,36.26,-1.69,-0.742271,0.084506,0.07712,-0.660207,0.0,0.0,0.0,0,0
2026-06-16 16:16:44.293,2617549,L_Hip,-0.3929,0.787,0.4681,-3.91,6.36,4.87,14.81,4.31,-36.15,0.864711,0.454207,0.206519,0.0571,0.0,0.0,0.0,0,0
2026-06-16 16:16:44.295,2617569,L_Hip,-0.3866,0.789,0.4608,-3.89,6.41,4.96,15.67,5.13,-36.31,0.864437,0.454268,0.207221,0.058443,0.0,0.0,0.0,0,0
2026-06-16 16:16:44.297,2617589,L_Hip,-0.3841,0.7924,0.4603,-3.87,6.45,5.04,15.32,3.84,-37.17,0.864071,0.454421,0.207892,0.059969,0.0,0.0,0.0,0,0
2026-06-16 16:16:44.299,2617609,L_Hip,-0.365,0.8052,0.4715,-3.83,6.51,5.19,14.31,4.46,-36.58,0.863674,0.454665,0.208563,0.061678,0.0,0.0,0.0,0,0
2026-06-16 16:16:44.312,2617572,L_Hip,-0.3483,0.8017,0.4729,-3.79,6.61,5.39,14.8,4.95,-34.99,0.863216,0.455,0.209204,0.063478,0.0,0.0,0.0,0,0
2026-06-16 16:16:44.314,2617592,L_Hip,-0.3498,0.8135,0.4589,-3.77,6.62,5.42,15.15,4.64,-36.15,0.862758,0.455336,0.209754,0.065401,0.0,0.0,0.0,0,0
2026-06-16 16:16:44.317,2617612,L_Hip,-0.3395,0.8066,0.4705,-3.74,6.64,5.49,16.15,4.01,-35.88,0.86227,0.455733,0.210303,0.067415,0.0,0.0,0.0,0,0
2026-06-16 16:16:44.319,2617632,L_Hip,-0.3464,0.816,0.4729,-3.74,6.64,5.51,16.13,3.37,-35.58,0.861751,0.45613,0.210822,0.069491,0.0,0.0,0.0,0,0
2026-06-16 16:16:44.322,2617450,R_Shank,-0.4474,-1.6004,0.9269,-0.06,-1.57,-8.67,-5.41,-27.28,-13.76,0.693106,0.072604,0.102145,-0.70983,0.0,0.0,0.0,0,0
2026-06-16 16:16:44.324,2617470,R_Shank,-0.4499,0.3296,0.9427,-0.09,-1.71,-8.75,-6.24,-27.44,-14.21,0.693014,0.073214,0.102542,-0.709769,0.0,0.0,0.0,0,0
2026-06-16 16:16:44.326,2617585,L_Ankle,-0.0247,-0.2505,0.952,5.35,-2.58,-10.85,15.43,35.21,-2.05,-0.741722,0.084994,0.076724,-0.660817,0.0,0.0,0.0,0,0
