python_time,esp32_hw_time,sensor_name,ax,ay,az,gx,gy,gz,mx,my,mz,q0,q1,q2,q3,quat_roll,quat_pitch,quat_yaw,is_paused_flag,t_pose_flag
2026-06-16 16:01:14.725,1687882,R_Hip,0.0431,0.0089,0.99,0.26,-1.58,1.77,0.0,0.0,0.0,0.946409,-0.003082,-0.041719,-0.32017,0.0,0.0,0.0,0,0
2026-06-16 16:01:14.727,1687902,R_Hip,0.0461,0.0176,0.9861,0.28,-1.58,1.78,-18.5,27.62,-32.13,0.946409,-0.003082,-0.041688,-0.32017,0.0,0.0,0.0,0,0
2026-06-16 16:01:14.728,1687867,R_Ankle,0.0155,-0.0067,0.9943,0.76,-1.72,-0.49,-8.55,31.21,-30.45,0.092563,0.085574,0.030396,0.991546,0.0,0.0,0.0,0,0
2026-06-16 16:01:14.730,1687887,R_Ankle,0.013,-0.0151,0.989,0.76,-1.72,-0.48,-7.87,30.9,-30.44,0.092563,0.085574,0.030366,0.991546,0.0,0.0,0.0,0,0
2026-06-16 16:01:14.732,1687907,R_Ankle,0.0086,-0.0106,1.0144,0.77,-1.73,-0.49,0.0,0.0,0.0,0.092563,0.085574,0.030396,0.991546,0.0,0.0,0.0,0,0
2026-06-16 16:01:14.734,1687927,R_Ankle,0.0096,-0.0166,1.0144,0.77,-1.74,-0.5,-8.37,31.05,-29.98,0.092563,0.085574,0.030396,0.991546,0.0,0.0,0.0,0,0
2026-06-16 16:01:14.735,1688011,L_Shank,0.013,-0.0376,0.9801,1.77,-1.25,-0.18,-11.09,15.72,-27.15,0.997742,-0.016694,-0.031587,0.056368,0.0,0.0,0.0,0,0
2026-06-16 16:01:14.738,1688031,L_Shank,0.0174,-0.0283,0.9815,1.78,-1.24,-0.18,0.0,0.0,0.0,0.997742,-0.016694,-0.031587,0.056368,0.0,0.0,0.0,0,0
2026-06-16 16:01:14.742,1688051,L_Shank,0.0164,-0.043,0.9806,1.77,-1.25,-0.18,-12.13,15.39,-27.76,0.997742,-0.016694,-0.031587,0.056368,0.0,0.0,0.0,0,0
2026-06-16 16:01:14.745,1687886,R_Shank,0.0419,-0.8432,1.0181,-0.08,-1.46,-8.43,-11.68,25.34,-23.55,0.901486,0.036103,-0.017945,0.430891,0.0,0.0,0.0,0,0
2026-06-16 16:01:14.745,1688012,L_Shank,0.0086,-0.0327,0.9878,1.78,-1.26,-0.19,-10.21,14.2,-27.61,0.997742,-0.016694,-0.031617,0.056368,0.0,0.0,0.0,0,0
2026-06-16 16:01:14.747,1687906,R_Shank,0.0424,2.2392,0.9922,-0.08,-1.47,-8.43,0.0,0.0,0.0,0.901486,0.036134,-0.017975,0.430891,0.0,0.0,0.0,0,0
2026-06-16 16:01:14.751,1687926,R_Shank,0.0384,-2.7732,0.9917,-0.07,-1.47,-8.41,-12.03,25.36,-22.64,0.901456,0.036134,-0.017975,0.430921,0.0,0.0,0.0,0,0
2026-06-16 16:01:14.754,1688029,L_Hip,0.1117,-0.0725,0.9846,-4.16,4.49,2.97,0.36,30.46,-29.33,0.993194,-0.02356,-0.07178,0.088443,0.0,0.0,0.0,0,0
2026-06-16 16:01:14.754,1687946,R_Shank,0.0375,-1.4844,1.021,-0.08,-1.46,-8.43,-11.2,26.17,-23.1,0.901456,0.036134,-0.017975,0.430921,0.0,0.0,0.0,0,0
2026-06-16 16:01:14.756,1688049,L_Hip,0.1161,-0.073,0.9754,-4.16,4.51,2.97,0.0,0.0,0.0,0.993194,-0.02356,-0.071749,0.088443,0.0,0.0,0.0,0,0
2026-06-16 16:01:14.758,1688069,L_Hip,0.1082,-0.0828,0.9798,-4.16,4.51,2.98,0.53,31.59,-28.32,0.993194,-0.02356,-0.07178,0.088443,0.0,0.0,0.0,0,0
2026-06-16 16:01:14.760,1688089,L_Hip,0.1146,-0.072,0.9793,-4.16,4.51,2.98,-0.16,30.29,-28.31,0.993194,-0.02356,-0.07181,0.088443,0.0,0.0,0.0,0,0
2026-06-16 16:01:14.765,1688041,L_Ankle,0.1138,0.0144,0.9837,5.39,-0.83,-10.29,-17.11,9.37,-45.23,0.931974,0.043519,-0.059877,0.354839,0.0,0.0,0.0,0,0
2026-06-16 16:01:14.765,1687907,R_Shank,0.0409,-1.6136,1.022,-0.08,-1.49,-8.43,-11.52,25.51,-23.7,0.901456,0.036134,-0.018006,0.430921,0.0,0.0,0.0,0,0
2026-06-16 16:01:14.768,1687927,R_Shank,0.033,0.8276,1.0104,-0.09,-1.47,-8.43,0.0,0.0,0.0,0.901456,0.036103,-0.018006,0.430921,0.0,0.0,0.0,0,0
2026-06-16 16:01:14.769,1688061,L_Ankle,0.1178,0.008,0.9904,5.4,-0.85,-10.29,-16.74,9.36,-43.87,0.931974,0.043519,-0.059877,0.354839,0.0,0.0,0.0,0,0
2026-06-16 16:01:14.771,1688081,L_Ankle,0.1178,0.0192,0.9846,5.38,-0.83,-10.3,-16.24,10.24,-44.36,0.931974,0.043519,-0.059908,0.354839,0.0,0.0,0.0,0,0
2026-06-16 16:01:14.771,1687947,R_Shank,0.0434,-2.514,1.0052,-0.1,-1.45,-8.42,-11.7,25.35,-22.64,0.901456,0.036073,-0.018006,0.430921,0.0,0.0,0.0,0,0
2026-06-16 16:01:14.773,1688101,L_Ankle,0.1212,0.0129,0.9846,5.39,-0.83,-10.29,0.0,0.0,0.0,0.931974,0.043519,-0.059908,0.354839,0.0,0.0,0.0,0,0
2026-06-16 16:01:14.774,1687967,R_Shank,0.0394,-2.3844,1.0037,-0.09,-1.48,-8.43,-12.37,25.36,-22.64,0.901456,0.036103,-0.018036,0.430921,0.0,0.0,0.0,0,0
2026-06-16 16:01:14.776,1687912,R_Hip,0.0466,0.0098,0.9972,0.28,-1.57,1.77,-19.23,26.16,-33.16,0.946409,-0.003082,-0.041719,-0.32017,0.0,0.0,0.0,0,0
2026-06-16 16:01:14.777,1687932,R_Hip,0.0451,0.003,0.9905,0.28,-1.58,1.78,-17.78,29.08,-31.79,0.946409,-0.003082,-0.041719,-0.32017,0.0,0.0,0.0,0,0
2026-06-16 16:01:14.779,1687952,R_Hip,0.0441,0.0045,0.9986,0.28,-1.58,1.77,-17.96,26.34,-31.62,0.946409,-0.003052,-0.041719,-0.32017,0.0,0.0,0.0,0,0
2026-06-16 16:01:14.781,1687972,R_Hip,0.0387,0.0089,0.9948,0.25,-1.58,1.77,0.0,0.0,0.0,0.946409,-0.003082,-0.041719,-0.32017,0.0,0.0,0.0,0,0
2026-06-16 16:01:14.786,1688061,L_Shank,0.0199,-0.0425,0.9873,1.77,-1.25,-0.19,-11.61,16.57,-27.32,0.997742,-0.016694,-0.031587,0.056368,0.0,0.0,0.0,0,0
2026-06-16 16:01:14.788,1688081,L_Shank,0.0101,-0.0381,0.9854,1.78,-1.25,-0.18,-11.26,14.54,-27.29,0.997742,-0.016694,-0.031617,0.056368,0.0,0.0,0.0,0,0
2026-06-16 16:01:14.791,1688101,L_Shank,0.0057,-0.0371,0.9786,1.77,-1.24,-0.18,0.0,0.0,0.0,0.997742,-0.016694,-0.031617,0.056368,0.0,0.0,0.0,0,0
2026-06-16 16:01:14.793,1688121,L_Shank,0.0091,-0.0385,0.9767,1.77,-1.25,-0.17,-10.74,15.04,-26.84,0.997742,-0.016694,-0.031648,0.056337,0.0,0.0,0.0,0,0
2026-06-16 16:01:14.798,1687937,R_Hip,0.0515,0.003,0.9871,0.27,-1.58,1.77,-17.96,27.07,-31.96,0.946409,-0.003082,-0.041688,-0.32017,0.0,0.0,0.0,0,0
2026-06-16 16:01:14.800,1688064,L_Ankle,0.1138,0.0144,0.9707,5.4,-0.85,-10.29,-16.38,7.58,-44.89,0.931974,0.043489,-0.059908,0.354839,0.0,0.0,0.0,0,0
2026-06-16 16:01:14.802,1687957,R_Hip,0.0466,0.0049,0.9861,0.27,-1.56,1.77,-20.15,26.35,-32.99,0.946409,-0.003052,-0.041658,-0.32017,0.0,0.0,0.0,0,0
2026-06-16 16:01:14.804,1688084,L_Ankle,0.1202,0.0153,0.9918,5.39,-0.85,-10.29,-15.72,10.41,-44.52,0.931974,0.043489,-0.059877,0.354839,0.0,0.0,0.0,0,0
2026-06-16 16:01:14.805,1687977,R_Hip,0.0456,0.0089,0.9909,0.26,-1.56,1.77,0.0,0.0,0.0,0.946409,-0.003082,-0.041658,-0.32017,0.0,0.0,0.0,0,0
2026-06-16 16:01:14.807,1688104,L_Ankle,0.1222,0.0158,0.9808,5.39,-0.85,-10.31,-16.06,9.35,-44.87,0.931974,0.043489,-0.059877,0.354839,0.0,0.0,0.0,0,0
2026-06-16 16:01:14.809,1687997,R_Hip,0.0456,0.0098,0.9861,0.25,-1.57,1.78,-17.96,28.17,-31.62,0.946409,-0.003082,-0.041658,-0.32017,0.0,0.0,0.0,0,0
2026-06-16 16:01:14.812,1688124,L_Ankle,0.1138,0.0163,0.9822,5.4,-0.84,-10.29,-15.16,8.45,-44.69,0.931974,0.043489,-0.059877,0.354839,0.0,0.0,0.0,0,0
2026-06-16 16:01:14.815,1688074,L_Hip,0.1274,-0.072,0.9774,-4.16,4.5,2.96,1.86,29.69,-29.21,0.993194,-0.02356,-0.07178,0.088443,0.0,0.0,0.0,0,0
2026-06-16 16:01:14.816,1687957,R_Ankle,0.0179,-0.0146,0.989,0.76,-1.74,-0.5,-7.86,30.9,-29.82,0.092563,0.085543,0.030366,0.991546,0.0,0.0,0.0,0,0
2026-06-16 16:01:14.817,1688094,L_Hip,0.1146,-0.0793,0.9745,-4.16,4.5,2.97,0.0,0.0,0.0,0.993194,-0.023591,-0.07178,0.088473,0.0,0.0,0.0,0,0
2026-06-16 16:01:14.819,1687977,R_Ankle,0.0106,-0.0166,1.0019,0.76,-1.73,-0.48,-9.56,31.51,-29.54,0.092563,0.085574,0.030366,0.991546,0.0,0.0,0.0,0,0
2026-06-16 16:01:14.820,1688114,L_Hip,0.118,-0.0789,0.988,-4.16,4.51,2.96,0.85,29.99,-28.9,0.993194,-0.023591,-0.071749,0.088473,0.0,0.0,0.0,0,0
2026-06-16 16:01:14.823,1687997,R_Ankle,0.015,-0.0141,1.0091,0.77,-1.74,-0.48,-9.37,31.34,-28.15,0.092593,0.085574,0.030366,0.991546,0.0,0.0,0.0,0,0
2026-06-16 16:01:14.823,1688134,L_Hip,0.12,-0.0793,0.9837,-4.16,4.51,2.96,0.21,31.27,-29.48,0.993194,-0.02356,-0.07178,0.088443,0.0,0.0,0.0,0,0
2026-06-16 16:01:14.825,1688017,R_Ankle,0.0111,-0.0116,0.999,0.76,-1.72,-0.49,0.0,0.0,0.0,0.092563,0.085574,0.030366,0.991546,0.0,0.0,0.0,0,0
2026-06-16 16:01:14.825,1688086,L_Shank,0.0248,-0.0405,1.0031,1.77,-1.25,-0.18,-10.04,15.38,-27.16,0.997742,-0.016694,-0.031648,0.056368,0.0,0.0,0.0,0,0
2026-06-16 16:01:14.827,1688106,L_Shank,0.012,-0.0312,0.9825,1.77,-1.23,-0.18,-10.74,14.36,-27.14,0.997742,-0.016694,-0.031678,0.056368,0.0,0.0,0.0,0,0
2026-06-16 16:01:14.829,1688087,L_Shank,0.014,-0.0474,0.9762,1.77,-1.27,-0.18,0.0,0.0,0.0,0.997742,-0.016724,-0.031678,0.056368,0.0,0.0,0.0,0,0
2026-06-16 16:01:14.831,1688107,L_Shank,0.016,-0.0449,0.9897,1.77,-1.23,-0.18,-11.45,14.69,-25.89,0.997742,-0.016694,-0.031678,0.056368,0.0,0.0,0.0,0,0
2026-06-16 16:01:14.833,1688109,L_Ankle,0.1163,0.0168,0.9976,5.4,-0.85,-10.29,-15.55,10.58,-45.03,0.931974,0.043489,-0.059877,0.354839,0.0,0.0,0.0,0,0
2026-06-16 16:01:14.835,1688129,L_Ankle,0.1153,0.0124,0.9794,5.39,-0.85,-10.3,0.0,0.0,0.0,0.931974,0.043458,-0.059847,0.354839,0.0,0.0,0.0,0,0
2026-06-16 16:01:14.838,1688149,L_Ankle,0.1217,0.0163,0.9909,5.39,-0.85,-10.3,-17.27,9.19,-44.39,0.931974,0.043458,-0.059877,0.354839,0.0,0.0,0.0,0,0
2026-06-16 16:01:14.838,1687980,R_Ankle,0.0165,-0.0156,1.0091,0.76,-1.73,-0.49,-8.54,31.2,-29.53,0.092563,0.085574,0.030366,0.991546,0.0,0.0,0.0,0,0
2026-06-16 16:01:14.840,1688169,L_Ankle,0.1143,0.0178,0.9875,5.39,-0.84,-10.29,-15.5,8.81,-43.68,0.931974,0.043458,-0.059877,0.354839,0.0,0.0,0.0,0,0
2026-06-16 16:01:14.841,1688000,R_Ankle,0.013,-0.0057,1.0019,0.76,-1.73,-0.49,-8.21,31.22,-30.76,0.092563,0.085574,0.030366,0.991546,0.0,0.0,0.0,0,0
2026-06-16 16:01:14.842,1688118,L_Hip,0.1171,-0.0764,0.9919,-4.16,4.51,2.96,1.19,30.0,-29.2,0.993194,-0.023591,-0.07178,0.088443,0.0,0.0,0.0,0,0
2026-06-16 16:01:14.843,1688020,R_Ankle,0.0037,-0.0111,1.0019,0.77,-1.74,-0.48,0.0,0.0,0.0,0.092593,0.085604,0.030366,0.991546,0.0,0.0,0.0,0,0
2026-06-16 16:01:14.844,1688138,L_Hip,0.1254,-0.0656,0.9914,-4.16,4.5,2.97,0.0,0.0,0.0,0.993194,-0.023591,-0.07178,0.088443,0.0,0.0,0.0,0,0
2026-06-16 16:01:14.845,1688040,R_Ankle,0.013,-0.0176,1.0062,0.77,-1.72,-0.49,-9.22,31.84,-30.16,0.092563,0.085574,0.030366,0.991546,0.0,0.0,0.0,0,0
2026-06-16 16:01:14.846,1688158,L_Hip,0.1166,-0.0715,0.9682,-4.16,4.5,2.96,0.7,31.11,-28.76,0.993194,-0.023591,-0.07178,0.088443,0.0,0.0,0.0,0,0
2026-06-16 16:01:14.848,1688178,L_Hip,0.1166,-0.0769,0.9793,-4.15,4.51,2.97,1.68,30.16,-28.19,0.993194,-0.023591,-0.07178,0.088443,0.0,0.0,0.0,0,0
2026-06-16 16:01:14.855,1687998,R_Shank,0.0316,-2.7732,0.9879,-0.09,-1.45,-8.43,-10.51,26.15,-24.01,0.901456,0.036103,-0.018036,0.430921,0.0,0.0,0.0,0,0
2026-06-16 16:01:14.855,1688131,L_Ankle,0.1148,0.0061,0.9794,5.4,-0.85,-10.29,-15.89,9.52,-45.04,0.931974,0.043458,-0.059877,0.354839,0.0,0.0,0.0,0,0
2026-06-16 16:01:14.857,1688132,L_Ankle,0.1212,0.0124,0.9894,5.39,-0.85,-10.28,0.0,0.0,0.0,0.931974,0.043458,-0.059877,0.354839,0.0,0.0,0.0,0,0
2026-06-16 16:01:14.858,1688018,R_Shank,0.0335,1.5984,0.9994,-0.08,-1.45,-8.43,0.0,0.0,0.0,0.901456,0.036073,-0.018006,0.430921,0.0,0.0,0.0,0,0
2026-06-16 16:01:14.860,1688152,L_Ankle,0.1158,0.0222,0.9899,5.39,-0.84,-10.29,-14.77,7.39,-43.33,0.931974,0.043458,-0.059847,0.354839,0.0,0.0,0.0,0,0
2026-06-16 16:01:14.861,1688038,R_Shank,0.038,2.628,1.0028,-0.09,-1.48,-8.44,-11.71,26.02,-22.34,0.901486,0.036073,-0.018006,0.430891,0.0,0.0,0.0,0,0
2026-06-16 16:01:14.862,1688172,L_Ankle,0.1217,0.0183,0.9837,5.39,-0.83,-10.3,-16.57,9.18,-44.71,0.931974,0.043458,-0.059877,0.354808,0.0,0.0,0.0,0,0
2026-06-16 16:01:14.863,1688058,R_Shank,0.0335,-0.8432,0.997,-0.09,-1.48,-8.45,-11.55,26.51,-22.79,0.901486,0.036073,-0.018006,0.430891,0.0,0.0,0.0,0,0
2026-06-16 16:01:14.864,1688136,L_Shank,0.0072,-0.0385,0.969,1.76,-1.25,-0.18,-10.21,15.22,-27.62,0.997742,-0.016694,-0.031648,0.056368,0.0,0.0,0.0,0,0
2026-06-16 16:01:14.866,1688156,L_Shank,0.0169,-0.0366,0.9743,1.77,-1.25,-0.16,-10.91,16.24,-27.63,0.997742,-0.016663,-0.031648,0.056368,0.0,0.0,0.0,0,0
2026-06-16 16:01:14.868,1688176,L_Shank,0.0204,-0.0381,0.9777,1.77,-1.26,-0.18,0.0,0.0,0.0,0.997742,-0.016663,-0.031617,0.056337,0.0,0.0,0.0,0,0
2026-06-16 16:01:14.869,1688196,L_Shank,0.0116,-0.0415,0.982,1.77,-1.24,-0.18,-9.88,14.52,-26.37,0.997742,-0.016663,-0.031617,0.056337,0.0,0.0,0.0,0,0
2026-06-16 16:01:14.871,1688012,R_Hip,0.051,0.0069,0.9938,0.26,-1.57,1.77,-18.32,27.07,-32.3,0.946409,-0.003082,-0.041658,-0.32017,0.0,0.0,0.0,0,0
2026-06-16 16:01:14.872,1688141,L_Hip,0.1254,-0.0744,0.987,-4.16,4.5,2.97,1.37,30.16,-29.35,0.993194,-0.023591,-0.07181,0.088443,0.0,0.0,0.0,0,0
2026-06-16 16:01:14.873,1688032,R_Hip,0.0427,0.0152,0.9948,0.29,-1.58,1.78,-17.78,27.62,-32.82,0.946409,-0.003082,-0.041688,-0.32017,0.0,0.0,0.0,0,0
2026-06-16 16:01:14.874,1688161,L_Hip,0.1166,-0.0749,0.9914,-4.16,4.51,2.99,0.0,0.0,0.0,0.993194,-0.023591,-0.07181,0.088443,0.0,0.0,0.0,0,0
2026-06-16 16:01:14.875,1688052,R_Hip,0.0515,0.0108,0.9823,0.27,-1.57,1.78,0.0,0.0,0.0,0.946409,-0.003052,-0.041688,-0.32017,0.0,0.0,0.0,0,0
2026-06-16 16:01:14.877,1688181,L_Hip,0.1068,-0.0789,0.9827,-4.16,4.51,2.97,1.03,30.16,-29.63,0.993194,-0.023591,-0.07181,0.088443,0.0,0.0,0.0,0,0
2026-06-16 16:01:14.878,1688072,R_Hip,0.0451,0.0103,0.9842,0.28,-1.58,1.78,-18.32,27.44,-31.96,0.946409,-0.003052,-0.041688,-0.32017,0.0,0.0,0.0,0,0
2026-06-16 16:01:14.879,1688142,L_Hip,0.1112,-0.072,0.9798,-4.14,4.51,2.97,0.39,32.08,-29.34,0.993194,-0.023591,-0.07181,0.088443,0.0,0.0,0.0,0,0
2026-06-16 16:01:14.882,1688025,R_Ankle,0.015,0.0036,0.9995,0.76,-1.73,-0.49,-8.37,31.69,-30.61,0.092563,0.085574,0.030366,0.991546,0.0,0.0,0.0,0,0
2026-06-16 16:01:14.884,1688045,R_Ankle,0.0145,-0.0101,1.0029,0.76,-1.73,-0.49,-8.7,31.35,-28.76,0.092563,0.085574,0.030366,0.991546,0.0,0.0,0.0,0,0
2026-06-16 16:01:14.886,1688161,L_Shank,0.0057,-0.0439,0.994,1.77,-1.25,-0.17,-11.26,14.2,-27.6,0.997742,-0.016633,-0.031617,0.056337,0.0,0.0,0.0,0,0
2026-06-16 16:01:14.887,1688065,R_Ankle,0.0086,-0.0081,0.9919,0.75,-1.73,-0.5,-9.05,31.36,-29.69,0.092563,0.085574,0.030396,0.991546,0.0,0.0,0.0,0,0
2026-06-16 16:01:14.888,1688181,L_Shank,0.0125,-0.04,0.9815,1.78,-1.24,-0.18,-11.43,16.07,-28.09,0.997742,-0.016633,-0.031587,0.056368,0.0,0.0,0.0,0,0
2026-06-16 16:01:14.890,1688085,R_Ankle,0.0121,-0.0116,0.999,0.76,-1.73,-0.5,0.0,0.0,0.0,0.092563,0.085574,0.030396,0.991546,0.0,0.0,0.0,0,0
2026-06-16 16:01:14.890,1688201,L_Shank,0.0101,-0.0371,0.9902,1.77,-1.26,-0.17,0.0,0.0,0.0,0.997742,-0.016633,-0.031617,0.056368,0.0,0.0,0.0,0,0
2026-06-16 16:01:14.892,1688221,L_Shank,0.0101,-0.0518,0.9863,1.77,-1.25,-0.18,-10.91,15.22,-27.62,0.997742,-0.016602,-0.031617,0.056337,0.0,0.0,0.0,0,0
2026-06-16 16:01:14.895,1688037,R_Hip,0.0412,0.0035,0.9881,0.26,-1.57,1.79,-19.42,27.44,-32.31,0.946409,-0.003052,-0.041688,-0.32017,0.0,0.0,0.0,0,0
2026-06-16 16:01:14.896,1688057,R_Hip,0.0427,0.0064,0.9885,0.27,-1.58,1.78,-19.05,27.08,-33.67,0.946409,-0.003082,-0.041688,-0.32017,0.0,0.0,0.0,0,0
2026-06-16 16:01:14.898,1688077,R_Hip,0.0353,0.0035,0.9856,0.28,-1.58,1.78,0.0,0.0,0.0,0.946409,-0.003113,-0.041688,-0.32017,0.0,0.0,0.0,0,0
2026-06-16 16:01:14.901,1688097,R_Hip,0.0471,0.0015,0.9871,0.27,-1.56,1.78,-17.59,27.44,-31.96,0.946409,-0.003082,-0.041658,-0.32017,0.0,0.0,0.0,0,0
2026-06-16 16:01:14.901,1688176,L_Ankle,0.1158,0.0149,0.9798,5.41,-0.85,-10.3,-15.71,9.34,-44.87,0.931974,0.043428,-0.059877,0.354839,0.0,0.0,0.0,0,0
2026-06-16 16:01:14.903,1688196,L_Ankle,0.1217,0.0139,0.9976,5.39,-0.85,-10.29,0.0,0.0,0.0,0.931974,0.043428,-0.059877,0.354839,0.0,0.0,0.0,0,0
2026-06-16 16:01:14.904,1688042,R_Shank,0.0424,-0.0724,1.01,-0.08,-1.45,-8.43,-11.51,25.18,-23.7,0.901486,0.036042,-0.018006,0.430891,0.0,0.0,0.0,0,0
2026-06-16 16:01:14.906,1688177,L_Ankle,0.1246,0.0114,0.9846,5.4,-0.85,-10.29,-16.55,8.83,-43.69,0.931974,0.043428,-0.059877,0.354839,0.0,0.0,0.0,0,0
2026-06-16 16:01:14.906,1688062,R_Shank,0.0434,2.628,0.9951,-0.08,-1.47,-8.43,0.0,0.0,0.0,0.901486,0.036042,-0.018006,0.430891,0.0,0.0,0.0,0,0
2026-06-16 16:01:14.908,1688197,L_Ankle,0.1222,0.0149,0.9818,5.39,-0.83,-10.29,-15.52,8.1,-45.38,0.931974,0.043428,-0.059877,0.354839,0.0,0.0,0.0,0,0
2026-06-16 16:01:14.908,1688082,R_Shank,0.035,-1.7432,1.0076,-0.09,-1.46,-8.44,-12.39,26.36,-22.33,0.901486,0.036012,-0.018006,0.430891,0.0,0.0,0.0,0,0
2026-06-16 16:01:14.910,1688102,R_Shank,0.0453,-2.514,1.009,-0.08,-1.46,-8.42,-12.03,25.68,-23.24,0.901486,0.036012,-0.018006,0.430891,0.0,0.0,0.0,0,0
2026-06-16 16:01:14.912,1688047,R_Ankle,0.0233,-0.0072,1.0024,0.76,-1.73,-0.48,-8.55,30.9,-30.45,0.092593,0.085574,0.030427,0.991546,0.0,0.0,0.0,0,0
2026-06-16 16:01:14.914,1688067,R_Ankle,0.0121,-0.0116,1.0,0.76,-1.74,-0.48,-8.18,32.16,-29.23,0.092593,0.085574,0.030427,0.991546,0.0,0.0,0.0,0,0
2026-06-16 16:01:14.916,1688087,R_Ankle,0.0194,-0.0146,0.9981,0.75,-1.74,-0.48,0.0,0.0,0.0,0.092563,0.085604,0.030427,0.991546,0.0,0.0,0.0,0,0
2026-06-16 16:01:14.918,1688107,R_Ankle,0.0042,0.0027,1.0134,0.75,-1.73,-0.49,-9.23,30.89,-30.45,0.092563,0.085604,0.030427,0.991546,0.0,0.0,0.0,0,0
2026-06-16 16:01:14.920,1688062,R_Hip,0.0466,0.001,0.9876,0.29,-1.56,1.78,-18.87,27.26,-32.13,0.946409,-0.003082,-0.041658,-0.320139,0.0,0.0,0.0,0,0
2026-06-16 16:01:14.921,1688082,R_Hip,0.0348,0.0108,0.9958,0.27,-1.57,1.79,-19.42,28.17,-32.31,0.946409,-0.003082,-0.041658,-0.320139,0.0,0.0,0.0,0,0
2026-06-16 16:01:14.923,1688102,R_Hip,0.056,0.0089,0.9924,0.27,-1.56,1.77,0.0,0.0,0.0,0.94644,-0.003113,-0.041627,-0.320139,0.0,0.0,0.0,0,0
2026-06-16 16:01:14.925,1688122,R_Hip,0.052,0.0015,0.9972,0.26,-1.58,1.78,-17.59,26.71,-33.33,0.94644,-0.003082,-0.041627,-0.320139,0.0,0.0,0.0,0,0
2026-06-16 16:01:14.927,1688065,R_Shank,0.038,-0.8432,1.0138,-0.09,-1.45,-8.43,-10.67,25.0,-22.96,0.901486,0.036012,-0.018006,0.430891,0.0,0.0,0.0,0,0
2026-06-16 16:01:14.928,1688085,R_Shank,0.0473,0.8276,0.9984,-0.08,-1.46,-8.42,-11.86,25.51,-23.4,0.901486,0.036012,-0.018006,0.430891,0.0,0.0,0.0,0,0
2026-06-16 16:01:14.930,1688105,R_Shank,0.0389,0.0572,1.01,-0.09,-1.46,-8.41,-12.21,26.19,-23.08,0.901486,0.036012,-0.018006,0.430891,0.0,0.0,0.0,0,0
2026-06-16 16:01:14.933,1688125,R_Shank,0.0365,3.01,1.009,-0.08,-1.47,-8.42,0.0,0.0,0.0,0.901486,0.036042,-0.018036,0.430891,0.0,0.0,0.0,0,0
2026-06-16 16:01:14.933,1688209,L_Hip,0.12,-0.0857,0.9977,-4.15,4.5,2.96,0.51,30.3,-28.61,0.993194,-0.023591,-0.071841,0.088443,0.0,0.0,0.0,0,0
2026-06-16 16:01:14.935,1688070,R_Ankle,0.0091,-0.0111,1.0144,0.76,-1.73,-0.49,-8.87,31.19,-28.91,0.092563,0.085604,0.030457,0.991546,0.0,0.0,0.0,0,0
2026-06-16 16:01:14.935,1688229,L_Hip,0.122,-0.0666,0.987,-4.16,4.51,2.96,0.0,0.0,0.0,0.993194,-0.023591,-0.07181,0.088443,0.0,0.0,0.0,0,0
2026-06-16 16:01:14.937,1688090,R_Ankle,0.014,-0.0126,1.0034,0.77,-1.71,-0.5,-8.02,30.72,-28.44,0.092593,0.085604,0.030488,0.991546,0.0,0.0,0.0,0,0
2026-06-16 16:01:14.938,1688249,L_Hip,0.1097,-0.0739,0.9914,-4.16,4.51,2.98,0.7,31.43,-28.18,0.993194,-0.02356,-0.07181,0.088443,0.0,0.0,0.0,0,0
2026-06-16 16:01:14.940,1688110,R_Ankle,0.0189,-0.0076,1.0014,0.76,-1.72,-0.48,-8.21,30.9,-30.14,0.092593,0.085574,0.030488,0.991546,0.0,0.0,0.0,0,0
2026-06-16 16:01:14.940,1688269,L_Hip,0.1254,-0.0725,0.9904,-4.15,4.5,2.97,1.52,29.04,-29.78,0.993194,-0.023591,-0.071841,0.088443,0.0,0.0,0.0,0,0
2026-06-16 16:01:14.942,1688130,R_Ankle,0.016,-0.0121,1.024,0.77,-1.73,-0.48,0.0,0.0,0.0,0.092593,0.085604,0.030488,0.991546,0.0,0.0,0.0,0,0
2026-06-16 16:01:14.943,1688211,L_Shank,0.0208,-0.0513,0.9854,1.77,-1.25,-0.17,-11.43,15.39,-27.77,0.997742,-0.016633,-0.031617,0.056368,0.0,0.0,0.0,0,0
2026-06-16 16:01:14.945,1688231,L_Shank,0.014,-0.0312,0.981,1.78,-1.25,-0.19,-10.93,12.82,-26.03,0.997742,-0.016633,-0.031617,0.056368,0.0,0.0,0.0,0,0
2026-06-16 16:01:14.946,1688251,L_Shank,0.015,-0.0376,0.9767,1.78,-1.26,-0.19,0.0,0.0,0.0,0.997742,-0.016663,-0.031617,0.056337,0.0,0.0,0.0,0,0
2026-06-16 16:01:14.948,1688271,L_Shank,0.0194,-0.0459,0.9738,1.79,-1.25,-0.17,-11.78,14.37,-27.75,0.997742,-0.016663,-0.031617,0.056337,0.0,0.0,0.0,0,0
2026-06-16 16:01:14.955,1688231,L_Hip,0.1249,-0.0813,0.9846,-4.16,4.51,2.98,0.69,31.11,-28.18,0.993194,-0.02356,-0.071841,0.088443,0.0,0.0,0.0,0,0
2026-06-16 16:01:14.957,1688251,L_Hip,0.1244,-0.0715,0.9827,-4.16,4.52,2.97,0.86,30.63,-28.62,0.993194,-0.02353,-0.07181,0.088443,0.0,0.0,0.0,0,0
2026-06-16 16:01:14.958,1688271,L_Hip,0.1151,-0.0784,0.9914,-4.16,4.51,2.96,0.0,0.0,0.0,0.993194,-0.02353,-0.071841,0.088443,0.0,0.0,0.0,0,0
2026-06-16 16:01:14.960,1688291,L_Hip,0.119,-0.0808,0.9933,-4.15,4.5,2.99,0.7,31.43,-28.18,0.993194,-0.02353,-0.071841,0.088443,0.0,0.0,0.0,0,0
2026-06-16 16:01:14.968,1688244,L_Ankle,0.1104,0.0129,0.9856,5.4,-0.85,-10.29,-17.08,9.37,-43.53,0.931974,0.043428,-0.059877,0.354839,0.0,0.0,0.0,0,0
2026-06-16 16:01:14.969,1688111,R_Shank,0.0488,3.01,1.0119,-0.09,-1.47,-8.42,-11.57,27.5,-22.78,0.901486,0.036042,-0.018006,0.430891,0.0,0.0,0.0,0,0
2026-06-16 16:01:14.971,1688264,L_Ankle,0.1192,0.0144,1.0038,5.41,-0.86,-10.3,0.0,0.0,0.0,0.931974,0.043397,-0.059908,0.354839,0.0,0.0,0.0,0,0
2026-06-16 16:01:14.972,1688131,R_Shank,0.0291,-2.7732,1.0023,-0.08,-1.47,-8.43,-9.53,26.15,-21.61,0.901486,0.036042,-0.018006,0.430891,0.0,0.0,0.0,0,0
2026-06-16 16:01:14.973,1688284,L_Ankle,0.1197,0.0158,0.977,5.4,-0.86,-10.29,-17.82,10.8,-44.56,0.931974,0.043397,-0.059908,0.354839,0.0,0.0,0.0,0,0
2026-06-16 16:01:14.974,1688151,R_Shank,0.036,-2.514,1.0128,-0.08,-1.47,-8.43,0.0,0.0,0.0,0.901486,0.036073,-0.018006,0.430891,0.0,0.0,0.0,0,0
2026-06-16 16:01:14.975,1688304,L_Ankle,0.1148,0.0134,0.9794,5.4,-0.83,-10.29,-16.42,10.06,-44.88,0.931974,0.043397,-0.059908,0.354839,0.0,0.0,0.0,0,0
2026-06-16 16:01:14.976,1688171,R_Shank,0.0424,2.3688,1.0032,-0.09,-1.46,-8.45,-12.03,25.36,-22.94,0.901486,0.036042,-0.017975,0.430891,0.0,0.0,0.0,0,0
2026-06-16 16:01:14.978,1688112,R_Hip,0.052,0.0108,0.9986,0.27,-1.58,1.79,-19.05,27.8,-31.62,0.94644,-0.003113,-0.041627,-0.320139,0.0,0.0,0.0,0,0
2026-06-16 16:01:14.980,1688132,R_Hip,0.0471,0.003,0.9943,0.26,-1.56,1.77,-19.05,26.34,-31.96,0.94644,-0.003143,-0.041627,-0.320139,0.0,0.0,0.0,0,0
2026-06-16 16:01:14.981,1688152,R_Hip,0.0427,0.0049,0.9866,0.26,-1.57,1.78,0.0,0.0,0.0,0.94644,-0.003113,-0.041627,-0.320139,0.0,0.0,0.0,0,0
2026-06-16 16:01:14.983,1688172,R_Hip,0.0348,0.0171,0.9953,0.26,-1.57,1.78,-17.59,27.81,-32.99,0.94644,-0.003113,-0.041627,-0.320139,0.0,0.0,0.0,0,0
2026-06-16 16:01:14.984,1688261,L_Shank,0.0228,-0.0341,0.9825,1.77,-1.25,-0.18,-10.73,14.72,-28.08,0.997742,-0.016633,-0.031617,0.056368,0.0,0.0,0.0,0,0
2026-06-16 16:01:14.986,1688281,L_Shank,0.0111,-0.043,0.9906,1.77,-1.25,-0.19,-11.43,15.05,-27.76,0.997742,-0.016633,-0.031617,0.056368,0.0,0.0,0.0,0,0
2026-06-16 16:01:14.988,1688301,L_Shank,0.0052,-0.0498,0.9887,1.76,-1.25,-0.18,-11.09,15.04,-27.14,0.997742,-0.016602,-0.031617,0.056368,0.0,0.0,0.0,0,0
2026-06-16 16:01:14.990,1688321,L_Shank,0.0116,-0.0439,0.9815,1.77,-1.25,-0.18,0.0,0.0,0.0,0.997742,-0.016602,-0.031587,0.056337,0.0,0.0,0.0,0,0
2026-06-16 16:01:14.991,1688266,L_Ankle,0.1212,0.0134,0.977,5.41,-0.84,-10.3,-15.37,10.05,-44.86,0.931974,0.043397,-0.059938,0.354839,0.0,0.0,0.0,0,0
2026-06-16 16:01:14.994,1688286,L_Ankle,0.1134,0.0124,0.9981,5.4,-0.85,-10.29,0.0,0.0,0.0,0.931974,0.043397,-0.059938,0.354839,0.0,0.0,0.0,0,0
2026-06-16 16:01:14.996,1688306,L_Ankle,0.1168,0.01,0.9918,5.41,-0.85,-10.29,-16.22,9.53,-44.03,0.931974,0.043397,-0.059938,0.354839,0.0,0.0,0.0,0,0
2026-06-16 16:01:14.997,1688326,L_Ankle,0.1178,0.0217,0.9822,5.38,-0.86,-10.3,-15.89,9.88,-45.04,0.931974,0.043397,-0.059938,0.354839,0.0,0.0,0.0,0,0
2026-06-16 16:01:15.000,1688276,L_Hip,0.1185,-0.0749,0.9793,-4.16,4.52,2.98,1.54,31.29,-28.34,0.993194,-0.02353,-0.071841,0.088443,0.0,0.0,0.0,0,0
2026-06-16 16:01:15.002,1688296,L_Hip,0.119,-0.0744,0.9827,-4.16,4.51,2.98,1.7,31.13,-28.19,0.993194,-0.023499,-0.071841,0.088443,0.0,0.0,0.0,0,0
2026-06-16 16:01:15.003,1688316,L_Hip,0.1112,-0.0774,0.974,-4.15,4.51,2.96,0.0,0.0,0.0,0.993194,-0.023499,-0.071841,0.088443,0.0,0.0,0.0,0,0
2026-06-16 16:01:15.005,1688336,L_Hip,0.121,-0.0774,0.9914,-4.17,4.53,2.96,0.87,29.99,-30.36,0.993194,-0.023499,-0.071871,0.088443,0.0,0.0,0.0,0,0
2026-06-16 16:01:15.010,1688286,L_Shank,0.0189,-0.0444,0.9791,1.78,-1.24,-0.16,-10.4,14.36,-26.83,0.997742,-0.016602,-0.031587,0.056368,0.0,0.0,0.0,0,0
2026-06-16 16:01:15.012,1688306,L_Shank,0.0111,-0.0395,0.9868,1.78,-1.25,-0.18,-9.87,15.21,-27.0,0.997742,-0.016633,-0.031587,0.056368,0.0,0.0,0.0,0,0
2026-06-16 16:01:15.013,1688326,L_Shank,0.0238,-0.0376,0.9921,1.78,-1.24,-0.19,0.0,0.0,0.0,0.997742,-0.016633,-0.031587,0.056368,0.0,0.0,0.0,0,0
2026-06-16 16:01:15.015,1688346,L_Shank,0.0062,-0.0385,0.9892,1.77,-1.25,-0.18,-12.31,14.54,-27.59,0.997742,-0.016633,-0.031587,0.056337,0.0,0.0,0.0,0,0
2026-06-16 16:01:15.017,1688289,L_Ankle,0.1104,0.0124,0.9904,5.41,-0.86,-10.29,-14.66,9.68,-44.51,0.931974,0.043397,-0.059938,0.354839,0.0,0.0,0.0,0,0
2026-06-16 16:01:15.019,1688161,R_Ankle,0.0214,-0.0116,1.0101,0.75,-1.7,-0.49,-8.19,31.85,-29.84,0.092563,0.085604,0.030488,0.991546,0.0,0.0,0.0,0,0
2026-06-16 16:01:15.019,1688309,L_Ankle,0.1173,0.0202,0.9904,5.4,-0.85,-10.29,-15.5,8.46,-44.02,0.931974,0.043397,-0.059938,0.354839,0.0,0.0,0.0,0,0
2026-06-16 16:01:15.021,1688329,L_Ankle,0.1207,0.0197,0.9798,5.4,-0.86,-10.32,0.0,0.0,0.0,0.931974,0.043397,-0.059938,0.354839,0.0,0.0,0.0,0,0
2026-06-16 16:01:15.022,1688181,R_Ankle,0.0165,-0.0161,1.0048,0.76,-1.73,-0.49,-7.52,31.86,-30.45,0.092563,0.085604,0.030488,0.991546,0.0,0.0,0.0,0,0
2026-06-16 16:01:15.024,1688349,L_Ankle,0.1192,0.0119,0.9904,5.41,-0.84,-10.28,-16.05,9.35,-44.53,0.931974,0.043397,-0.059969,0.354839,0.0,0.0,0.0,0,0
2026-06-16 16:01:15.024,1688201,R_Ankle,0.0179,-0.0166,1.0144,0.77,-1.73,-0.48,-8.73,31.06,-31.22,0.092563,0.085604,0.030488,0.991546,0.0,0.0,0.0,0,0
2026-06-16 16:01:15.026,1688299,L_Hip,0.1112,-0.0695,0.9837,-4.16,4.51,2.98,-0.5,29.96,-28.3,0.993194,-0.023499,-0.071871,0.088443,0.0,0.0,0.0,0,0
2026-06-16 16:01:15.026,1688221,R_Ankle,0.0106,-0.0116,1.012,0.77,-1.72,-0.48,0.0,0.0,0.0,0.092563,0.085604,0.030457,0.991546,0.0,0.0,0.0,0,0
2026-06-16 16:01:15.029,1688319,L_Hip,0.1122,-0.0725,0.9788,-4.15,4.51,2.97,1.22,30.97,-29.78,0.993194,-0.023499,-0.071871,0.088443,0.0,0.0,0.0,0,0
2026-06-16 16:01:15.029,1688162,R_Hip,0.0441,0.0049,0.9943,0.28,-1.58,1.77,-18.5,25.43,-31.1,0.94644,-0.003082,-0.041597,-0.320139,0.0,0.0,0.0,0,0
2026-06-16 16:01:15.031,1688339,L_Hip,0.1185,-0.0784,0.9914,-4.16,4.51,2.99,0.0,0.0,0.0,0.993194,-0.023499,-0.071871,0.088443,0.0,0.0,0.0,0,0
2026-06-16 16:01:15.031,1688182,R_Hip,0.0431,0.0089,0.9861,0.27,-1.58,1.77,-17.96,27.07,-32.3,0.94644,-0.003082,-0.041627,-0.320139,0.0,0.0,0.0,0,0
2026-06-16 16:01:15.033,1688202,R_Hip,0.0471,0.0015,0.9958,0.28,-1.58,1.77,0.0,0.0,0.0,0.94644,-0.003082,-0.041597,-0.320139,0.0,0.0,0.0,0,0
2026-06-16 16:01:15.033,1688359,L_Hip,0.1229,-0.0808,0.9875,-4.16,4.51,2.96,0.68,30.47,-28.18,0.993194,-0.023499,-0.071841,0.088443,0.0,0.0,0.0,0,0
2026-06-16 16:01:15.035,1688222,R_Hip,0.0382,0.004,0.989,0.28,-1.58,1.77,-18.87,27.26,-32.82,0.94644,-0.003082,-0.041597,-0.320139,0.0,0.0,0.0,0,0
2026-06-16 16:01:15.037,1688177,R_Shank,0.0463,0.5684,1.0056,-0.08,-1.46,-8.41,-10.68,25.66,-23.56,0.901486,0.036073,-0.017975,0.430891,0.0,0.0,0.0,0,0
2026-06-16 16:01:15.039,1688197,R_Shank,0.0414,-0.3316,1.0143,-0.09,-1.48,-8.44,-11.67,24.36,-22.95,0.901486,0.036042,-0.017945,0.430891,0.0,0.0,0.0,0,0
2026-06-16 16:01:15.041,1688217,R_Shank,0.0326,-3.1552,1.009,-0.07,-1.47,-8.43,0.0,0.0,0.0,0.901486,0.036073,-0.017975,0.430891,0.0,0.0,0.0,0,0
2026-06-16 16:01:15.043,1688237,R_Shank,0.0409,0.698,1.0104,-0.09,-1.47,-8.41,-11.69,25.02,-22.35,0.901486,0.036073,-0.017975,0.430891,0.0,0.0,0.0,0,0
2026-06-16 16:01:15.045,1688182,R_Ankle,0.016,-0.0101,0.9899,0.76,-1.71,-0.49,-9.39,31.68,-30.31,0.092563,0.085604,0.030457,0.991546,0.0,0.0,0.0,0,0
2026-06-16 16:01:15.046,1688202,R_Ankle,0.0189,-0.0156,1.011,0.75,-1.73,-0.49,-8.38,32.02,-30.92,0.092563,0.085604,0.030457,0.991546,0.0,0.0,0.0,0,0
2026-06-16 16:01:15.048,1688222,R_Ankle,0.0179,-0.0181,0.9981,0.76,-1.74,-0.48,-7.0,31.05,-29.05,0.092563,0.085604,0.030457,0.991546,0.0,0.0,0.0,0,0
2026-06-16 16:01:15.049,1688242,R_Ankle,0.0219,-0.0106,1.0081,0.75,-1.72,-0.49,0.0,0.0,0.0,0.092532,0.085604,0.030427,0.991546,0.0,0.0,0.0,0,0
2026-06-16 16:01:15.058,1688334,L_Ankle,0.1192,0.0178,0.9861,5.4,-0.84,-10.29,-17.44,9.37,-44.22,0.931974,0.043397,-0.059969,0.354839,0.0,0.0,0.0,0,0
2026-06-16 16:01:15.058,1688200,R_Shank,0.0448,1.5984,0.9989,-0.09,-1.46,-8.43,-11.37,25.35,-22.05,0.901486,0.036073,-0.017975,0.430891,0.0,0.0,0.0,0,0
2026-06-16 16:01:15.060,1688354,L_Ankle,0.1119,0.0192,1.0029,5.4,-0.85,-10.3,-15.71,9.34,-44.87,0.931974,0.043428,-0.059969,0.354839,0.0,0.0,0.0,0,0
2026-06-16 16:01:15.061,1688220,R_Shank,0.0404,0.698,1.0066,-0.09,-1.47,-8.44,-11.53,25.84,-22.79,0.901486,0.036073,-0.017975,0.430891,0.0,0.0,0.0,0,0
2026-06-16 16:01:15.062,1688374,L_Ankle,0.1256,0.0119,0.9837,5.41,-0.84,-10.29,0.0,0.0,0.0,0.931974,0.043397,-0.059969,0.354839,0.0,0.0,0.0,0,0
2026-06-16 16:01:15.063,1688240,R_Shank,0.0438,0.0572,1.0297,-0.08,-1.48,-8.41,0.0,0.0,0.0,0.901486,0.036073,-0.017975,0.430891,0.0,0.0,0.0,0,0
2026-06-16 16:01:15.065,1688394,L_Ankle,0.1158,0.0227,0.9899,5.39,-0.83,-10.28,-15.17,9.16,-44.69,0.931974,0.043397,-0.059969,0.354808,0.0,0.0,0.0,0,0
2026-06-16 16:01:15.066,1688260,R_Shank,0.0473,1.5984,1.0018,-0.07,-1.47,-8.44,-11.34,24.68,-22.96,0.901456,0.036073,-0.018006,0.430921,0.0,0.0,0.0,0,0
2026-06-16 16:01:15.067,1688336,L_Shank,0.012,-0.043,0.9758,1.78,-1.25,-0.19,-9.69,16.07,-27.48,0.997742,-0.016602,-0.031617,0.056337,0.0,0.0,0.0,0,0
2026-06-16 16:01:15.069,1688356,L_Shank,0.0179,-0.039,0.9954,1.77,-1.24,-0.16,-10.2,14.56,-28.86,0.997742,-0.016602,-0.031648,0.056368,0.0,0.0,0.0,0,0
2026-06-16 16:01:15.070,1688212,R_Hip,0.0407,0.0045,0.9828,0.27,-1.58,1.77,-17.41,27.26,-32.81,0.94644,-0.003082,-0.041597,-0.320139,0.0,0.0,0.0,0,0
2026-06-16 16:01:15.071,1688376,L_Shank,0.0125,-0.0332,0.983,1.78,-1.25,-0.17,-11.44,15.38,-27.15,0.997742,-0.016602,-0.031648,0.056368,0.0,0.0,0.0,0,0
2026-06-16 16:01:15.073,1688213,R_Hip,0.0456,0.0069,0.9914,0.26,-1.57,1.8,-19.05,26.71,-31.62,0.946409,-0.003082,-0.041627,-0.32017,0.0,0.0,0.0,0,0
2026-06-16 16:01:15.073,1688396,L_Shank,0.0145,-0.0444,0.9935,1.78,-1.25,-0.16,0.0,0.0,0.0,0.997742,-0.016572,-0.031648,0.056337,0.0,0.0,0.0,0,0
2026-06-16 16:01:15.074,1688233,R_Hip,0.0427,0.0006,0.9958,0.28,-1.58,1.77,0.0,0.0,0.0,0.946409,-0.003082,-0.041627,-0.32017,0.0,0.0,0.0,0,0
2026-06-16 16:01:15.076,1688253,R_Hip,0.0367,0.0069,0.9866,0.27,-1.58,1.77,-17.96,27.07,-32.3,0.946409,-0.003082,-0.041627,-0.32017,0.0,0.0,0.0,0,0
2026-06-16 16:01:15.085,1688228,R_Ankle,0.0219,-0.0156,1.0072,0.77,-1.71,-0.49,-7.16,32.49,-29.53,0.092563,0.085604,0.030427,0.991546,0.0,0.0,0.0,0,0
2026-06-16 16:01:15.086,1688361,L_Shank,0.0116,-0.0434,0.9849,1.77,-1.25,-0.17,-10.73,15.4,-28.4,0.997742,-0.016602,-0.031617,0.056337,0.0,0.0,0.0,0,0
2026-06-16 16:01:15.089,1688248,R_Ankle,0.0101,-0.0106,0.9914,0.77,-1.71,-0.51,-8.54,31.2,-29.53,0.092563,0.085604,0.030427,0.991546,0.0,0.0,0.0,0,0
2026-06-16 16:01:15.089,1688381,L_Shank,0.0204,-0.0474,0.9758,1.78,-1.24,-0.17,-11.09,14.71,-27.45,0.997742,-0.016602,-0.031617,0.056337,0.0,0.0,0.0,0,0
2026-06-16 16:01:15.091,1688268,R_Ankle,0.0096,-0.0086,1.0081,0.77,-1.73,-0.49,-7.17,31.53,-29.52,0.092563,0.085604,0.030427,0.991546,0.0,0.0,0.0,0,0
2026-06-16 16:01:15.092,1688401,L_Shank,0.0125,-0.04,0.983,1.76,-1.24,-0.19,-11.26,15.56,-27.93,0.997742,-0.016602,-0.031587,0.056368,0.0,0.0,0.0,0,0
2026-06-16 16:01:15.094,1688421,L_Shank,0.0164,-0.0444,0.9825,1.77,-1.25,-0.17,-11.08,14.71,-27.76,0.997742,-0.016602,-0.031587,0.056368,0.0,0.0,0.0,0,0
2026-06-16 16:01:15.095,1688288,R_Ankle,0.014,-0.0111,0.9976,0.76,-1.74,-0.5,-9.39,31.68,-30.31,0.092563,0.085604,0.030427,0.991546,0.0,0.0,0.0,0,0
2026-06-16 16:01:15.096,1688366,L_Hip,0.1156,-0.0739,0.9933,-4.16,4.51,2.96,1.72,30.49,-29.94,0.993194,-0.023499,-0.071841,0.088443,0.0,0.0,0.0,0,0
2026-06-16 16:01:15.098,1688386,L_Hip,0.1171,-0.0749,0.9861,-4.15,4.51,2.97,1.17,29.99,-27.75,0.993194,-0.023499,-0.071841,0.088443,0.0,0.0,0.0,0,0
2026-06-16 16:01:15.100,1688367,L_Hip,0.1161,-0.0735,0.987,-4.16,4.51,2.96,0.0,0.0,0.0,0.993194,-0.023499,-0.071871,0.088412,0.0,0.0,0.0,0,0
2026-06-16 16:01:15.103,1688387,L_Hip,0.1205,-0.0813,0.9798,-4.16,4.51,2.98,1.51,29.68,-28.33,0.993194,-0.023499,-0.071871,0.088412,0.0,0.0,0.0,0,0
2026-06-16 16:01:15.103,1688245,R_Shank,0.0438,2.3688,1.008,-0.08,-1.46,-8.42,-10.85,25.5,-23.41,0.901456,0.036073,-0.018036,0.430921,0.0,0.0,0.0,0,0
2026-06-16 16:01:15.105,1688379,L_Ankle,0.1134,0.0153,0.9818,5.39,-0.85,-10.29,-15.68,8.28,-44.19,0.931974,0.043397,-0.059969,0.354808,0.0,0.0,0.0,0,0
2026-06-16 16:01:15.106,1688265,R_Shank,0.038,2.4984,1.0047,-0.09,-1.45,-8.42,-12.2,25.53,-22.79,0.901456,0.036103,-0.017975,0.430921,0.0,0.0,0.0,0,0
2026-06-16 16:01:15.107,1688399,L_Ankle,0.1163,0.0168,0.9928,5.41,-0.85,-10.28,-15.87,8.82,-44.7,0.931974,0.043397,-0.059969,0.354808,0.0,0.0,0.0,0,0
2026-06-16 16:01:15.108,1688285,R_Shank,0.0419,1.9804,1.0028,-0.08,-1.46,-8.42,0.0,0.0,0.0,0.901456,0.036103,-0.018006,0.430921,0.0,0.0,0.0,0,0
2026-06-16 16:01:15.110,1688419,L_Ankle,0.1173,0.0207,0.9794,5.39,-0.86,-10.29,0.0,0.0,0.0,0.931974,0.043428,-0.059938,0.354808,0.0,0.0,0.0,0,0
2026-06-16 16:01:15.111,1688305,R_Shank,0.0375,-2.6436,1.0133,-0.09,-1.45,-8.41,-11.36,25.67,-23.25,0.901456,0.036103,-0.017975,0.430921,0.0,0.0,0.0,0,0
2026-06-16 16:01:15.112,1688439,L_Ankle,0.1124,0.0276,0.9875,5.4,-0.83,-10.3,-15.54,9.52,-45.03,0.931974,0.043428,-0.059969,0.354808,0.0,0.0,0.0,0,0
2026-06-16 16:01:15.114,1688250,R_Ankle,0.0096,-0.024,1.0139,0.76,-1.72,-0.51,-9.04,32.63,-29.7,0.092563,0.085604,0.030427,0.991546,0.0,0.0,0.0,0,0
2026-06-16 16:01:15.115,1688389,L_Hip,0.119,-0.0739,0.9943,-4.15,4.51,2.98,0.35,30.14,-29.33,0.993194,-0.023499,-0.071871,0.088412,0.0,0.0,0.0,0,0
2026-06-16 16:01:15.116,1688270,R_Ankle,0.0155,-0.019,0.9899,0.77,-1.71,-0.48,-8.56,30.26,-30.44,0.092563,0.085604,0.030457,0.991546,0.0,0.0,0.0,0,0
2026-06-16 16:01:15.117,1688409,L_Hip,0.12,-0.0828,0.9929,-4.16,4.51,2.97,0.88,30.32,-30.07,0.993194,-0.023499,-0.071871,0.088412,0.0,0.0,0.0,0,0
2026-06-16 16:01:15.118,1688290,R_Ankle,0.0023,-0.02,1.0101,0.77,-1.74,-0.5,-9.2,31.5,-28.3,0.092563,0.085574,0.030427,0.991546,0.0,0.0,0.0,0,0
2026-06-16 16:01:15.119,1688429,L_Hip,0.1176,-0.0828,0.9812,-4.15,4.51,2.98,0.33,29.82,-28.46,0.993194,-0.023499,-0.071871,0.088412,0.0,0.0,0.0,0,0
2026-06-16 16:01:15.120,1688310,R_Ankle,0.0199,-0.0121,1.0134,0.75,-1.73,-0.48,-7.68,31.69,-29.37,0.092563,0.085574,0.030396,0.991546,0.0,0.0,0.0,0,0
2026-06-16 16:01:15.121,1688449,L_Hip,0.122,-0.0818,0.9851,-4.17,4.51,2.97,0.0,0.0,0.0,0.993194,-0.023499,-0.071871,0.088412,0.0,0.0,0.0,0,0
2026-06-16 16:01:15.123,1688262,R_Hip,0.0471,0.0171,0.9972,0.26,-1.58,1.78,-18.32,27.07,-32.3,0.946409,-0.003082,-0.041597,-0.32017,0.0,0.0,0.0,0,0
2026-06-16 16:01:15.125,1688282,R_Hip,0.0362,0.0123,0.9982,0.28,-1.59,1.78,-17.77,27.25,-31.79,0.94644,-0.003052,-0.041597,-0.32017,0.0,0.0,0.0,0,0
2026-06-16 16:01:15.126,1688401,L_Ankle,0.1085,0.0222,0.9813,5.38,-0.83,-10.32,-16.41,9.36,-44.88,0.931974,0.043428,-0.059969,0.354808,0.0,0.0,0.0,0,0
2026-06-16 16:01:15.128,1688302,R_Hip,0.0372,0.0132,0.9953,0.27,-1.58,1.77,0.0,0.0,0.0,0.946409,-0.003021,-0.041597,-0.32017,0.0,0.0,0.0,0,0
2026-06-16 16:01:15.129,1688421,L_Ankle,0.1158,0.0207,0.9856,5.4,-0.86,-10.31,-15.68,8.99,-43.85,0.931974,0.043428,-0.059969,0.354808,0.0,0.0,0.0,0,0
2026-06-16 16:01:15.131,1688322,R_Hip,0.0496,0.0103,0.9837,0.26,-1.57,1.78,-18.32,27.07,-32.65,0.946409,-0.002991,-0.041597,-0.32017,0.0,0.0,0.0,0,0
2026-06-16 16:01:15.131,1688441,L_Ankle,0.1207,0.0173,0.9746,5.4,-0.86,-10.31,0.0,0.0,0.0,0.931974,0.043428,-0.059938,0.354808,0.0,0.0,0.0,0,0
2026-06-16 16:01:15.133,1688267,R_Shank,0.0443,0.698,1.0032,-0.09,-1.46,-8.43,-11.21,26.5,-23.09,0.901456,0.036103,-0.017975,0.430921,0.0,0.0,0.0,0,0
2026-06-16 16:01:15.133,1688461,L_Ankle,0.1188,0.0168,0.9803,5.4,-0.84,-10.3,-15.9,10.94,-44.69,0.931974,0.043428,-0.059938,0.354808,0.0,0.0,0.0,0,0
2026-06-16 16:01:15.136,1688411,L_Shank,0.0218,-0.0371,0.9724,1.77,-1.25,-0.17,-11.62,14.87,-26.98,0.997742,-0.016602,-0.031587,0.056368,0.0,0.0,0.0,0,0
2026-06-16 16:01:15.136,1688287,R_Shank,0.0394,2.2392,1.0018,-0.08,-1.47,-8.43,-10.17,25.48,-23.72,0.901456,0.036103,-0.017975,0.430921,0.0,0.0,0.0,0,0
2026-06-16 16:01:15.138,1688431,L_Shank,0.0194,-0.0376,0.983,1.77,-1.25,-0.17,-10.92,14.53,-26.98,0.997742,-0.016572,-0.031556,0.056368,0.0,0.0,0.0,0,0
2026-06-16 16:01:15.138,1688307,R_Shank,0.0414,0.0572,1.0128,-0.09,-1.46,-8.45,0.0,0.0,0.0,0.901456,0.036103,-0.017975,0.430921,0.0,0.0,0.0,0,0
2026-06-16 16:01:15.140,1688451,L_Shank,0.0116,-0.0449,0.9935,1.77,-1.25,-0.17,-10.91,15.56,-27.62,0.997742,-0.016602,-0.031556,0.056368,0.0,0.0,0.0,0,0
2026-06-16 16:01:15.140,1688327,R_Shank,0.0399,-2.2548,0.998,-0.08,-1.47,-8.43,-11.85,24.86,-23.1,0.901456,0.036103,-0.018006,0.430921,0.0,0.0,0.0,0,0
2026-06-16 16:01:15.142,1688471,L_Shank,0.0145,-0.0371,0.9844,1.76,-1.25,-0.18,-10.57,14.87,-26.99,0.997742,-0.016602,-0.031556,0.056368,0.0,0.0,0.0,0,0
2026-06-16 16:01:15.145,1688287,R_Hip,0.0456,0.0186,0.9881,0.27,-1.58,1.77,-18.69,28.54,-33.68,0.946409,-0.002991,-0.041597,-0.32017,0.0,0.0,0.0,0,0
2026-06-16 16:01:15.147,1688307,R_Hip,0.053,0.0035,1.0001,0.28,-1.57,1.77,-18.14,26.52,-31.79,0.946409,-0.002991,-0.041597,-0.32017,0.0,0.0,0.0,0,0
2026-06-16 16:01:15.149,1688327,R_Hip,0.051,0.0074,0.9784,0.27,-1.58,1.79,-18.69,27.08,-33.67,0.946409,-0.002991,-0.041597,-0.32017,0.0,0.0,0.0,0,0
2026-06-16 16:01:15.150,1688347,R_Hip,0.0412,0.0079,0.9938,0.28,-1.58,1.78,0.0,0.0,0.0,0.946409,-0.002991,-0.041627,-0.32017,0.0,0.0,0.0,0,0
2026-06-16 16:01:15.157,1688434,L_Hip,0.119,-0.0735,0.9788,-4.16,4.51,2.98,1.19,29.67,-29.2,0.993194,-0.023499,-0.071871,0.088443,0.0,0.0,0.0,0,0
2026-06-16 16:01:15.160,1688454,L_Hip,0.1156,-0.0764,0.9812,-4.18,4.51,2.98,2.19,29.69,-28.63,0.993194,-0.02353,-0.071871,0.088443,0.0,0.0,0.0,0,0
2026-06-16 16:01:15.162,1688474,L_Hip,0.1141,-0.073,0.9924,-4.16,4.51,2.97,0.51,29.98,-28.61,0.993194,-0.02353,-0.071871,0.088443,0.0,0.0,0.0,0,0
2026-06-16 16:01:15.163,1688494,L_Hip,0.1161,-0.0769,0.9866,-4.16,4.51,2.96,0.0,0.0,0.0,0.993194,-0.02353,-0.071871,0.088443,0.0,0.0,0.0,0,0
2026-06-16 16:01:15.165,1688436,L_Shank,0.0135,-0.0474,0.9854,1.76,-1.26,-0.18,-11.27,16.22,-26.69,0.997742,-0.016572,-0.031556,0.056368,0.0,0.0,0.0,0,0
2026-06-16 16:01:15.167,1688456,L_Shank,0.0194,-0.0459,0.9921,1.77,-1.25,-0.19,0.0,0.0,0.0,0.997742,-0.016572,-0.031556,0.056368,0.0,0.0,0.0,0,0
2026-06-16 16:01:15.169,1688476,L_Shank,0.0199,-0.0376,0.9676,1.76,-1.25,-0.18,-11.09,14.37,-27.45,0.997742,-0.016572,-0.031556,0.056368,0.0,0.0,0.0,0,0
2026-06-16 16:01:15.170,1688312,R_Hip,0.0417,0.0001,0.9871,0.27,-1.58,1.78,-18.14,27.62,-31.45,0.946409,-0.002991,-0.041627,-0.32017,0.0,0.0,0.0,0,0
2026-06-16 16:01:15.171,1688496,L_Shank,0.0218,-0.0459,0.9878,1.77,-1.25,-0.18,-11.27,14.87,-26.99,0.997742,-0.016572,-0.031556,0.056368,0.0,0.0,0.0,0,0
2026-06-16 16:01:15.173,1688332,R_Hip,0.0412,0.0103,0.9909,0.26,-1.57,1.77,-17.59,28.17,-32.65,0.946409,-0.00296,-0.041627,-0.32017,0.0,0.0,0.0,0,0
2026-06-16 16:01:15.173,1688446,L_Ankle,0.1158,0.0178,0.9774,5.41,-0.85,-10.29,-15.69,8.99,-44.19,0.931974,0.043428,-0.059908,0.354808,0.0,0.0,0.0,0,0
2026-06-16 16:01:15.176,1688466,L_Ankle,0.1143,0.0168,0.9914,5.4,-0.83,-10.29,-15.89,9.88,-45.04,0.931974,0.043428,-0.059908,0.354808,0.0,0.0,0.0,0,0
2026-06-16 16:01:15.176,1688352,R_Hip,0.0372,0.0215,0.9953,0.25,-1.57,1.78,0.0,0.0,0.0,0.946409,-0.002991,-0.041597,-0.32017,0.0,0.0,0.0,0,0
2026-06-16 16:01:15.178,1688486,L_Ankle,0.1104,0.0134,0.9851,5.41,-0.83,-10.29,-16.45,10.77,-45.9,0.931974,0.043428,-0.059908,0.354839,0.0,0.0,0.0,0,0
2026-06-16 16:01:15.179,1688372,R_Hip,0.0496,0.0049,0.9866,0.28,-1.58,1.77,-19.41,27.07,-30.94,0.946409,-0.00293,-0.041566,-0.32017,0.0,0.0,0.0,0,0
2026-06-16 16:01:15.181,1688506,L_Ankle,0.1099,0.0222,0.9856,5.41,-0.84,-10.3,0.0,0.0,0.0,0.931974,0.043458,-0.059877,0.354808,0.0,0.0,0.0,0,0
2026-06-16 16:01:15.181,1688317,R_Ankle,0.0116,-0.0131,1.012,0.77,-1.73,-0.5,-6.99,32.0,-28.75,0.092563,0.085574,0.030396,0.991546,0.0,0.0,0.0,0,0
2026-06-16 16:01:15.183,1688456,L_Hip,0.1205,-0.0774,0.9841,-4.16,4.51,2.97,0.37,31.75,-28.47,0.993194,-0.02353,-0.071871,0.088443,0.0,0.0,0.0,0,0
2026-06-16 16:01:15.183,1688337,R_Ankle,0.0155,-0.0076,1.001,0.77,-1.73,-0.49,0.0,0.0,0.0,0.092563,0.085574,0.030396,0.991546,0.0,0.0,0.0,0,0
2026-06-16 16:01:15.185,1688476,L_Hip,0.1156,-0.0784,0.9919,-4.16,4.5,2.98,1.04,30.8,-29.35,0.993194,-0.02353,-0.071871,0.088443,0.0,0.0,0.0,0,0
2026-06-16 16:01:15.186,1688357,R_Ankle,0.0101,-0.0106,1.0072,0.76,-1.73,-0.5,-9.04,31.67,-29.07,0.092563,0.085574,0.030396,0.991546,0.0,0.0,0.0,0,0
2026-06-16 16:01:15.188,1688496,L_Hip,0.1136,-0.0828,0.9977,-4.17,4.51,2.98,1.37,30.8,-28.77,0.993194,-0.02353,-0.071841,0.088443,0.0,0.0,0.0,0,0
2026-06-16 16:01:15.188,1688377,R_Ankle,0.0116,-0.0116,1.0072,0.76,-1.73,-0.48,-8.53,31.52,-29.22,0.092563,0.085574,0.030396,0.991546,0.0,0.0,0.0,0,0
2026-06-16 16:01:15.190,1688516,L_Hip,0.118,-0.0823,0.9861,-4.16,4.51,2.98,0.52,30.31,-29.19,0.993194,-0.02353,-0.071841,0.088443,0.0,0.0,0.0,0,0
2026-06-16 16:01:15.197,1688338,R_Hip,0.0431,0.0093,0.9847,0.27,-1.58,1.77,-18.14,26.89,-33.5,0.946409,-0.00293,-0.041566,-0.32017,0.0,0.0,0.0,0,0
2026-06-16 16:01:15.198,1688358,R_Hip,0.0481,0.0093,0.9866,0.28,-1.57,1.77,-18.87,28.72,-32.48,0.946409,-0.00293,-0.041566,-0.32017,0.0,0.0,0.0,0,0
2026-06-16 16:01:15.200,1688378,R_Hip,0.0407,0.001,0.9982,0.27,-1.58,1.77,0.0,0.0,0.0,0.946409,-0.002899,-0.041566,-0.32017,0.0,0.0,0.0,0,0
2026-06-16 16:01:15.202,1688398,R_Hip,0.052,0.0103,0.9958,0.27,-1.57,1.77,-16.68,26.89,-31.44,0.946409,-0.002899,-0.041566,-0.32017,0.0,0.0,0.0,0,0
2026-06-16 16:01:15.210,1688486,L_Shank,0.0174,-0.0356,0.9854,1.77,-1.25,-0.18,-12.13,15.39,-27.76,0.997742,-0.016572,-0.031556,0.056368,0.0,0.0,0.0,0,0
2026-06-16 16:01:15.212,1688506,L_Shank,0.0189,-0.043,0.9858,1.77,-1.24,-0.19,0.0,0.0,0.0,0.997742,-0.016602,-0.031556,0.056368,0.0,0.0,0.0,0,0
2026-06-16 16:01:15.213,1688487,L_Shank,0.0135,-0.0366,0.9782,1.77,-1.25,-0.17,-11.08,14.38,-28.07,0.997742,-0.016602,-0.031556,0.056398,0.0,0.0,0.0,0,0
2026-06-16 16:01:15.216,1688507,L_Shank,0.0052,-0.0449,0.9844,1.78,-1.24,-0.16,-9.68,15.06,-28.4,0.997742,-0.016572,-0.031587,0.056398,0.0,0.0,0.0,0,0
2026-06-16 16:01:15.217,1688491,L_Ankle,0.1138,0.0163,0.9794,5.4,-0.84,-10.29,-14.85,9.86,-45.36,0.931974,0.043489,-0.059877,0.354808,0.0,0.0,0.0,0,0
2026-06-16 16:01:15.219,1688511,L_Ankle,0.1271,0.0168,0.9717,5.4,-0.85,-10.29,-15.53,9.52,-44.69,0.931974,0.043489,-0.059877,0.354808,0.0,0.0,0.0,0,0
2026-06-16 16:01:15.221,1688531,L_Ankle,0.1153,0.0168,0.9899,5.39,-0.85,-10.29,0.0,0.0,0.0,0.931974,0.043519,-0.059877,0.354778,0.0,0.0,0.0,0,0
2026-06-16 16:01:15.223,1688551,L_Ankle,0.1119,0.0144,0.976,5.39,-0.85,-10.29,-16.38,8.65,-44.2,0.931974,0.043519,-0.059877,0.354778,0.0,0.0,0.0,0,0
2026-06-16 16:01:15.225,1688501,L_Hip,0.1215,-0.0779,0.9933,-4.15,4.51,2.97,1.69,29.84,-29.06,0.993194,-0.02353,-0.071841,0.088443,0.0,0.0,0.0,0,0
2026-06-16 16:01:15.227,1688502,L_Hip,0.1156,-0.0838,0.9778,-4.16,4.49,2.96,1.21,30.64,-29.49,0.993194,-0.02353,-0.071841,0.088443,0.0,0.0,0.0,0,0
2026-06-16 16:01:15.228,1688522,L_Hip,0.118,-0.07,0.9856,-4.14,4.49,2.97,0.86,30.63,-28.91,0.993194,-0.02356,-0.071871,0.088443,0.0,0.0,0.0,0,0
2026-06-16 16:01:15.230,1688542,L_Hip,0.1225,-0.0735,0.9783,-4.16,4.5,2.97,0.33,30.14,-28.17,0.993194,-0.02353,-0.071871,0.088443,0.0,0.0,0.0,0,0
2026-06-16 16:01:15.243,1688386,R_Ankle,0.0135,-0.0146,1.0192,0.77,-1.73,-0.48,-8.71,30.73,-29.68,0.092563,0.085574,0.030427,0.991546,0.0,0.0,0.0,0,0
2026-06-16 16:01:15.245,1688406,R_Ankle,0.0189,-0.0067,0.9971,0.77,-1.72,-0.49,0.0,0.0,0.0,0.092563,0.085574,0.030427,0.991546,0.0,0.0,0.0,0,0
2026-06-16 16:01:15.247,1688426,R_Ankle,0.0175,-0.0181,1.0096,0.77,-1.72,-0.48,-8.54,31.53,-30.45,0.092532,0.085574,0.030396,0.991546,0.0,0.0,0.0,0,0
2026-06-16 16:01:15.248,1688446,R_Ankle,0.0155,-0.0116,1.0115,0.78,-1.74,-0.5,-9.03,32.62,-29.09,0.092563,0.085604,0.030396,0.991546,0.0,0.0,0.0,0,0
2026-06-16 16:01:15.250,1688387,R_Hip,0.0496,0.0074,0.9881,0.27,-1.57,1.78,-20.51,27.08,-32.99,0.946409,-0.00293,-0.041597,-0.32017,0.0,0.0,0.0,0,0
2026-06-16 16:01:15.252,1688407,R_Hip,0.0431,0.0059,0.9794,0.25,-1.56,1.78,-18.87,27.26,-32.48,0.946409,-0.00293,-0.041597,-0.32017,0.0,0.0,0.0,0,0
2026-06-16 16:01:15.253,1688427,R_Hip,0.0476,0.0128,0.9885,0.26,-1.58,1.78,0.0,0.0,0.0,0.946409,-0.00293,-0.041597,-0.32017,0.0,0.0,0.0,0,0
2026-06-16 16:01:15.255,1688447,R_Hip,0.0481,-0.0052,0.9948,0.28,-1.58,1.79,-19.6,26.53,-33.5,0.946409,-0.00293,-0.041597,-0.32017,0.0,0.0,0.0,0,0
2026-06-16 16:01:15.260,1688402,R_Shank,0.0424,-0.9728,1.022,-0.07,-1.46,-8.43,-12.71,26.03,-23.53,0.901456,0.036103,-0.018006,0.430921,0.0,0.0,0.0,0,0
2026-06-16 16:01:15.261,1688536,L_Shank,0.012,-0.0498,0.9911,1.77,-1.25,-0.18,-11.26,15.9,-27.62,0.997742,-0.016572,-0.031587,0.056398,0.0,0.0,0.0,0,0
2026-06-16 16:01:15.262,1688422,R_Shank,0.0326,0.0572,0.9975,-0.06,-1.46,-8.43,0.0,0.0,0.0,0.901456,0.036103,-0.018006,0.430921,0.0,0.0,0.0,0,0
2026-06-16 16:01:15.263,1688556,L_Shank,0.0204,-0.0332,0.9762,1.76,-1.23,-0.17,0.0,0.0,0.0,0.997742,-0.016572,-0.031587,0.056398,0.0,0.0,0.0,0,0
2026-06-16 16:01:15.265,1688576,L_Shank,0.016,-0.0439,0.9959,1.77,-1.25,-0.16,-10.74,14.03,-27.76,0.997742,-0.016602,-0.031587,0.056398,0.0,0.0,0.0,0,0
2026-06-16 16:01:15.265,1688442,R_Shank,0.0247,-0.7136,1.0143,-0.07,-1.46,-8.42,-11.55,26.51,-22.79,0.901456,0.036103,-0.018006,0.430921,0.0,0.0,0.0,0,0
2026-06-16 16:01:15.268,1688596,L_Shank,0.0116,-0.043,0.9714,1.78,-1.25,-0.16,-9.51,15.22,-27.94,0.997742,-0.016633,-0.031587,0.056398,0.0,0.0,0.0,0,0
2026-06-16 16:01:15.268,1688462,R_Shank,0.0404,-2.3844,0.9989,-0.09,-1.47,-8.43,-11.87,25.52,-22.49,0.901456,0.036073,-0.018006,0.430921,0.0,0.0,0.0,0,0
2026-06-16 16:01:15.270,1688407,R_Ankle,0.015,-0.0106,1.0014,0.77,-1.73,-0.48,-8.19,31.52,-29.22,0.092532,0.085604,0.030427,0.991546,0.0,0.0,0.0,0,0
2026-06-16 16:01:15.273,1688427,R_Ankle,0.0121,-0.0106,1.0187,0.77,-1.72,-0.48,0.0,0.0,0.0,0.092532,0.085665,0.030427,0.991546,0.0,0.0,0.0,0,0
2026-06-16 16:01:15.275,1688447,R_Ankle,0.0135,-0.0151,1.0105,0.77,-1.73,-0.51,-8.03,31.05,-29.98,0.092532,0.085665,0.030427,0.991546,0.0,0.0,0.0,0,0
2026-06-16 16:01:15.277,1688467,R_Ankle,0.0165,-0.0106,1.0091,0.76,-1.73,-0.5,-7.35,30.74,-29.66,0.092563,0.085665,0.030427,0.991546,0.0,0.0,0.0,0,0
2026-06-16 16:01:15.279,1688412,R_Hip,0.0372,0.0069,0.9967,0.26,-1.56,1.78,-18.14,27.62,-32.13,0.94644,-0.00296,-0.041597,-0.32017,0.0,0.0,0.0,0,0
2026-06-16 16:01:15.280,1688432,R_Hip,0.0471,0.0098,0.9847,0.25,-1.58,1.79,-17.96,28.53,-31.28,0.94644,-0.002991,-0.041627,-0.320139,0.0,0.0,0.0,0,0
2026-06-16 16:01:15.282,1688452,R_Hip,0.0486,0.0093,0.9871,0.26,-1.56,1.77,0.0,0.0,0.0,0.94644,-0.002991,-0.041597,-0.320139,0.0,0.0,0.0,0,0
2026-06-16 16:01:15.284,1688559,L_Ankle,0.1202,0.0217,0.9894,5.41,-0.85,-10.29,-16.06,9.7,-44.87,0.931974,0.043519,-0.059908,0.354778,0.0,0.0,0.0,0,0
2026-06-16 16:01:15.285,1688472,R_Hip,0.0466,0.0064,0.9929,0.27,-1.58,1.79,-19.24,27.63,-34.19,0.94644,-0.002991,-0.041597,-0.32017,0.0,0.0,0.0,0,0
2026-06-16 16:01:15.286,1688579,L_Ankle,0.1158,0.0149,0.9851,5.4,-0.86,-10.31,-15.33,8.63,-44.18,0.931974,0.04355,-0.059877,0.354808,0.0,0.0,0.0,0,0
2026-06-16 16:01:15.288,1688425,R_Shank,0.0355,-1.1024,0.9922,-0.1,-1.47,-8.43,-11.19,25.5,-23.1,0.901456,0.036073,-0.018006,0.430921,0.0,0.0,0.0,0,0
2026-06-16 16:01:15.289,1688599,L_Ankle,0.1168,0.0178,0.9909,5.39,-0.85,-10.31,-16.39,9.36,-44.2,0.931974,0.04355,-0.059877,0.354808,0.0,0.0,0.0,0,0
2026-06-16 16:01:15.291,1688445,R_Shank,0.0424,-0.8432,1.0138,-0.09,-1.47,-8.43,-11.03,26.0,-22.95,0.901456,0.036073,-0.018006,0.430921,0.0,0.0,0.0,0,0
2026-06-16 16:01:15.291,1688619,L_Ankle,0.1192,0.0075,0.9813,5.39,-0.86,-10.29,0.0,0.0,0.0,0.931974,0.04355,-0.059847,0.354808,0.0,0.0,0.0,0,0
2026-06-16 16:01:15.293,1688465,R_Shank,0.034,2.3688,0.9893,-0.08,-1.46,-8.44,0.0,0.0,0.0,0.901456,0.036073,-0.018006,0.430921,0.0,0.0,0.0,0,0
2026-06-16 16:01:15.294,1688561,L_Shank,0.0125,-0.0474,0.981,1.76,-1.25,-0.18,-11.45,13.68,-26.5,0.997742,-0.016633,-0.031617,0.056398,0.0,0.0,0.0,0,0
2026-06-16 16:01:15.296,1688581,L_Shank,0.0062,-0.0444,0.9786,1.77,-1.25,-0.16,0.0,0.0,0.0,0.997742,-0.016663,-0.031648,0.056398,0.0,0.0,0.0,0,0
2026-06-16 16:01:15.297,1688485,R_Shank,0.0424,1.4688,1.0229,-0.08,-1.45,-8.43,-10.53,26.15,-23.1,0.901456,0.036073,-0.017975,0.430921,0.0,0.0,0.0,0,0
2026-06-16 16:01:15.298,1688601,L_Shank,0.0189,-0.0346,0.983,1.78,-1.24,-0.19,-11.26,14.54,-27.6,0.997742,-0.016633,-0.031648,0.056398,0.0,0.0,0.0,0,0
2026-06-16 16:01:15.300,1688621,L_Shank,0.0194,-0.04,0.9945,1.78,-1.25,-0.18,-10.74,15.04,-26.84,0.997742,-0.016633,-0.031648,0.056398,0.0,0.0,0.0,0,0
2026-06-16 16:01:15.302,1688568,L_Hip,0.1225,-0.0779,0.9812,-4.16,4.5,2.98,1.52,30.32,-28.33,0.993194,-0.02356,-0.071902,0.088443,0.0,0.0,0.0,0,0
2026-06-16 16:01:15.303,1688569,L_Hip,0.1136,-0.0769,0.9895,-4.16,4.51,2.98,0.0,0.0,0.0,0.993194,-0.02353,-0.071902,0.088443,0.0,0.0,0.0,0,0
2026-06-16 16:01:15.305,1688589,L_Hip,0.1244,-0.0784,0.9909,-4.16,4.5,2.98,1.01,30.15,-28.47,0.993194,-0.02353,-0.071902,0.088443,0.0,0.0,0.0,0,0
2026-06-16 16:01:15.306,1688447,R_Shank,0.0438,3.2692,0.9956,-0.09,-1.46,-8.42,-12.38,24.72,-20.83,0.901456,0.036073,-0.018006,0.430921,0.0,0.0,0.0,0,0
2026-06-16 16:01:15.308,1688609,L_Hip,0.122,-0.0798,0.9861,-4.16,4.51,2.97,0.68,30.47,-28.47,0.993194,-0.02353,-0.071932,0.088443,0.0,0.0,0.0,0,0
2026-06-16 16:01:15.308,1688467,R_Shank,0.035,-1.8728,1.01,-0.07,-1.48,-8.41,0.0,0.0,0.0,0.901456,0.036073,-0.018006,0.430921,0.0,0.0,0.0,0,0
2026-06-16 16:01:15.311,1688581,L_Ankle,0.1178,0.0085,1.001,5.39,-0.84,-10.3,-15.87,9.53,-44.36,0.931974,0.04355,-0.059816,0.354808,0.0,0.0,0.0,0,0
2026-06-16 16:01:15.311,1688487,R_Shank,0.0424,-2.6436,1.01,-0.07,-1.48,-8.41,-10.51,25.49,-23.41,0.901456,0.036073,-0.018006,0.430952,0.0,0.0,0.0,0,0
2026-06-16 16:01:15.314,1688601,L_Ankle,0.1129,0.0183,0.9885,5.41,-0.86,-10.31,-15.01,9.33,-44.85,0.931974,0.04355,-0.059816,0.354808,0.0,0.0,0.0,0,0
2026-06-16 16:01:15.315,1688507,R_Shank,0.0448,1.4688,1.0244,-0.08,-1.48,-8.43,-10.01,25.98,-23.56,0.901456,0.036073,-0.018006,0.430952,0.0,0.0,0.0,0,0
2026-06-16 16:01:15.317,1688621,L_Ankle,0.1207,0.0085,0.9875,5.39,-0.84,-10.29,-15.84,8.47,-43.34,0.931974,0.04355,-0.059847,0.354808,0.0,0.0,0.0,0,0
2026-06-16 16:01:15.318,1688452,R_Ankle,0.0135,-0.0136,1.0163,0.77,-1.72,-0.49,-8.19,31.84,-29.53,0.092563,0.085665,0.030396,0.991546,0.0,0.0,0.0,0,0
2026-06-16 16:01:15.320,1688582,L_Ankle,0.1212,0.0183,0.9923,5.41,-0.86,-10.29,-17.26,8.49,-44.39,0.931974,0.04355,-0.059847,0.354808,0.0,0.0,0.0,0,0
2026-06-16 16:01:15.320,1688453,R_Ankle,0.0081,-0.0116,1.0149,0.77,-1.74,-0.48,0.0,0.0,0.0,0.092563,0.085665,0.030396,0.991546,0.0,0.0,0.0,0,0
2026-06-16 16:01:15.322,1688591,L_Hip,0.1215,-0.0784,0.9735,-4.16,4.5,2.97,1.17,29.03,-29.2,0.993194,-0.023499,-0.071932,0.088473,0.0,0.0,0.0,0,0
2026-06-16 16:01:15.322,1688473,R_Ankle,0.016,-0.0151,1.0034,0.77,-1.73,-0.49,-8.01,32.96,-29.69,0.092532,0.085665,0.030396,0.991546,0.0,0.0,0.0,0,0
2026-06-16 16:01:15.324,1688611,L_Hip,0.1176,-0.0769,0.9972,-4.16,4.5,2.97,0.0,0.0,0.0,0.993194,-0.023499,-0.071932,0.088443,0.0,0.0,0.0,0,0
2026-06-16 16:01:15.326,1688493,R_Ankle,0.013,-0.0081,1.0101,0.75,-1.73,-0.49,-9.74,31.37,-30.62,0.092532,0.085635,0.030396,0.991546,0.0,0.0,0.0,0,0
2026-06-16 16:01:15.328,1688631,L_Hip,0.1229,-0.0744,0.9933,-4.15,4.5,2.97,0.7,31.11,-28.76,0.993194,-0.023499,-0.071932,0.088443,0.0,0.0,0.0,0,0
2026-06-16 16:01:15.329,1688462,R_Hip,0.0456,0.0103,0.9828,0.26,-1.55,1.77,-18.32,25.61,-31.61,0.94644,-0.00296,-0.041627,-0.320139,0.0,0.0,0.0,0,0
2026-06-16 16:01:15.331,1688651,L_Hip,0.1141,-0.0769,0.9808,-4.15,4.51,2.97,1.19,30.64,-28.33,0.993194,-0.023499,-0.071963,0.088443,0.0,0.0,0.0,0,0
2026-06-16 16:01:15.332,1688482,R_Hip,0.0427,0.0098,0.9828,0.27,-1.58,1.77,-17.77,28.35,-31.45,0.94644,-0.002991,-0.041597,-0.320139,0.0,0.0,0.0,0,0
2026-06-16 16:01:15.333,1688604,L_Ankle,0.1246,0.0207,0.9861,5.41,-0.84,-10.3,-15.67,8.28,-43.85,0.931974,0.04355,-0.059847,0.354808,0.0,0.0,0.0,0,0
2026-06-16 16:01:15.334,1688502,R_Hip,0.0417,0.0113,0.9842,0.29,-1.57,1.77,0.0,0.0,0.0,0.94644,-0.003021,-0.041597,-0.320139,0.0,0.0,0.0,0,0
2026-06-16 16:01:15.336,1688624,L_Ankle,0.1094,0.0197,0.9803,5.4,-0.84,-10.29,0.0,0.0,0.0,0.931974,0.04358,-0.059877,0.354808,0.0,0.0,0.0,0,0
2026-06-16 16:01:15.336,1688522,R_Hip,0.0461,0.004,0.9953,0.25,-1.57,1.8,-19.24,28.72,-33.16,0.94644,-0.002991,-0.041597,-0.320139,0.0,0.0,0.0,0,0
2026-06-16 16:01:15.338,1688644,L_Ankle,0.1129,0.0173,0.9918,5.38,-0.84,-10.29,-17.12,10.43,-44.89,0.931974,0.04355,-0.059877,0.354808,0.0,0.0,0.0,0,0
2026-06-16 16:01:15.339,1688475,R_Ankle,0.0116,-0.0181,1.0024,0.77,-1.74,-0.49,-7.67,32.96,-29.69,0.092563,0.085635,0.030396,0.991546,0.0,0.0,0.0,0,0
2026-06-16 16:01:15.340,1688664,L_Ankle,0.108,0.0178,0.9885,5.38,-0.85,-10.29,-16.58,9.18,-45.05,0.931974,0.04355,-0.059877,0.354778,0.0,0.0,0.0,0,0
2026-06-16 16:01:15.341,1688495,R_Ankle,0.0224,-0.0121,1.001,0.76,-1.73,-0.49,0.0,0.0,0.0,0.092563,0.085635,0.030396,0.991546,0.0,0.0,0.0,0,0
2026-06-16 16:01:15.343,1688611,L_Shank,0.013,-0.0464,0.9844,1.77,-1.25,-0.19,-11.43,15.05,-27.76,0.997742,-0.016633,-0.031648,0.056398,0.0,0.0,0.0,0,0
2026-06-16 16:01:15.344,1688515,R_Ankle,0.0111,-0.0185,0.9971,0.77,-1.74,-0.5,-7.0,31.37,-29.36,0.092532,0.085635,0.030366,0.991546,0.0,0.0,0.0,0,0
2026-06-16 16:01:15.345,1688631,L_Shank,0.0204,-0.0439,0.9954,1.77,-1.25,-0.17,0.0,0.0,0.0,0.997742,-0.016633,-0.031648,0.056398,0.0,0.0,0.0,0,0
2026-06-16 16:01:15.346,1688535,R_Ankle,0.017,-0.0126,1.0134,0.77,-1.73,-0.49,-8.2,31.85,-30.45,0.092532,0.085635,0.030366,0.991546,0.0,0.0,0.0,0,0
2026-06-16 16:01:15.347,1688651,L_Shank,0.0062,-0.0459,0.9724,1.77,-1.25,-0.17,-9.17,13.18,-27.6,0.997742,-0.016663,-0.031648,0.056398,0.0,0.0,0.0,0,0
2026-06-16 16:01:15.350,1688671,L_Shank,0.0072,-0.0434,0.9854,1.78,-1.25,-0.19,-9.34,14.7,-27.16,0.997742,-0.016694,-0.031617,0.056398,0.0,0.0,0.0,0,0
2026-06-16 16:01:15.350,1688492,R_Shank,0.0389,2.2392,1.0061,-0.09,-1.45,-8.42,-11.35,25.02,-22.65,0.901456,0.036103,-0.018006,0.430952,0.0,0.0,0.0,0,0
2026-06-16 16:01:15.352,1688512,R_Shank,0.0394,1.3392,1.0249,-0.09,-1.47,-8.45,0.0,0.0,0.0,0.901456,0.036073,-0.018006,0.430952,0.0,0.0,0.0,0,0
2026-06-16 16:01:15.354,1688532,R_Shank,0.0414,3.2692,1.008,-0.09,-1.47,-8.43,-10.86,26.16,-23.7,0.901456,0.036073,-0.017975,0.430921,0.0,0.0,0.0,0,0
2026-06-16 16:01:15.356,1688552,R_Shank,0.0424,3.1396,1.0181,-0.09,-1.47,-8.44,-10.53,26.15,-23.1,0.901456,0.036073,-0.017975,0.430921,0.0,0.0,0.0,0,0
2026-06-16 16:01:15.358,1688497,R_Ankle,0.0018,-0.0062,1.0019,0.77,-1.72,-0.49,-9.73,31.03,-29.38,0.092532,0.085665,0.030366,0.991546,0.0,0.0,0.0,0,0
2026-06-16 16:01:15.361,1688517,R_Ankle,0.0189,-0.0195,1.0024,0.76,-1.72,-0.49,0.0,0.0,0.0,0.092532,0.085665,0.030366,0.991546,0.0,0.0,0.0,0,0
2026-06-16 16:01:15.362,1688636,L_Shank,0.0189,-0.043,0.9854,1.77,-1.25,-0.17,-10.22,14.53,-26.99,0.997742,-0.016663,-0.031648,0.056398,0.0,0.0,0.0,0,0
2026-06-16 16:01:15.363,1688537,R_Ankle,0.0062,-0.0072,1.0115,0.77,-1.73,-0.48,-9.56,31.52,-29.85,0.092532,0.085604,0.030366,0.991546,0.0,0.0,0.0,0,0
2026-06-16 16:01:15.364,1688656,L_Shank,0.0086,-0.0454,0.983,1.77,-1.26,-0.18,0.0,0.0,0.0,0.997742,-0.016663,-0.031617,0.056429,0.0,0.0,0.0,0,0
2026-06-16 16:01:15.365,1688557,R_Ankle,0.0091,-0.0151,1.023,0.76,-1.74,-0.5,-9.22,31.2,-29.53,0.092563,0.085604,0.030366,0.991546,0.0,0.0,0.0,0,0
2026-06-16 16:01:15.366,1688676,L_Shank,0.0179,-0.0439,0.9863,1.77,-1.25,-0.18,-9.69,15.39,-27.78,0.997742,-0.016663,-0.031648,0.056429,0.0,0.0,0.0,0,0
2026-06-16 16:01:15.368,1688696,L_Shank,0.0199,-0.0317,0.9887,1.77,-1.25,-0.19,-10.74,15.38,-27.15,0.997742,-0.016663,-0.031617,0.056429,0.0,0.0,0.0,0,0
2026-06-16 16:01:15.369,1688512,R_Hip,0.0431,0.0015,0.989,0.29,-1.58,1.78,-17.96,28.17,-31.62,0.94644,-0.003021,-0.041597,-0.320139,0.0,0.0,0.0,0,0
2026-06-16 16:01:15.371,1688532,R_Hip,0.0402,0.0162,0.9823,0.28,-1.58,1.77,-17.96,27.81,-33.67,0.94644,-0.003021,-0.041597,-0.320139,0.0,0.0,0.0,0,0
2026-06-16 16:01:15.373,1688552,R_Hip,0.0496,0.0059,0.9842,0.26,-1.58,1.77,0.0,0.0,0.0,0.94644,-0.003021,-0.041597,-0.320139,0.0,0.0,0.0,0,0
2026-06-16 16:01:15.375,1688572,R_Hip,0.0471,-0.0003,0.9996,0.25,-1.58,1.77,-20.15,25.98,-33.67,0.94644,-0.003021,-0.041597,-0.320139,0.0,0.0,0.0,0,0
2026-06-16 16:01:15.377,1688520,R_Ankle,0.0116,-0.0136,1.0177,0.77,-1.73,-0.48,-7.5,32.48,-29.53,0.092563,0.085574,0.030366,0.991546,0.0,0.0,0.0,0,0
2026-06-16 16:01:15.379,1688540,R_Ankle,0.0106,-0.0052,0.989,0.76,-1.73,-0.48,0.0,0.0,0.0,0.092563,0.085574,0.030366,0.991546,0.0,0.0,0.0,0,0
2026-06-16 16:01:15.381,1688560,R_Ankle,0.0042,-0.0166,1.0062,0.76,-1.73,-0.48,-9.57,30.88,-29.84,0.092532,0.085574,0.030366,0.991546,0.0,0.0,0.0,0,0
2026-06-16 16:01:15.383,1688580,R_Ankle,0.0086,-0.0151,1.001,0.75,-1.71,-0.49,-9.38,30.71,-28.76,0.092532,0.085543,0.030366,0.991546,0.0,0.0,0.0,0,0
2026-06-16 16:01:15.384,1688660,L_Hip,0.1156,-0.0666,0.987,-4.15,4.51,2.98,1.18,29.35,-29.2,0.993194,-0.023469,-0.071993,0.088443,0.0,0.0,0.0,0,0
2026-06-16 16:01:15.385,1688680,L_Hip,0.1171,-0.0651,0.9904,-4.16,4.51,2.99,0.0,0.0,0.0,0.993194,-0.023469,-0.071993,0.088443,0.0,0.0,0.0,0,0
2026-06-16 16:01:15.387,1688700,L_Hip,0.1185,-0.0793,0.9856,-4.17,4.51,2.97,-0.5,29.96,-28.59,0.993164,-0.023469,-0.071993,0.088473,0.0,0.0,0.0,0,0
2026-06-16 16:01:15.389,1688720,L_Hip,0.1185,-0.0754,0.9817,-4.16,4.51,2.96,1.37,30.8,-28.77,0.993194,-0.023438,-0.071993,0.088473,0.0,0.0,0.0,0,0
2026-06-16 16:01:15.395,1688671,L_Ankle,0.1158,0.0158,0.9942,5.4,-0.87,-10.29,-16.56,8.47,-44.38,0.931974,0.04358,-0.059908,0.354778,0.0,0.0,0.0,0,0
2026-06-16 16:01:15.397,1688691,L_Ankle,0.1232,0.0178,0.9909,5.4,-0.84,-10.29,0.0,0.0,0.0,0.931974,0.04355,-0.059908,0.354778,0.0,0.0,0.0,0,0
2026-06-16 16:01:15.398,1688711,L_Ankle,0.1134,0.0163,0.9741,5.39,-0.84,-10.29,-14.98,7.92,-44.86,0.931974,0.04355,-0.059877,0.354778,0.0,0.0,0.0,0,0
2026-06-16 16:01:15.400,1688731,L_Ankle,0.1173,0.0188,0.9861,5.41,-0.84,-10.3,-16.07,9.7,-45.21,0.932005,0.04355,-0.059877,0.354778,0.0,0.0,0.0,0,0
2026-06-16 16:01:15.405,1688681,L_Hip,0.1166,-0.0759,0.9832,-4.17,4.51,2.97,0.68,29.5,-29.34,0.993194,-0.023438,-0.071963,0.088473,0.0,0.0,0.0,0,0
2026-06-16 16:01:15.407,1688701,L_Hip,0.1166,-0.0769,0.9846,-4.16,4.5,2.96,1.85,29.04,-29.5,0.993194,-0.023438,-0.071963,0.088473,0.0,0.0,0.0,0,0
2026-06-16 16:01:15.409,1688721,L_Hip,0.1146,-0.0769,0.9798,-4.15,4.51,2.97,0.0,0.0,0.0,0.993194,-0.023438,-0.071963,0.088473,0.0,0.0,0.0,0,0
2026-06-16 16:01:15.411,1688682,L_Hip,0.1185,-0.0715,0.9841,-4.16,4.5,2.96,1.19,30.64,-28.62,0.993194,-0.023408,-0.071963,0.088473,0.0,0.0,0.0,0,0
2026-06-16 16:01:15.419,1688694,L_Ankle,0.1148,0.0158,0.9909,5.4,-0.84,-10.29,-15.36,9.69,-44.52,0.931974,0.04355,-0.059908,0.354778,0.0,0.0,0.0,0,0
2026-06-16 16:01:15.420,1688561,R_Shank,0.0419,-0.4612,1.0047,-0.09,-1.48,-8.43,-11.7,26.01,-22.94,0.901456,0.036103,-0.018006,0.430921,0.0,0.0,0.0,0,0
2026-06-16 16:01:15.423,1688581,R_Shank,0.0375,3.2692,1.0205,-0.07,-1.48,-8.43,0.0,0.0,0.0,0.901456,0.036134,-0.018006,0.430921,0.0,0.0,0.0,0,0
2026-06-16 16:01:15.424,1688714,L_Ankle,0.1124,0.0178,0.9885,5.38,-0.85,-10.29,0.0,0.0,0.0,0.931974,0.04355,-0.059877,0.354778,0.0,0.0,0.0,0,0
2026-06-16 16:01:15.426,1688601,R_Shank,0.0429,-1.8728,0.9917,-0.09,-1.48,-8.41,-12.03,24.7,-22.04,0.901456,0.036134,-0.018006,0.430952,0.0,0.0,0.0,0,0
2026-06-16 16:01:15.427,1688734,L_Ankle,0.1143,0.0188,0.9928,5.38,-0.84,-10.29,-14.45,7.73,-44.34,0.931974,0.04358,-0.059877,0.354778,0.0,0.0,0.0,0,0
2026-06-16 16:01:15.429,1688621,R_Shank,0.0438,-2.514,1.0249,-0.09,-1.45,-8.42,-12.7,25.37,-22.93,0.901456,0.036164,-0.018036,0.430952,0.0,0.0,0.0,0,0
2026-06-16 16:01:15.430,1688754,L_Ankle,0.1163,0.0144,0.9827,5.42,-0.86,-10.29,-15.52,9.17,-44.35,0.931974,0.04355,-0.059877,0.354778,0.0,0.0,0.0,0,0
2026-06-16 16:01:15.432,1688563,R_Hip,0.0476,0.0015,0.9755,0.27,-1.58,1.77,-19.05,27.07,-32.3,0.94644,-0.003021,-0.041597,-0.320139,0.0,0.0,0.0,0,0
2026-06-16 16:01:15.432,1688704,L_Hip,0.1195,-0.0759,0.987,-4.16,4.51,2.96,2.37,30.82,-28.2,0.993194,-0.023408,-0.071963,0.088473,0.0,0.0,0.0,0,0
2026-06-16 16:01:15.435,1688583,R_Hip,0.0471,0.0079,0.9861,0.27,-1.58,1.79,-19.23,26.16,-32.47,0.94644,-0.003021,-0.041627,-0.320139,0.0,0.0,0.0,0,0
2026-06-16 16:01:15.436,1688724,L_Hip,0.1151,-0.073,0.9841,-4.16,4.51,2.96,0.0,0.0,0.0,0.993194,-0.023408,-0.071963,0.088473,0.0,0.0,0.0,0,0
2026-06-16 16:01:15.439,1688603,R_Hip,0.0486,0.0015,1.0025,0.28,-1.58,1.77,0.0,0.0,0.0,0.94644,-0.003052,-0.041627,-0.320139,0.0,0.0,0.0,0,0
2026-06-16 16:01:15.440,1688744,L_Hip,0.119,-0.0685,0.9856,-4.16,4.5,2.96,0.7,31.11,-28.76,0.993194,-0.023408,-0.071932,0.088473,0.0,0.0,0.0,0,0
2026-06-16 16:01:15.442,1688623,R_Hip,0.053,0.0093,0.9784,0.27,-1.58,1.77,-18.5,26.16,-32.47,0.94644,-0.003052,-0.041658,-0.320139,0.0,0.0,0.0,0,0
2026-06-16 16:01:15.442,1688764,L_Hip,0.1156,-0.0764,0.9909,-4.14,4.5,2.98,1.7,29.84,-29.35,0.993194,-0.023377,-0.071932,0.088473,0.0,0.0,0.0,0,0
2026-06-16 16:01:15.445,1688582,R_Shank,0.0365,0.698,0.9989,-0.09,-1.47,-8.43,-12.54,25.21,-21.88,0.901456,0.036164,-0.018036,0.430952,0.0,0.0,0.0,0,0
2026-06-16 16:01:15.447,1688711,L_Shank,0.0194,-0.0444,0.9887,1.77,-1.25,-0.18,-10.91,13.87,-28.22,0.997742,-0.016633,-0.031617,0.056429,0.0,0.0,0.0,0,0
2026-06-16 16:01:15.451,1688602,R_Shank,0.0404,-2.3844,1.0008,-0.09,-1.47,-8.42,-11.85,25.51,-24.0,0.901456,0.036195,-0.018036,0.430952,0.0,0.0,0.0,0,0
2026-06-16 16:01:15.452,1688731,L_Shank,0.014,-0.0493,0.9873,1.77,-1.25,-0.17,0.0,0.0,0.0,0.997742,-0.016633,-0.031617,0.056429,0.0,0.0,0.0,0,0
2026-06-16 16:01:15.455,1688622,R_Shank,0.0404,-1.7432,1.0167,-0.08,-1.46,-8.43,-11.53,24.86,-21.6,0.901456,0.036195,-0.018036,0.430952,0.0,0.0,0.0,0,0
2026-06-16 16:01:15.456,1688751,L_Shank,0.0067,-0.0478,0.9863,1.79,-1.24,-0.17,-11.08,13.7,-28.06,0.997742,-0.016633,-0.031587,0.056429,0.0,0.0,0.0,0,0
2026-06-16 16:01:15.458,1688642,R_Shank,0.036,0.5684,1.0071,-0.08,-1.47,-8.42,0.0,0.0,0.0,0.901456,0.036195,-0.018036,0.430952,0.0,0.0,0.0,0,0
2026-06-16 16:01:15.459,1688771,L_Shank,0.0164,-0.0385,0.9786,1.77,-1.25,-0.17,-10.04,14.7,-27.15,0.997742,-0.016663,-0.031617,0.056429,0.0,0.0,0.0,0,0
2026-06-16 16:01:15.461,1688587,R_Hip,0.0441,0.0045,0.9948,0.27,-1.57,1.79,-17.59,27.07,-31.28,0.94644,-0.003052,-0.041658,-0.320139,0.0,0.0,0.0,0,0
2026-06-16 16:01:15.462,1688736,L_Shank,0.0076,-0.0385,0.9959,1.77,-1.25,-0.17,-11.62,14.87,-26.67,0.997742,-0.016663,-0.031587,0.056429,0.0,0.0,0.0,0,0
2026-06-16 16:01:15.465,1688607,R_Hip,0.052,0.0079,0.9876,0.26,-1.57,1.77,-17.77,26.89,-32.13,0.94644,-0.003052,-0.041627,-0.320139,0.0,0.0,0.0,0,0
2026-06-16 16:01:15.466,1688756,L_Shank,0.016,-0.039,0.9686,1.76,-1.25,-0.19,-11.09,15.38,-26.84,0.997742,-0.016663,-0.031587,0.056429,0.0,0.0,0.0,0,0
2026-06-16 16:01:15.468,1688627,R_Hip,0.0431,0.0049,0.9779,0.26,-1.58,1.77,0.0,0.0,0.0,0.94644,-0.003021,-0.041627,-0.320139,0.0,0.0,0.0,0,0
2026-06-16 16:01:15.469,1688776,L_Shank,0.0199,-0.0381,0.981,1.77,-1.25,-0.18,0.0,0.0,0.0,0.997742,-0.016663,-0.031587,0.056429,0.0,0.0,0.0,0,0
2026-06-16 16:01:15.471,1688647,R_Hip,0.0471,0.0049,0.9871,0.26,-1.58,1.77,-19.05,25.98,-32.99,0.94644,-0.003052,-0.041627,-0.320139,0.0,0.0,0.0,0,0
2026-06-16 16:01:15.472,1688796,L_Shank,0.0223,-0.0532,0.9801,1.78,-1.25,-0.19,-10.73,15.05,-27.77,0.997742,-0.016633,-0.031587,0.056429,0.0,0.0,0.0,0,0
2026-06-16 16:01:15.474,1688605,R_Shank,0.0375,-0.8432,1.0143,-0.09,-1.46,-8.44,-9.15,24.15,-22.23,0.901456,0.036195,-0.018036,0.430952,0.0,0.0,0.0,0,0
2026-06-16 16:01:15.475,1688739,L_Ankle,0.1207,0.0188,0.9856,5.38,-0.86,-10.29,-17.45,10.44,-43.53,0.932005,0.04355,-0.059847,0.354778,0.0,0.0,0.0,0,0
2026-06-16 16:01:15.477,1688625,R_Shank,0.0365,2.2392,1.0104,-0.08,-1.48,-8.44,-11.03,26.0,-23.25,0.901456,0.036195,-0.018036,0.430952,0.0,0.0,0.0,0,0
2026-06-16 16:01:15.478,1688759,L_Ankle,0.1173,0.0134,0.9784,5.4,-0.85,-10.29,0.0,0.0,0.0,0.931974,0.04355,-0.059847,0.354778,0.0,0.0,0.0,0,0
2026-06-16 16:01:15.480,1688645,R_Shank,0.038,0.3096,1.0037,-0.08,-1.46,-8.43,0.0,0.0,0.0,0.901456,0.036195,-0.018036,0.430952,0.0,0.0,0.0,0,0
2026-06-16 16:01:15.481,1688779,L_Ankle,0.1192,0.0144,0.9885,5.4,-0.85,-10.29,-16.23,8.82,-45.39,0.931974,0.04355,-0.059847,0.354778,0.0,0.0,0.0,0,0
2026-06-16 16:01:15.484,1688665,R_Shank,0.0345,-2.514,1.0152,-0.08,-1.46,-8.43,-13.22,26.2,-23.07,0.901456,0.036225,-0.018036,0.430921,0.0,0.0,0.0,0,0
2026-06-16 16:01:15.484,1688799,L_Ankle,0.1163,0.0134,0.9981,5.4,-0.86,-10.29,-14.31,9.32,-44.84,0.932005,0.04355,-0.059847,0.354778,0.0,0.0,0.0,0,0
2026-06-16 16:01:15.486,1688611,R_Ankle,0.0111,-0.0181,1.0081,0.76,-1.73,-0.48,-7.86,30.57,-29.51,0.092532,0.085513,0.030366,0.991546,0.0,0.0,0.0,0,0
2026-06-16 16:01:15.487,1688761,L_Shank,0.0106,-0.039,0.9734,1.77,-1.25,-0.17,-11.79,14.7,-27.13,0.997742,-0.016633,-0.031587,0.056429,0.0,0.0,0.0,0,0
2026-06-16 16:01:15.489,1688631,R_Ankle,0.0233,-0.0111,1.0034,0.77,-1.73,-0.48,0.0,0.0,0.0,0.092532,0.085513,0.030366,0.991546,0.0,0.0,0.0,0,0
2026-06-16 16:01:15.490,1688781,L_Shank,0.013,-0.0532,0.9945,1.77,-1.25,-0.18,-11.25,15.91,-28.56,0.997742,-0.016633,-0.031587,0.056429,0.0,0.0,0.0,0,0
2026-06-16 16:01:15.494,1688651,R_Ankle,0.0135,-0.0116,1.0038,0.77,-1.71,-0.5,-7.87,29.94,-29.5,0.092532,0.085513,0.030335,0.991546,0.0,0.0,0.0,0,0
2026-06-16 16:01:15.495,1688801,L_Shank,0.0145,-0.0341,0.9738,1.78,-1.23,-0.18,0.0,0.0,0.0,0.997742,-0.016633,-0.031587,0.056429,0.0,0.0,0.0,0,0
2026-06-16 16:01:15.497,1688821,L_Shank,0.0106,-0.0366,0.9858,1.77,-1.24,-0.18,-10.04,15.05,-27.47,0.997742,-0.016633,-0.031587,0.056429,0.0,0.0,0.0,0,0
2026-06-16 16:01:15.497,1688671,R_Ankle,0.0067,-0.0086,1.0034,0.76,-1.73,-0.48,-9.56,31.51,-29.54,0.092532,0.085543,0.030335,0.991546,0.0,0.0,0.0,0,0
2026-06-16 16:01:15.500,1688771,L_Hip,0.1171,-0.073,0.9914,-4.15,4.51,2.96,0.34,30.46,-28.17,0.993194,-0.023377,-0.071932,0.088443,0.0,0.0,0.0,0,0
2026-06-16 16:01:15.501,1688612,R_Hip,0.0417,0.0049,0.9953,0.27,-1.56,1.77,-19.05,26.71,-32.3,0.94644,-0.003052,-0.041627,-0.320139,0.0,0.0,0.0,0,0
2026-06-16 16:01:15.503,1688791,L_Hip,0.1136,-0.072,0.9856,-4.15,4.51,2.96,0.34,30.14,-28.75,0.993194,-0.023347,-0.071932,0.088473,0.0,0.0,0.0,0,0
2026-06-16 16:01:15.504,1688632,R_Hip,0.0535,0.0089,0.9779,0.27,-1.58,1.78,-17.77,26.89,-32.13,0.94644,-0.003052,-0.041627,-0.320139,0.0,0.0,0.0,0,0
2026-06-16 16:01:15.505,1688811,L_Hip,0.1136,-0.0793,0.9875,-4.15,4.51,2.97,0.0,0.0,0.0,0.993194,-0.023347,-0.071932,0.088473,0.0,0.0,0.0,0,0
2026-06-16 16:01:15.507,1688652,R_Hip,0.0377,-0.0018,0.9991,0.27,-1.57,1.77,0.0,0.0,0.0,0.94644,-0.003052,-0.041627,-0.320139,0.0,0.0,0.0,0,0
2026-06-16 16:01:15.509,1688831,L_Hip,0.1156,-0.0769,0.9885,-4.16,4.51,2.96,1.53,30.0,-29.5,0.993194,-0.023347,-0.071932,0.088443,0.0,0.0,0.0,0,0
2026-06-16 16:01:15.510,1688672,R_Hip,0.0471,0.0069,0.9881,0.27,-1.57,1.78,-17.78,27.62,-33.16,0.94644,-0.003052,-0.041627,-0.320139,0.0,0.0,0.0,0,0
2026-06-16 16:01:15.512,1688784,L_Ankle,0.1085,0.009,0.9851,5.4,-0.84,-10.29,-16.06,9.71,-44.53,0.931974,0.04355,-0.059847,0.354808,0.0,0.0,0.0,0,0
2026-06-16 16:01:15.514,1688632,R_Ankle,0.0096,-0.0141,0.9995,0.77,-1.72,-0.47,-7.53,30.26,-29.81,0.092532,0.085513,0.030335,0.991546,0.0,0.0,0.0,0,0
2026-06-16 16:01:15.515,1688804,L_Ankle,0.1138,0.0144,0.9885,5.4,-0.84,-10.28,0.0,0.0,0.0,0.931974,0.04355,-0.059877,0.354808,0.0,0.0,0.0,0,0
2026-06-16 16:01:15.516,1688652,R_Ankle,0.0067,-0.0121,1.012,0.76,-1.74,-0.49,0.0,0.0,0.0,0.092502,0.085513,0.030366,0.991546,0.0,0.0,0.0,0,0
2026-06-16 16:01:15.518,1688824,L_Ankle,0.1094,0.0119,0.9813,5.39,-0.85,-10.29,-15.9,10.23,-45.04,0.931974,0.043519,-0.059847,0.354808,0.0,0.0,0.0,0,0
2026-06-16 16:01:15.521,1688672,R_Ankle,0.017,-0.0131,1.0053,0.77,-1.72,-0.48,-8.7,32.64,-30.31,0.092502,0.085482,0.030366,0.991546,0.0,0.0,0.0,0,0
2026-06-16 16:01:15.521,1688844,L_Ankle,0.1129,0.0144,0.9875,5.41,-0.86,-10.3,-15.87,9.53,-44.36,0.931974,0.04355,-0.059847,0.354808,0.0,0.0,0.0,0,0
2026-06-16 16:01:15.523,1688692,R_Ankle,0.0219,-0.024,0.9971,0.77,-1.73,-0.48,-7.7,31.39,-30.91,0.092502,0.085452,0.030366,0.991546,0.0,0.0,0.0,0,0
2026-06-16 16:01:15.525,1688794,L_Hip,0.1239,-0.0798,0.9832,-4.15,4.51,2.97,1.88,31.3,-28.34,0.993194,-0.023347,-0.071902,0.088443,0.0,0.0,0.0,0,0
2026-06-16 16:01:15.528,1688650,R_Shank,0.0345,-2.6436,1.0061,-0.07,-1.45,-8.43,-11.35,25.34,-23.25,0.901456,0.036195,-0.018006,0.430952,0.0,0.0,0.0,0,0
2026-06-16 16:01:15.529,1688814,L_Hip,0.1107,-0.0823,0.9774,-4.15,4.51,2.95,1.69,29.52,-29.35,0.993194,-0.023347,-0.071871,0.088443,0.0,0.0,0.0,0,0
2026-06-16 16:01:15.532,1688670,R_Shank,0.0414,-2.3844,1.0186,-0.09,-1.47,-8.41,-12.7,25.36,-23.54,0.901456,0.036195,-0.018006,0.430952,0.0,0.0,0.0,0,0
2026-06-16 16:01:15.532,1688834,L_Hip,0.1151,-0.0739,0.989,-4.16,4.5,2.97,0.0,0.0,0.0,0.993194,-0.023347,-0.071871,0.088443,0.0,0.0,0.0,0,0
2026-06-16 16:01:15.535,1688690,R_Shank,0.0434,-1.232,1.0023,-0.09,-1.47,-8.44,0.0,0.0,0.0,0.901456,0.036195,-0.018006,0.430952,0.0,0.0,0.0,0,0
2026-06-16 16:01:15.535,1688854,L_Hip,0.1161,-0.073,0.9798,-4.16,4.52,2.98,1.17,29.03,-28.91,0.993194,-0.023347,-0.071871,0.088443,0.0,0.0,0.0,0,0
2026-06-16 16:01:15.539,1688806,L_Ankle,0.1143,0.0129,0.987,5.41,-0.85,-10.29,-16.42,9.71,-45.22,0.931974,0.04355,-0.059847,0.354808,0.0,0.0,0.0,0,0
2026-06-16 16:01:15.540,1688710,R_Shank,0.0419,-2.514,1.008,-0.09,-1.47,-8.43,-12.02,26.01,-24.44,0.901456,0.036195,-0.018006,0.430952,0.0,0.0,0.0,0,0
2026-06-16 16:01:15.543,1688662,R_Hip,0.0397,0.0206,0.9958,0.26,-1.58,1.79,-18.32,27.07,-32.65,0.94644,-0.003052,-0.041627,-0.320139,0.0,0.0,0.0,0,0
2026-06-16 16:01:15.544,1688826,L_Ankle,0.1153,0.0056,0.9808,5.41,-0.85,-10.29,-15.55,9.87,-45.71,0.931974,0.04358,-0.059847,0.354808,0.0,0.0,0.0,0,0
2026-06-16 16:01:15.546,1688682,R_Hip,0.0451,0.0123,0.9967,0.27,-1.58,1.79,-17.96,27.44,-31.62,0.94644,-0.003052,-0.041658,-0.320139,0.0,0.0,0.0,0,0
2026-06-16 16:01:15.547,1688846,L_Ankle,0.1158,0.0153,0.9938,5.39,-0.85,-10.29,0.0,0.0,0.0,0.931974,0.04358,-0.059877,0.354808,0.0,0.0,0.0,0,0
2026-06-16 16:01:15.550,1688702,R_Hip,0.0422,-0.0003,0.9828,0.26,-1.58,1.77,0.0,0.0,0.0,0.94644,-0.003052,-0.041658,-0.320139,0.0,0.0,0.0,0,0
2026-06-16 16:01:15.550,1688866,L_Ankle,0.1148,0.0168,0.9885,5.4,-0.84,-10.29,-16.78,10.42,-45.56,0.931974,0.04355,-0.059877,0.354808,0.0,0.0,0.0,0,0
2026-06-16 16:01:15.553,1688722,R_Hip,0.0441,0.0132,0.9842,0.25,-1.58,1.78,-18.87,25.43,-32.13,0.94644,-0.003052,-0.041658,-0.320139,0.0,0.0,0.0,0,0
2026-06-16 16:01:15.553,1688811,L_Shank,0.0169,-0.0434,0.9858,1.78,-1.25,-0.16,-12.14,13.68,-26.81,0.997742,-0.016663,-0.031587,0.056429,0.0,0.0,0.0,0,0
2026-06-16 16:01:15.557,1688678,R_Ankle,0.0155,-0.0166,1.0105,0.76,-1.74,-0.49,-7.69,30.09,-29.04,0.092502,0.085482,0.030366,0.991546,0.0,0.0,0.0,0,0
2026-06-16 16:01:15.558,1688831,L_Shank,0.0111,-0.0288,0.9988,1.78,-1.25,-0.19,-11.62,14.19,-26.66,0.997742,-0.016633,-0.031587,0.056429,0.0,0.0,0.0,0,0
2026-06-16 16:01:15.560,1688698,R_Ankle,0.014,-0.0101,0.999,0.76,-1.73,-0.48,0.0,0.0,0.0,0.092502,0.085482,0.030366,0.991546,0.0,0.0,0.0,0,0
2026-06-16 16:01:15.561,1688851,L_Shank,0.0184,-0.0425,0.9815,1.77,-1.25,-0.17,0.0,0.0,0.0,0.997742,-0.016633,-0.031587,0.056429,0.0,0.0,0.0,0,0
2026-06-16 16:01:15.564,1688871,L_Shank,0.0057,-0.0439,0.9844,1.8,-1.24,-0.18,-11.08,14.71,-27.76,0.997742,-0.016633,-0.031587,0.056429,0.0,0.0,0.0,0,0
2026-06-16 16:01:15.565,1688718,R_Ankle,0.0111,-0.0161,1.0091,0.76,-1.71,-0.49,-8.39,29.46,-29.97,0.092502,0.085482,0.030335,0.991546,0.0,0.0,0.0,0,0
2026-06-16 16:01:15.567,1688816,L_Hip,0.1298,-0.0838,0.9924,-4.15,4.5,2.97,0.67,29.5,-29.04,0.993194,-0.023377,-0.071871,0.088443,0.0,0.0,0.0,0,0
2026-06-16 16:01:15.569,1688738,R_Ankle,0.0165,-0.0166,1.0081,0.75,-1.72,-0.5,-9.4,31.37,-30.31,0.092502,0.085452,0.030335,0.991546,0.0,0.0,0.0,0,0
2026-06-16 16:01:15.571,1688836,L_Hip,0.1048,-0.0818,0.987,-4.16,4.5,2.96,0.34,30.14,-28.46,0.993194,-0.023347,-0.071871,0.088443,0.0,0.0,0.0,0,0
2026-06-16 16:01:15.572,1688695,R_Shank,0.0438,0.9572,1.008,-0.09,-1.47,-8.42,-11.69,25.67,-23.85,0.901456,0.036195,-0.018006,0.430952,0.0,0.0,0.0,0,0
2026-06-16 16:01:15.574,1688856,L_Hip,0.1161,-0.0784,0.9933,-4.16,4.51,2.99,0.0,0.0,0.0,0.993194,-0.023377,-0.071841,0.088443,0.0,0.0,0.0,0,0
2026-06-16 16:01:15.575,1688715,R_Shank,0.0434,-1.232,1.009,-0.09,-1.47,-8.41,-12.2,25.2,-22.79,0.901456,0.036195,-0.018006,0.430952,0.0,0.0,0.0,0,0
2026-06-16 16:01:15.577,1688876,L_Hip,0.1205,-0.0739,0.9837,-4.16,4.51,2.97,0.68,30.79,-27.89,0.993194,-0.023377,-0.071841,0.088443,0.0,0.0,0.0,0,0
2026-06-16 16:01:15.578,1688735,R_Shank,0.0453,1.728,1.022,-0.08,-1.48,-8.43,0.0,0.0,0.0,0.901456,0.036225,-0.018036,0.430952,0.0,0.0,0.0,0,0
2026-06-16 16:01:15.580,1688836,L_Shank,0.0194,-0.0317,0.9974,1.77,-1.24,-0.19,-11.45,15.71,-26.22,0.997742,-0.016633,-0.031587,0.056459,0.0,0.0,0.0,0,0
2026-06-16 16:01:15.581,1688755,R_Shank,0.0463,0.0572,1.0253,-0.09,-1.47,-8.43,-11.87,26.17,-23.69,0.901456,0.036195,-0.018036,0.430952,0.0,0.0,0.0,0,0
2026-06-16 16:01:15.583,1688700,R_Ankle,0.0081,-0.0081,1.0096,0.76,-1.72,-0.49,-8.71,31.04,-29.37,0.092502,0.085452,0.030305,0.991546,0.0,0.0,0.0,0,0
2026-06-16 16:01:15.583,1688856,L_Shank,0.0081,-0.0434,0.9911,1.77,-1.25,-0.17,-11.97,14.53,-26.66,0.997742,-0.016633,-0.031587,0.056429,0.0,0.0,0.0,0,0
2026-06-16 16:01:15.586,1688720,R_Ankle,0.0121,-0.0032,0.9962,0.76,-1.73,-0.48,0.0,0.0,0.0,0.092502,0.085452,0.030335,0.991546,0.0,0.0,0.0,0,0
2026-06-16 16:01:15.586,1688876,L_Shank,0.016,-0.0464,0.9902,1.78,-1.24,-0.18,0.0,0.0,0.0,0.997742,-0.016633,-0.031587,0.056459,0.0,0.0,0.0,0,0
2026-06-16 16:01:15.588,1688740,R_Ankle,0.0062,-0.0161,0.9947,0.77,-1.74,-0.5,-8.38,31.06,-30.29,0.092502,0.085421,0.030335,0.991546,0.0,0.0,0.0,0,0
2026-06-16 16:01:15.589,1688896,L_Shank,0.0067,-0.0434,0.9849,1.77,-1.25,-0.16,-10.56,13.86,-27.6,0.997742,-0.016663,-0.031587,0.056429,0.0,0.0,0.0,0,0
2026-06-16 16:01:15.590,1688760,R_Ankle,0.0175,-0.0126,1.011,0.77,-1.71,-0.49,-8.7,31.36,-29.38,0.092502,0.085421,0.030335,0.991546,0.0,0.0,0.0,0,0
2026-06-16 16:01:15.592,1688712,R_Hip,0.0461,0.0049,0.9693,0.26,-1.57,1.77,-17.77,26.16,-32.47,0.94644,-0.003052,-0.041658,-0.320139,0.0,0.0,0.0,0,0
2026-06-16 16:01:15.594,1688732,R_Hip,0.0466,-0.0052,1.0035,0.28,-1.58,1.78,-18.87,26.89,-32.47,0.94644,-0.003082,-0.041627,-0.320139,0.0,0.0,0.0,0,0
2026-06-16 16:01:15.596,1688752,R_Hip,0.0466,0.0064,0.9837,0.26,-1.58,1.79,0.0,0.0,0.0,0.94644,-0.003082,-0.041658,-0.320139,0.0,0.0,0.0,0,0
2026-06-16 16:01:15.598,1688873,L_Ankle,0.1241,0.0163,0.9712,5.4,-0.85,-10.3,-15.85,8.11,-44.36,0.931974,0.04355,-0.059908,0.354808,0.0,0.0,0.0,0,0
2026-06-16 16:01:15.599,1688772,R_Hip,0.0456,0.0079,0.9991,0.29,-1.59,1.78,-19.24,27.26,-33.16,0.94644,-0.003113,-0.041658,-0.320109,0.0,0.0,0.0,0,0
2026-06-16 16:01:15.600,1688893,L_Ankle,0.1134,0.0188,0.9837,5.41,-0.83,-10.29,-16.59,9.18,-45.39,0.931974,0.04355,-0.059877,0.354808,0.0,0.0,0.0,0,0
2026-06-16 16:01:15.601,1688717,R_Shank,0.0365,-0.0724,1.0143,-0.09,-1.47,-8.44,-11.87,25.52,-22.79,0.901456,0.036225,-0.018067,0.430952,0.0,0.0,0.0,0,0
2026-06-16 16:01:15.604,1688913,L_Ankle,0.1114,0.0153,0.9885,5.41,-0.85,-10.29,0.0,0.0,0.0,0.931974,0.04355,-0.059877,0.354808,0.0,0.0,0.0,0,0
2026-06-16 16:01:15.605,1688737,R_Shank,0.0458,-0.8432,1.0095,-0.1,-1.47,-8.41,-10.7,26.0,-22.65,0.901456,0.036195,-0.018067,0.430952,0.0,0.0,0.0,0,0
2026-06-16 16:01:15.607,1688933,L_Ankle,0.1168,0.0085,0.9938,5.41,-0.84,-10.29,-15.01,9.69,-44.51,0.931974,0.043519,-0.059847,0.354808,0.0,0.0,0.0,0,0
2026-06-16 16:01:15.608,1688757,R_Shank,0.036,-0.9728,0.996,-0.07,-1.45,-8.43,0.0,0.0,0.0,0.901456,0.036195,-0.018067,0.430952,0.0,0.0,0.0,0,0
2026-06-16 16:01:15.609,1688884,L_Hip,0.1244,-0.0779,0.9938,-4.16,4.51,2.96,-0.31,30.45,-29.03,0.993194,-0.023408,-0.071841,0.088443,0.0,0.0,0.0,0,0
2026-06-16 16:01:15.610,1688777,R_Shank,0.034,0.9572,1.0071,-0.08,-1.45,-8.43,-12.03,25.03,-22.34,0.901456,0.036195,-0.018067,0.430952,0.0,0.0,0.0,0,0
2026-06-16 16:01:15.612,1688904,L_Hip,0.1279,-0.0749,0.9866,-4.16,4.51,2.97,1.21,30.32,-29.78,0.993194,-0.023408,-0.071841,0.088473,0.0,0.0,0.0,0,0
2026-06-16 16:01:15.613,1688737,R_Hip,0.051,0.001,0.9905,0.25,-1.58,1.79,-19.05,27.08,-32.65,0.94644,-0.003113,-0.041658,-0.320109,0.0,0.0,0.0,0,0
2026-06-16 16:01:15.614,1688924,L_Hip,0.1102,-0.0808,0.9866,-4.17,4.51,2.98,0.0,0.0,0.0,0.993194,-0.023408,-0.071841,0.088473,0.0,0.0,0.0,0,0
2026-06-16 16:01:15.616,1688757,R_Hip,0.052,-0.0003,0.9808,0.28,-1.57,1.78,-19.78,27.07,-31.62,0.94644,-0.003113,-0.041658,-0.320109,0.0,0.0,0.0,0,0
2026-06-16 16:01:15.617,1688944,L_Hip,0.1244,-0.0759,0.99,-4.15,4.5,2.99,0.68,29.5,-29.63,0.993194,-0.023377,-0.071841,0.088443,0.0,0.0,0.0,0,0
2026-06-16 16:01:15.618,1688777,R_Hip,0.0461,0.004,0.9909,0.29,-1.58,1.8,0.0,0.0,0.0,0.94644,-0.003143,-0.041688,-0.320109,0.0,0.0,0.0,0,0
2026-06-16 16:01:15.620,1688797,R_Hip,0.0397,0.004,0.9982,0.28,-1.56,1.78,-18.69,26.71,-32.3,0.94644,-0.003143,-0.041688,-0.320078,0.0,0.0,0.0,0,0
2026-06-16 16:01:15.621,1688896,L_Ankle,0.1148,0.0124,0.9875,5.39,-0.85,-10.28,-15.68,8.99,-43.85,0.931974,0.043519,-0.059847,0.354808,0.0,0.0,0.0,0,0
2026-06-16 16:01:15.623,1688740,R_Shank,0.0326,-0.8432,1.009,-0.07,-1.47,-8.42,-11.51,24.85,-23.1,0.901456,0.036195,-0.018067,0.430952,0.0,0.0,0.0,0,0
2026-06-16 16:01:15.624,1688916,L_Ankle,0.1143,0.0139,0.9938,5.41,-0.85,-10.3,-15.71,9.34,-44.87,0.931974,0.04355,-0.059847,0.354808,0.0,0.0,0.0,0,0
2026-06-16 16:01:15.625,1688760,R_Shank,0.0335,2.2392,0.9975,-0.09,-1.46,-8.42,0.0,0.0,0.0,0.901456,0.036164,-0.018036,0.430952,0.0,0.0,0.0,0,0
2026-06-16 16:01:15.626,1688897,L_Ankle,0.1197,0.0149,0.988,5.41,-0.84,-10.29,0.0,0.0,0.0,0.931974,0.043519,-0.059847,0.354808,0.0,0.0,0.0,0,0
2026-06-16 16:01:15.628,1688780,R_Shank,0.0306,3.01,0.997,-0.07,-1.46,-8.44,-11.7,25.68,-22.94,0.901456,0.036164,-0.018006,0.430952,0.0,0.0,0.0,0,0
2026-06-16 16:01:15.629,1688917,L_Ankle,0.1138,0.0241,0.9909,5.4,-0.85,-10.29,-15.19,10.22,-44.68,0.931974,0.043519,-0.059816,0.354808,0.0,0.0,0.0,0,0
2026-06-16 16:01:15.631,1688800,R_Shank,0.0409,0.698,1.0133,-0.09,-1.45,-8.43,-11.36,26.0,-23.55,0.901456,0.036164,-0.017975,0.430952,0.0,0.0,0.0,0,0
2026-06-16 16:01:15.631,1688906,L_Hip,0.1038,-0.0793,0.9909,-4.16,4.5,2.96,0.68,29.82,-29.05,0.993194,-0.023377,-0.071871,0.088473,0.0,0.0,0.0,0,0
2026-06-16 16:01:15.634,1688926,L_Hip,0.1264,-0.0725,0.9924,-4.16,4.51,2.97,1.68,28.88,-29.64,0.993194,-0.023377,-0.071871,0.088473,0.0,0.0,0.0,0,0
2026-06-16 16:01:15.634,1688745,R_Ankle,0.0106,-0.0062,1.0101,0.75,-1.72,-0.48,-7.67,32.0,-28.76,0.092502,0.085421,0.030335,0.991546,0.0,0.0,0.0,0,0
2026-06-16 16:01:15.636,1688765,R_Ankle,0.0106,-0.0131,1.0024,0.76,-1.72,-0.49,0.0,0.0,0.0,0.092502,0.085421,0.030335,0.991546,0.0,0.0,0.0,0,0
2026-06-16 16:01:15.636,1688907,L_Hip,0.1244,-0.0789,0.9778,-4.16,4.5,2.96,1.85,29.04,-29.5,0.993194,-0.023377,-0.071902,0.088473,0.0,0.0,0.0,0,0
2026-06-16 16:01:15.638,1688927,L_Hip,0.1161,-0.0784,0.9929,-4.16,4.52,2.97,0.0,0.0,0.0,0.993194,-0.023408,-0.071902,0.088473,0.0,0.0,0.0,0,0
2026-06-16 16:01:15.639,1688785,R_Ankle,0.0135,-0.0101,1.0187,0.76,-1.72,-0.49,-9.39,30.72,-29.38,0.092502,0.085421,0.030335,0.991546,0.0,0.0,0.0,0,0
2026-06-16 16:01:15.641,1688911,L_Shank,0.013,-0.043,0.9825,1.77,-1.23,-0.17,-11.61,14.88,-27.6,0.997742,-0.016663,-0.031556,0.056459,0.0,0.0,0.0,0,0
2026-06-16 16:01:15.641,1688805,R_Ankle,0.0135,-0.0176,1.0091,0.75,-1.74,-0.5,-8.71,32.0,-30.0,0.092502,0.085391,0.030366,0.991546,0.0,0.0,0.0,0,0
2026-06-16 16:01:15.644,1688931,L_Shank,0.0101,-0.041,0.9988,1.77,-1.25,-0.16,-11.09,14.7,-27.14,0.997742,-0.016633,-0.031526,0.056459,0.0,0.0,0.0,0,0
2026-06-16 16:01:15.644,1688767,R_Ankle,0.0219,-0.0057,0.9866,0.77,-1.72,-0.5,-8.21,31.22,-30.45,0.092532,0.085391,0.030335,0.991546,0.0,0.0,0.0,0,0
2026-06-16 16:01:15.646,1688787,R_Ankle,0.014,-0.0101,1.0067,0.77,-1.72,-0.49,0.0,0.0,0.0,0.092532,0.085391,0.030335,0.991546,0.0,0.0,0.0,0,0
2026-06-16 16:01:15.647,1688951,L_Shank,0.0076,-0.0385,0.9858,1.77,-1.25,-0.17,0.0,0.0,0.0,0.997742,-0.016633,-0.031556,0.056459,0.0,0.0,0.0,0,0
2026-06-16 16:01:15.649,1688807,R_Ankle,0.0175,-0.0086,1.0062,0.77,-1.74,-0.49,-8.53,31.52,-29.22,0.092532,0.085421,0.030335,0.991546,0.0,0.0,0.0,0,0
2026-06-16 16:01:15.650,1688971,L_Shank,0.0169,-0.0425,0.9849,1.77,-1.22,-0.19,-10.56,15.56,-27.93,0.997742,-0.016633,-0.031526,0.056459,0.0,0.0,0.0,0,0
2026-06-16 16:01:15.651,1688827,R_Ankle,0.0096,-0.0101,0.9976,0.76,-1.74,-0.49,-8.36,32.0,-29.69,0.092532,0.085421,0.030335,0.991546,0.0,0.0,0.0,0,0
2026-06-16 16:01:15.653,1688786,R_Shank,0.0375,1.0868,1.0172,-0.08,-1.46,-8.42,-12.05,26.35,-22.63,0.901456,0.036164,-0.017975,0.430952,0.0,0.0,0.0,0,0
2026-06-16 16:01:15.656,1688806,R_Shank,0.0414,2.4984,1.009,-0.09,-1.47,-8.44,0.0,0.0,0.0,0.901456,0.036164,-0.017945,0.430952,0.0,0.0,0.0,0,0
2026-06-16 16:01:15.658,1688826,R_Shank,0.0473,-2.0024,1.009,-0.09,-1.47,-8.43,-11.69,25.02,-22.95,0.901456,0.036134,-0.017975,0.430952,0.0,0.0,0.0,0,0
2026-06-16 16:01:15.660,1688846,R_Shank,0.038,-2.514,1.0119,-0.08,-1.47,-8.44,-11.7,26.34,-23.54,0.901456,0.036164,-0.018006,0.430952,0.0,0.0,0.0,0,0
2026-06-16 16:01:15.661,1688936,L_Shank,0.0101,-0.0405,0.9945,1.77,-1.25,-0.17,-11.44,14.7,-26.83,0.997742,-0.016602,-0.031526,0.056459,0.0,0.0,0.0,0,0
2026-06-16 16:01:15.663,1688788,R_Hip,0.0496,-0.0003,0.9861,0.27,-1.58,1.77,-18.14,27.62,-32.13,0.94644,-0.003113,-0.041688,-0.320078,0.0,0.0,0.0,0,0
2026-06-16 16:01:15.664,1688956,L_Shank,0.0135,-0.0415,0.9825,1.78,-1.25,-0.17,-10.39,14.37,-27.76,0.997742,-0.016602,-0.031495,0.056459,0.0,0.0,0.0,0,0
2026-06-16 16:01:15.666,1688808,R_Hip,0.0427,0.0162,0.9847,0.28,-1.57,1.8,-17.78,26.53,-32.81,0.94644,-0.003143,-0.041688,-0.320078,0.0,0.0,0.0,0,0
2026-06-16 16:01:15.667,1688976,L_Shank,0.0135,-0.0464,0.9897,1.77,-1.24,-0.19,-11.6,14.21,-28.22,0.997742,-0.016602,-0.031495,0.056459,0.0,0.0,0.0,0,0
2026-06-16 16:01:15.669,1688828,R_Hip,0.0476,0.0142,1.0126,0.28,-1.57,1.79,0.0,0.0,0.0,0.94644,-0.003143,-0.041688,-0.320078,0.0,0.0,0.0,0,0
2026-06-16 16:01:15.669,1688996,L_Shank,0.012,-0.0293,0.9868,1.77,-1.25,-0.19,0.0,0.0,0.0,0.997742,-0.016572,-0.031495,0.056459,0.0,0.0,0.0,0,0
2026-06-16 16:01:15.671,1688848,R_Hip,0.0417,0.0079,1.0073,0.26,-1.58,1.8,-16.31,27.98,-30.76,0.94644,-0.003143,-0.041719,-0.320078,0.0,0.0,0.0,0,0
2026-06-16 16:01:15.672,1688941,L_Ankle,0.1173,0.0173,1.0029,5.39,-0.84,-10.29,-15.87,10.59,-43.34,0.931974,0.04355,-0.059816,0.354808,0.0,0.0,0.0,0,0
2026-06-16 16:01:15.674,1688790,R_Ankle,0.0233,-0.0037,0.9995,0.76,-1.72,-0.49,-9.38,31.03,-28.76,0.092532,0.085421,0.030366,0.991546,0.0,0.0,0.0,0,0
2026-06-16 16:01:15.675,1688961,L_Ankle,0.1232,0.0149,0.9894,5.41,-0.86,-10.29,-15.88,8.81,-45.38,0.931974,0.04355,-0.059847,0.354808,0.0,0.0,0.0,0,0
2026-06-16 16:01:15.676,1688810,R_Ankle,0.0116,-0.0047,1.0091,0.75,-1.71,-0.48,0.0,0.0,0.0,0.092532,0.085421,0.030366,0.991546,0.0,0.0,0.0,0,0
2026-06-16 16:01:15.677,1688981,L_Ankle,0.1222,0.0192,0.9856,5.4,-0.85,-10.3,0.0,0.0,0.0,0.931974,0.04355,-0.059816,0.354808,0.0,0.0,0.0,0,0
2026-06-16 16:01:15.679,1688830,R_Ankle,0.013,-0.0111,1.0077,0.75,-1.72,-0.49,-9.36,33.25,-28.79,0.092502,0.085421,0.030366,0.991546,0.0,0.0,0.0,0,0
2026-06-16 16:01:15.680,1688942,L_Ankle,0.1163,0.0129,0.9909,5.4,-0.86,-10.3,-16.9,8.84,-43.36,0.931974,0.04355,-0.059816,0.354808,0.0,0.0,0.0,0,0
2026-06-16 16:01:15.682,1688850,R_Ankle,0.0116,-0.0116,1.0096,0.77,-1.74,-0.48,-9.03,31.99,-28.77,0.092532,0.085421,0.030366,0.991546,0.0,0.0,0.0,0,0
2026-06-16 16:01:15.683,1688951,L_Hip,0.1156,-0.071,0.9866,-4.16,4.49,2.98,0.81,28.7,-28.32,0.993194,-0.023377,-0.071902,0.088473,0.0,0.0,0.0,0,0
2026-06-16 16:01:15.685,1688812,R_Hip,0.0471,0.0049,0.9751,0.26,-1.58,1.77,-19.78,28.9,-32.31,0.94644,-0.003174,-0.041688,-0.320078,0.0,0.0,0.0,0,0
2026-06-16 16:01:15.686,1688952,L_Hip,0.1288,-0.0833,0.9808,-4.16,4.5,2.97,2.03,30.17,-28.78,0.993194,-0.023408,-0.071902,0.088473,0.0,0.0,0.0,0,0
2026-06-16 16:01:15.688,1688832,R_Hip,0.0471,0.001,1.003,0.26,-1.58,1.8,-18.32,26.71,-32.99,0.94644,-0.003143,-0.041688,-0.320078,0.0,0.0,0.0,0,0
2026-06-16 16:01:15.689,1688972,L_Hip,0.1107,-0.0754,0.9841,-4.16,4.51,2.99,0.35,29.5,-29.62,0.993194,-0.023408,-0.071902,0.088473,0.0,0.0,0.0,0,0
2026-06-16 16:01:15.690,1688852,R_Hip,0.0431,0.0035,0.9924,0.27,-1.58,1.77,0.0,0.0,0.0,0.94644,-0.003174,-0.041719,-0.320078,0.0,0.0,0.0,0,0
2026-06-16 16:01:15.691,1688992,L_Hip,0.1102,-0.0764,0.9929,-4.14,4.51,2.96,0.0,0.0,0.0,0.993194,-0.023408,-0.071902,0.088473,0.0,0.0,0.0,0,0
2026-06-16 16:01:15.693,1688872,R_Hip,0.0486,0.003,0.9905,0.28,-1.58,1.78,-18.51,27.26,-32.82,0.94644,-0.003174,-0.041688,-0.320078,0.0,0.0,0.0,0,0
2026-06-16 16:01:15.694,1688961,L_Shank,0.0199,-0.04,0.9906,1.77,-1.25,-0.17,-10.39,14.03,-27.45,0.997742,-0.016602,-0.031495,0.056459,0.0,0.0,0.0,0,0
2026-06-16 16:01:15.696,1688830,R_Shank,0.0404,1.4688,1.0018,-0.08,-1.45,-8.41,-11.53,26.17,-24.0,0.901456,0.036164,-0.018006,0.430952,0.0,0.0,0.0,0,0
2026-06-16 16:01:15.697,1688981,L_Shank,0.0072,-0.0464,0.9695,1.77,-1.25,-0.16,-10.23,15.2,-26.07,0.997742,-0.016572,-0.031465,0.056459,0.0,0.0,0.0,0,0
2026-06-16 16:01:15.699,1688850,R_Shank,0.035,1.728,1.0138,-0.08,-1.46,-8.41,0.0,0.0,0.0,0.901456,0.036164,-0.017975,0.430952,0.0,0.0,0.0,0,0
2026-06-16 16:01:15.699,1689001,L_Shank,0.0164,-0.0356,0.9873,1.77,-1.25,-0.18,0.0,0.0,0.0,0.997742,-0.016572,-0.031465,0.056459,0.0,0.0,0.0,0,0
2026-06-16 16:01:15.701,1689021,L_Shank,0.0072,-0.0371,0.9897,1.77,-1.25,-0.16,-10.91,15.9,-27.62,0.997742,-0.016602,-0.031434,0.05649,0.0,0.0,0.0,0,0
2026-06-16 16:01:15.702,1688870,R_Shank,0.0311,0.698,1.009,-0.06,-1.46,-8.43,-12.23,26.2,-21.88,0.901456,0.036134,-0.017975,0.430952,0.0,0.0,0.0,0,0
2026-06-16 16:01:15.704,1688964,L_Ankle,0.1237,0.0129,0.9914,5.4,-0.84,-10.29,-15.35,8.27,-45.54,0.931974,0.04358,-0.059816,0.354808,0.0,0.0,0.0,0,0
2026-06-16 16:01:15.704,1688890,R_Shank,0.0434,3.01,1.0032,-0.07,-1.46,-8.42,-11.16,24.18,-23.11,0.901456,0.036164,-0.017945,0.430952,0.0,0.0,0.0,0,0
2026-06-16 16:01:15.707,1688984,L_Ankle,0.1094,0.0197,0.9894,5.41,-0.84,-10.29,-16.56,8.83,-44.37,0.931974,0.04355,-0.059816,0.354808,0.0,0.0,0.0,0,0
2026-06-16 16:01:15.707,1688835,R_Ankle,0.017,-0.0096,1.0067,0.76,-1.74,-0.48,-9.06,31.37,-30.61,0.092502,0.085421,0.030366,0.991546,0.0,0.0,0.0,0,0
2026-06-16 16:01:15.709,1688855,R_Ankle,0.0175,-0.0096,1.0091,0.77,-1.73,-0.48,0.0,0.0,0.0,0.092502,0.085421,0.030366,0.991546,0.0,0.0,0.0,0,0
2026-06-16 16:01:15.710,1689004,L_Ankle,0.1129,0.0227,0.9813,5.41,-0.83,-10.29,-16.42,10.42,-44.88,0.931974,0.04355,-0.059816,0.354808,0.0,0.0,0.0,0,0
2026-06-16 16:01:15.712,1689024,L_Ankle,0.1153,0.0192,0.9726,5.39,-0.84,-10.3,0.0,0.0,0.0,0.931974,0.04355,-0.059816,0.354808,0.0,0.0,0.0,0,0
2026-06-16 16:01:15.712,1688875,R_Ankle,0.013,-0.0181,1.011,0.76,-1.74,-0.49,-8.87,31.83,-28.92,0.092502,0.085452,0.030366,0.991546,0.0,0.0,0.0,0,0
2026-06-16 16:01:15.714,1688895,R_Ankle,0.0184,-0.02,1.0019,0.75,-1.73,-0.48,-8.22,29.95,-30.43,0.092502,0.085452,0.030366,0.991546,0.0,0.0,0.0,0,0
2026-06-16 16:01:15.720,1688862,R_Hip,0.0491,0.0069,1.001,0.26,-1.58,1.78,-17.59,27.07,-31.62,0.94644,-0.003174,-0.041719,-0.320078,0.0,0.0,0.0,0,0
2026-06-16 16:01:15.721,1688996,L_Hip,0.1151,-0.072,0.9778,-4.18,4.51,2.98,2.38,30.5,-29.07,0.993194,-0.023408,-0.071932,0.088473,0.0,0.0,0.0,0,0
2026-06-16 16:01:15.723,1688882,R_Hip,0.0436,0.0079,0.9982,0.27,-1.58,1.79,-18.87,26.16,-32.13,0.94644,-0.003174,-0.041719,-0.320078,0.0,0.0,0.0,0,0
2026-06-16 16:01:15.723,1689016,L_Hip,0.1122,-0.0818,0.988,-4.16,4.5,2.96,0.52,29.66,-29.48,0.993194,-0.023408,-0.071902,0.088473,0.0,0.0,0.0,0,0
2026-06-16 16:01:15.725,1688902,R_Hip,0.0481,0.001,0.9962,0.27,-1.58,1.79,0.0,0.0,0.0,0.94644,-0.003174,-0.041719,-0.320048,0.0,0.0,0.0,0,0
2026-06-16 16:01:15.727,1689036,L_Hip,0.1185,-0.072,0.9929,-4.16,4.51,2.97,0.87,30.31,-29.49,0.993194,-0.023438,-0.071902,0.088473,0.0,0.0,0.0,0,0
2026-06-16 16:01:15.728,1688922,R_Hip,0.0491,-0.0003,0.9962,0.27,-1.56,1.75,-19.6,27.25,-31.11,0.94644,-0.003174,-0.041719,-0.320048,0.0,0.0,0.0,0,0
2026-06-16 16:01:15.729,1689056,L_Hip,0.119,-0.0789,0.9764,-4.16,4.51,2.97,0.85,29.99,-28.9,0.993194,-0.023408,-0.071902,0.088473,0.0,0.0,0.0,0,0
2026-06-16 16:01:15.733,1688875,R_Shank,0.036,-2.0024,1.0028,-0.08,-1.45,-8.43,-11.03,25.67,-22.65,0.901425,0.036195,-0.017945,0.430952,0.0,0.0,0.0,0,0
2026-06-16 16:01:15.733,1689009,L_Ankle,0.1178,0.0105,0.9842,5.39,-0.85,-10.3,-15.87,9.17,-44.7,0.931974,0.04355,-0.059816,0.354808,0.0,0.0,0.0,0,0
2026-06-16 16:01:15.735,1688895,R_Shank,0.0448,-2.6436,1.0253,-0.09,-1.46,-8.45,0.0,0.0,0.0,0.901425,0.036164,-0.017975,0.430982,0.0,0.0,0.0,0,0
2026-06-16 16:01:15.736,1689029,L_Ankle,0.1163,0.0212,0.9861,5.4,-0.86,-10.29,-15.04,9.68,-46.21,0.931974,0.04355,-0.059816,0.354808,0.0,0.0,0.0,0,0
2026-06-16 16:01:15.738,1688915,R_Shank,0.0424,-2.7732,1.0071,-0.09,-1.46,-8.43,-11.4,27.01,-22.03,0.901425,0.036195,-0.017945,0.430952,0.0,0.0,0.0,0,0
2026-06-16 16:01:15.739,1689049,L_Ankle,0.1114,0.0124,0.9837,5.4,-0.86,-10.29,-16.74,9.01,-44.55,0.931974,0.04355,-0.059816,0.354808,0.0,0.0,0.0,0,0
2026-06-16 16:01:15.741,1688935,R_Shank,0.0375,-1.6136,1.0119,-0.08,-1.46,-8.43,-12.02,25.02,-23.55,0.901425,0.036195,-0.017945,0.430982,0.0,0.0,0.0,0,0
2026-06-16 16:01:15.741,1689069,L_Ankle,0.1266,0.0188,0.9933,5.39,-0.83,-10.3,0.0,0.0,0.0,0.931974,0.04358,-0.059816,0.354808,0.0,0.0,0.0,0,0
2026-06-16 16:01:15.744,1688880,R_Ankle,0.0175,-0.0161,1.0034,0.77,-1.73,-0.5,-7.51,31.53,-29.52,0.092502,0.085482,0.030335,0.991546,0.0,0.0,0.0,0,0
2026-06-16 16:01:15.744,1689011,L_Shank,0.0204,-0.0425,0.9878,1.77,-1.25,-0.19,-9.17,15.56,-27.64,0.997742,-0.016602,-0.031404,0.05649,0.0,0.0,0.0,0,0
2026-06-16 16:01:15.746,1688900,R_Ankle,0.017,-0.0022,1.0034,0.77,-1.74,-0.48,0.0,0.0,0.0,0.092502,0.085482,0.030335,0.991546,0.0,0.0,0.0,0,0
2026-06-16 16:01:15.747,1689031,L_Shank,0.0169,-0.04,0.981,1.79,-1.24,-0.17,-9.01,14.69,-25.91,0.997742,-0.016602,-0.031404,0.05649,0.0,0.0,0.0,0,0
2026-06-16 16:01:15.749,1688920,R_Ankle,0.017,-0.0121,0.9866,0.74,-1.74,-0.48,-8.53,32.48,-29.54,0.092502,0.085452,0.030335,0.991546,0.0,0.0,0.0,0,0
2026-06-16 16:01:15.749,1689051,L_Shank,0.015,-0.041,0.9858,1.77,-1.23,-0.17,-11.45,14.35,-26.51,0.997742,-0.016633,-0.031434,0.05649,0.0,0.0,0.0,0,0
2026-06-16 16:01:15.751,1688940,R_Ankle,0.0155,-0.0131,1.0072,0.77,-1.72,-0.5,-10.24,31.52,-30.16,0.092502,0.085482,0.030335,0.991546,0.0,0.0,0.0,0,0
2026-06-16 16:01:15.752,1689071,L_Shank,0.012,-0.0513,0.983,1.78,-1.25,-0.16,0.0,0.0,0.0,0.997742,-0.016633,-0.031404,0.05649,0.0,0.0,0.0,0,0
2026-06-16 16:01:15.754,1689019,L_Hip,0.1122,-0.0798,0.9793,-4.13,4.51,2.97,2.03,29.85,-29.07,0.993194,-0.023438,-0.071871,0.088473,0.0,0.0,0.0,0,0
2026-06-16 16:01:15.756,1688897,R_Shank,0.0404,-0.7136,1.0234,-0.09,-1.48,-8.43,-11.21,26.5,-23.09,0.901425,0.036164,-0.017975,0.430982,0.0,0.0,0.0,0,0
2026-06-16 16:01:15.757,1689039,L_Hip,0.1161,-0.0735,0.9764,-4.15,4.48,2.97,0.0,0.0,0.0,0.993194,-0.023408,-0.071871,0.088473,0.0,0.0,0.0,0,0
2026-06-16 16:01:15.759,1688917,R_Shank,0.0345,3.2692,0.9946,-0.09,-1.45,-8.43,0.0,0.0,0.0,0.901456,0.036134,-0.017975,0.430982,0.0,0.0,0.0,0,0
2026-06-16 16:01:15.759,1689059,L_Hip,0.1136,-0.0759,0.9764,-4.15,4.51,2.97,0.01,30.46,-28.75,0.993194,-0.023438,-0.071871,0.088473,0.0,0.0,0.0,0,0
2026-06-16 16:01:15.761,1689079,L_Hip,0.1166,-0.0685,0.987,-4.16,4.51,2.96,0.7,31.11,-28.76,0.993194,-0.023408,-0.071871,0.088473,0.0,0.0,0.0,0,0
2026-06-16 16:01:15.762,1688937,R_Shank,0.0492,-1.6136,1.0008,-0.09,-1.45,-8.41,-11.05,27.32,-23.24,0.901425,0.036134,-0.017945,0.430982,0.0,0.0,0.0,0,0
2026-06-16 16:01:15.764,1689036,L_Shank,0.016,-0.0332,0.9714,1.78,-1.24,-0.16,-11.79,13.01,-27.11,0.997742,-0.016663,-0.031404,0.05649,0.0,0.0,0.0,0,0
2026-06-16 16:01:15.765,1688957,R_Shank,0.0463,3.2692,1.0133,-0.08,-1.45,-8.42,-10.33,24.99,-23.57,0.901425,0.036134,-0.017975,0.430982,0.0,0.0,0.0,0,0
2026-06-16 16:01:15.767,1689056,L_Shank,0.015,-0.0366,0.9887,1.79,-1.25,-0.18,-10.91,14.54,-27.92,0.997742,-0.016633,-0.031373,0.056459,0.0,0.0,0.0,0,0
2026-06-16 16:01:15.769,1689076,L_Shank,0.012,-0.0337,0.9748,1.77,-1.25,-0.19,-11.26,14.2,-27.29,0.997742,-0.016633,-0.031373,0.056459,0.0,0.0,0.0,0,0
2026-06-16 16:01:15.770,1688912,R_Hip,0.0525,0.003,0.9871,0.27,-1.58,1.79,-18.51,27.26,-33.16,0.94644,-0.003174,-0.041688,-0.320048,0.0,0.0,0.0,0,0
2026-06-16 16:01:15.771,1689037,L_Shank,0.0169,-0.0415,0.9724,1.77,-1.25,-0.17,-10.21,14.55,-28.24,0.997742,-0.016633,-0.031373,0.05649,0.0,0.0,0.0,0,0
2026-06-16 16:01:15.773,1688932,R_Hip,0.0412,0.0001,0.9876,0.27,-1.58,1.79,-19.05,26.71,-32.3,0.94644,-0.003174,-0.041719,-0.320078,0.0,0.0,0.0,0,0
2026-06-16 16:01:15.775,1688952,R_Hip,0.0372,0.0079,0.9982,0.28,-1.56,1.79,-18.87,26.89,-32.82,0.94644,-0.003174,-0.041749,-0.320048,0.0,0.0,0.0,0,0
2026-06-16 16:01:15.777,1688972,R_Hip,0.054,0.0015,0.9861,0.29,-1.57,1.77,0.0,0.0,0.0,0.946471,-0.003174,-0.041719,-0.320048,0.0,0.0,0.0,0,0
2026-06-16 16:01:15.778,1689054,L_Ankle,0.1192,0.0197,0.9966,5.39,-0.87,-10.28,-17.11,10.08,-44.55,0.931974,0.04355,-0.059847,0.354808,0.0,0.0,0.0,0,0
2026-06-16 16:01:15.780,1689074,L_Ankle,0.1178,0.0192,0.9957,5.39,-0.85,-10.29,-17.09,9.01,-44.21,0.931974,0.04355,-0.059847,0.354808,0.0,0.0,0.0,0,0
2026-06-16 16:01:15.782,1689094,L_Ankle,0.1153,0.0178,0.9875,5.4,-0.85,-10.3,-16.4,9.36,-44.54,0.931974,0.04358,-0.059816,0.354808,0.0,0.0,0.0,0,0
2026-06-16 16:01:15.783,1688925,R_Ankle,0.0155,-0.0141,1.0196,0.76,-1.72,-0.48,-9.21,31.83,-29.23,0.092502,0.085482,0.030335,0.991546,0.0,0.0,0.0,0,0
2026-06-16 16:01:15.785,1689114,L_Ankle,0.1138,0.0212,0.9774,5.39,-0.85,-10.29,-14.82,9.51,-44.0,0.931974,0.04358,-0.059786,0.354808,0.0,0.0,0.0,0,0
2026-06-16 16:01:15.785,1688945,R_Ankle,0.0096,-0.019,1.0048,0.77,-1.72,-0.49,-8.54,31.53,-30.15,0.092471,0.085482,0.030335,0.991546,0.0,0.0,0.0,0,0
2026-06-16 16:01:15.788,1688965,R_Ankle,0.0155,-0.0156,0.9938,0.77,-1.74,-0.48,0.0,0.0,0.0,0.092471,0.085452,0.030335,0.991546,0.0,0.0,0.0,0,0
2026-06-16 16:01:15.788,1689064,L_Hip,0.1229,-0.0764,0.9832,-4.15,4.51,2.97,0.84,29.02,-29.19,0.993194,-0.023408,-0.071871,0.088473,0.0,0.0,0.0,0,0
2026-06-16 16:01:15.790,1688985,R_Ankle,0.0116,-0.0081,1.001,0.77,-1.73,-0.49,-9.04,32.31,-29.39,0.092471,0.085452,0.030335,0.991546,0.0,0.0,0.0,0,0
2026-06-16 16:01:15.791,1689084,L_Hip,0.1239,-0.0744,0.9832,-4.16,4.5,2.96,0.0,0.0,0.0,0.993194,-0.023408,-0.071871,0.088473,0.0,0.0,0.0,0,0
2026-06-16 16:01:15.792,1689104,L_Hip,0.1195,-0.071,0.9909,-4.16,4.49,2.97,1.37,31.45,-27.9,0.993194,-0.023408,-0.071871,0.088473,0.0,0.0,0.0,0,0
2026-06-16 16:01:15.795,1689124,L_Hip,0.1126,-0.0798,0.9924,-4.16,4.52,2.96,0.69,30.15,-29.05,0.993194,-0.023408,-0.071871,0.088473,0.0,0.0,0.0,0,0
2026-06-16 16:01:15.795,1688937,R_Hip,0.0451,0.0118,0.9991,0.26,-1.57,1.77,-18.69,28.53,-31.28,0.94644,-0.003204,-0.041749,-0.320048,0.0,0.0,0.0,0,0
2026-06-16 16:01:15.798,1688957,R_Hip,0.0358,-0.0023,0.9871,0.28,-1.57,1.78,-19.41,27.44,-31.96,0.94644,-0.003204,-0.041719,-0.320048,0.0,0.0,0.0,0,0
2026-06-16 16:01:15.799,1688977,R_Hip,0.0431,0.0089,0.9861,0.27,-1.56,1.79,0.0,0.0,0.0,0.946471,-0.003204,-0.041688,-0.320048,0.0,0.0,0.0,0,0
2026-06-16 16:01:15.801,1688997,R_Hip,0.0436,0.0128,0.9871,0.27,-1.57,1.77,-18.51,28.35,-32.48,0.946471,-0.003174,-0.041688,-0.320048,0.0,0.0,0.0,0,0
2026-06-16 16:01:15.803,1688942,R_Shank,0.0492,3.1396,1.0061,-0.09,-1.46,-8.43,-9.5,24.82,-22.22,0.901425,0.036134,-0.018006,0.430982,0.0,0.0,0.0,0,0
2026-06-16 16:01:15.805,1688962,R_Shank,0.0375,-1.6136,1.0095,-0.09,-1.45,-8.43,-11.87,25.52,-22.79,0.901425,0.036134,-0.018036,0.430982,0.0,0.0,0.0,0,0
2026-06-16 16:01:15.807,1688982,R_Shank,0.0311,-0.9728,1.008,-0.09,-1.48,-8.41,-11.02,25.67,-23.25,0.901425,0.036134,-0.018036,0.430982,0.0,0.0,0.0,0,0
2026-06-16 16:01:15.809,1689002,R_Shank,0.0429,0.8276,1.0104,-0.09,-1.47,-8.44,0.0,0.0,0.0,0.901425,0.036134,-0.018036,0.430982,0.0,0.0,0.0,0,0
2026-06-16 16:01:15.811,1689086,L_Shank,0.0106,-0.0488,0.9906,1.75,-1.25,-0.18,-9.87,14.53,-26.99,0.997742,-0.016633,-0.031373,0.05649,0.0,0.0,0.0,0,0
2026-06-16 16:01:15.812,1688947,R_Ankle,0.0135,-0.0156,1.0024,0.76,-1.72,-0.48,-8.54,31.53,-30.45,0.092471,0.085452,0.030335,0.991546,0.0,0.0,0.0,0,0
2026-06-16 16:01:15.813,1689106,L_Shank,0.015,-0.0381,0.9825,1.77,-1.25,-0.18,-10.39,14.71,-27.77,0.997742,-0.016633,-0.031343,0.05649,0.0,0.0,0.0,0,0
2026-06-16 16:01:15.815,1688967,R_Ankle,0.0194,-0.0067,1.0034,0.75,-1.72,-0.48,-9.02,31.65,-27.53,0.092471,0.085452,0.030305,0.991546,0.0,0.0,0.0,0,0
2026-06-16 16:01:15.816,1689126,L_Shank,0.0184,-0.0474,0.983,1.78,-1.25,-0.16,-11.08,14.03,-27.75,0.997742,-0.016663,-0.031343,0.05649,0.0,0.0,0.0,0,0
2026-06-16 16:01:15.818,1688987,R_Ankle,0.0135,-0.0176,1.0192,0.77,-1.72,-0.51,0.0,0.0,0.0,0.092471,0.085452,0.030305,0.991546,0.0,0.0,0.0,0,0
2026-06-16 16:01:15.819,1689146,L_Shank,0.0164,-0.0405,0.9772,1.77,-1.25,-0.18,-11.44,14.7,-27.14,0.997742,-0.016663,-0.031343,0.05649,0.0,0.0,0.0,0,0
2026-06-16 16:01:15.820,1689007,R_Ankle,0.0116,-0.0126,1.0081,0.76,-1.72,-0.48,-9.07,30.74,-30.91,0.092471,0.085452,0.030305,0.991546,0.0,0.0,0.0,0,0
2026-06-16 16:01:15.823,1688965,R_Shank,0.0355,1.4688,1.0047,-0.07,-1.46,-8.41,-11.85,24.53,-22.5,0.901425,0.036103,-0.018036,0.430982,0.0,0.0,0.0,0,0
2026-06-16 16:01:15.823,1689099,L_Ankle,0.1124,0.0202,0.9894,5.39,-0.84,-10.29,-16.4,9.0,-44.88,0.931974,0.043611,-0.059786,0.354808,0.0,0.0,0.0,0,0
2026-06-16 16:01:15.826,1689119,L_Ankle,0.1163,0.0061,0.987,5.38,-0.84,-10.29,0.0,0.0,0.0,0.931974,0.04358,-0.059786,0.354808,0.0,0.0,0.0,0,0
2026-06-16 16:01:15.826,1688985,R_Shank,0.0394,-0.584,1.0186,-0.09,-1.48,-8.42,-10.54,27.14,-23.7,0.901425,0.036134,-0.018036,0.430982,0.0,0.0,0.0,0,0
2026-06-16 16:01:15.828,1689139,L_Ankle,0.1178,0.0163,0.9856,5.39,-0.84,-10.29,-14.63,9.33,-43.15,0.931974,0.043611,-0.059786,0.354808,0.0,0.0,0.0,0,0
2026-06-16 16:01:15.829,1689005,R_Shank,0.0375,2.3688,1.0052,-0.09,-1.47,-8.42,0.0,0.0,0.0,0.901425,0.036103,-0.018036,0.430982,0.0,0.0,0.0,0,0
2026-06-16 16:01:15.831,1689159,L_Ankle,0.1134,0.0168,0.9966,5.4,-0.86,-10.29,-15.87,8.82,-44.7,0.931974,0.04358,-0.059786,0.354808,0.0,0.0,0.0,0,0
2026-06-16 16:01:15.832,1689025,R_Shank,0.0345,0.8276,1.0066,-0.08,-1.46,-8.43,-10.86,25.5,-22.5,0.901425,0.036103,-0.018036,0.430982,0.0,0.0,0.0,0,0
2026-06-16 16:01:15.834,1689109,L_Hip,0.1244,-0.0769,0.989,-4.16,4.53,2.96,1.83,28.71,-28.33,0.993194,-0.023408,-0.071902,0.088443,0.0,0.0,0.0,0,0
2026-06-16 16:01:15.836,1689129,L_Hip,0.1161,-0.0833,0.9904,-4.16,4.51,2.97,0.0,0.0,0.0,0.993194,-0.023377,-0.071871,0.088443,0.0,0.0,0.0,0,0
2026-06-16 16:01:15.837,1689149,L_Hip,0.1279,-0.0779,0.9924,-4.16,4.5,2.97,0.84,29.99,-28.61,0.993194,-0.023377,-0.071871,0.088443,0.0,0.0,0.0,0,0
2026-06-16 16:01:15.840,1689169,L_Hip,0.1136,-0.0764,0.9933,-4.16,4.52,2.96,2.52,29.05,-28.93,0.993194,-0.023377,-0.071871,0.088443,0.0,0.0,0.0,0,0
2026-06-16 16:01:15.850,1688992,R_Ankle,0.0145,-0.0185,1.0014,0.75,-1.73,-0.49,-7.35,31.06,-29.67,0.092471,0.085421,0.030305,0.991577,0.0,0.0,0.0,0,0
2026-06-16 16:01:15.852,1689012,R_Ankle,0.0072,-0.0101,1.0019,0.75,-1.73,-0.5,-7.33,32.0,-29.06,0.092471,0.085452,0.030335,0.991546,0.0,0.0,0.0,0,0
2026-06-16 16:01:15.853,1689032,R_Ankle,0.016,-0.0151,1.0034,0.75,-1.74,-0.5,0.0,0.0,0.0,0.092471,0.085452,0.030305,0.991546,0.0,0.0,0.0,0,0
2026-06-16 16:01:15.855,1689052,R_Ankle,0.0081,-0.0126,1.0,0.77,-1.74,-0.48,-9.74,31.04,-30.31,0.092471,0.085452,0.030274,0.991546,0.0,0.0,0.0,0,0
2026-06-16 16:01:15.860,1689136,L_Shank,0.012,-0.0425,0.9748,1.77,-1.25,-0.18,-9.87,14.54,-27.31,0.997742,-0.016663,-0.031343,0.05649,0.0,0.0,0.0,0,0
2026-06-16 16:01:15.862,1689156,L_Shank,0.0091,-0.039,0.9791,1.78,-1.23,-0.19,0.0,0.0,0.0,0.997742,-0.016663,-0.031373,0.05649,0.0,0.0,0.0,0,0
2026-06-16 16:01:15.863,1689176,L_Shank,0.0033,-0.0449,0.9868,1.77,-1.24,-0.19,-10.03,14.38,-28.08,0.997742,-0.016663,-0.031373,0.05652,0.0,0.0,0.0,0,0
2026-06-16 16:01:15.865,1689196,L_Shank,0.0169,-0.0434,0.9993,1.77,-1.25,-0.18,-11.96,15.89,-26.99,0.997742,-0.016633,-0.031373,0.05652,0.0,0.0,0.0,0,0
2026-06-16 16:01:15.868,1689144,L_Ankle,0.1143,0.0207,0.9798,5.38,-0.85,-10.3,-15.71,9.34,-44.87,0.931974,0.043611,-0.059786,0.354808,0.0,0.0,0.0,0,0
2026-06-16 16:01:15.870,1689164,L_Ankle,0.1227,0.0212,0.9798,5.41,-0.84,-10.3,0.0,0.0,0.0,0.931974,0.043611,-0.059816,0.354808,0.0,0.0,0.0,0,0
2026-06-16 16:01:15.872,1689184,L_Ankle,0.1153,0.0173,0.9813,5.39,-0.84,-10.29,-15.88,8.82,-45.04,0.931974,0.043641,-0.059816,0.354808,0.0,0.0,0.0,0,0
2026-06-16 16:01:15.872,1689013,R_Hip,0.0451,0.003,0.9842,0.26,-1.56,1.78,-19.6,26.9,-33.5,0.946471,-0.003143,-0.041688,-0.320048,0.0,0.0,0.0,0,0
2026-06-16 16:01:15.875,1689204,L_Ankle,0.1109,0.0124,0.9914,5.41,-0.83,-10.3,-15.51,8.81,-44.02,0.931974,0.043641,-0.059786,0.354808,0.0,0.0,0.0,0,0
2026-06-16 16:01:15.875,1689033,R_Hip,0.0382,0.0006,0.9876,0.26,-1.57,1.77,-17.59,28.17,-32.65,0.946471,-0.003143,-0.041688,-0.320048,0.0,0.0,0.0,0,0
2026-06-16 16:01:15.877,1689053,R_Hip,0.0491,0.0098,1.001,0.27,-1.56,1.8,0.0,0.0,0.0,0.946471,-0.003174,-0.041658,-0.320048,0.0,0.0,0.0,0,0
2026-06-16 16:01:15.878,1689154,L_Hip,0.1244,-0.0749,0.9827,-4.16,4.51,2.97,0.0,30.13,-28.46,0.993194,-0.023377,-0.071902,0.088443,0.0,0.0,0.0,0,0
2026-06-16 16:01:15.879,1689073,R_Hip,0.0456,0.0113,0.9938,0.28,-1.58,1.79,-19.05,26.71,-31.28,0.946471,-0.003174,-0.041658,-0.320017,0.0,0.0,0.0,0,0
2026-06-16 16:01:15.881,1689174,L_Hip,0.1161,-0.0798,0.9958,-4.16,4.51,2.99,0.0,0.0,0.0,0.993194,-0.023377,-0.071871,0.088443,0.0,0.0,0.0,0,0
2026-06-16 16:01:15.882,1689194,L_Hip,0.122,-0.0764,0.9909,-4.16,4.51,2.97,0.87,30.96,-29.2,0.993194,-0.023377,-0.071871,0.088443,0.0,0.0,0.0,0,0
2026-06-16 16:01:15.884,1689214,L_Hip,0.1117,-0.0715,0.9977,-4.16,4.5,2.97,1.18,29.99,-28.62,0.993194,-0.023408,-0.071902,0.088443,0.0,0.0,0.0,0,0
2026-06-16 16:01:15.886,1689161,L_Shank,0.0189,-0.0478,0.9959,1.77,-1.25,-0.19,-11.79,15.38,-26.83,0.997742,-0.016602,-0.031373,0.05652,0.0,0.0,0.0,0,0
2026-06-16 16:01:15.889,1689181,L_Shank,0.016,-0.0464,0.9762,1.77,-1.24,-0.19,0.0,0.0,0.0,0.997742,-0.016633,-0.031373,0.05652,0.0,0.0,0.0,0,0
2026-06-16 16:01:15.891,1689032,R_Shank,0.0335,1.4688,1.0052,-0.06,-1.46,-8.41,-10.52,25.5,-22.51,0.901425,0.036103,-0.018036,0.430982,0.0,0.0,0.0,0,0
2026-06-16 16:01:15.892,1689201,L_Shank,0.015,-0.0395,0.9906,1.77,-1.25,-0.18,-10.73,15.06,-28.08,0.997742,-0.016633,-0.031373,0.05652,0.0,0.0,0.0,0,0
2026-06-16 16:01:15.894,1689221,L_Shank,0.012,-0.0498,0.9916,1.78,-1.24,-0.19,-10.92,15.55,-26.69,0.997742,-0.016633,-0.031373,0.05652,0.0,0.0,0.0,0,0
2026-06-16 16:01:15.895,1689052,R_Shank,0.0424,1.5984,1.0037,-0.08,-1.45,-8.42,-11.04,25.68,-21.75,0.901425,0.036073,-0.018036,0.430982,0.0,0.0,0.0,0,0
2026-06-16 16:01:15.897,1689166,L_Ankle,0.1207,0.0207,0.9803,5.39,-0.84,-10.29,-14.66,9.68,-44.51,0.931974,0.043641,-0.059755,0.354808,0.0,0.0,0.0,0,0
2026-06-16 16:01:15.897,1689072,R_Shank,0.0389,2.7576,1.0071,-0.09,-1.46,-8.44,0.0,0.0,0.0,0.901425,0.036073,-0.018036,0.430982,0.0,0.0,0.0,0,0
2026-06-16 16:01:15.899,1689186,L_Ankle,0.1212,0.0153,0.9784,5.41,-0.85,-10.29,0.0,0.0,0.0,0.931974,0.043641,-0.059755,0.354778,0.0,0.0,0.0,0,0
2026-06-16 16:01:15.900,1689092,R_Shank,0.0326,2.4984,1.0032,-0.08,-1.47,-8.44,-11.01,25.01,-22.65,0.901425,0.036103,-0.018036,0.430982,0.0,0.0,0.0,0,0
2026-06-16 16:01:15.902,1689167,L_Ankle,0.1261,0.0158,0.9851,5.4,-0.85,-10.29,-14.81,8.45,-44.68,0.932005,0.043641,-0.059755,0.354778,0.0,0.0,0.0,0,0
2026-06-16 16:01:15.903,1689037,R_Hip,0.056,0.0074,1.001,0.26,-1.57,1.77,-17.23,28.54,-32.3,0.946471,-0.003143,-0.041658,-0.320017,0.0,0.0,0.0,0,0
2026-06-16 16:01:15.905,1689187,L_Ankle,0.1045,0.0124,0.988,5.41,-0.84,-10.29,-15.51,8.81,-44.36,0.932005,0.043641,-0.059755,0.354808,0.0,0.0,0.0,0,0
2026-06-16 16:01:15.905,1689057,R_Hip,0.0412,0.0157,0.9948,0.25,-1.57,1.79,-19.23,27.98,-31.11,0.946471,-0.003143,-0.041627,-0.320017,0.0,0.0,0.0,0,0
2026-06-16 16:01:15.907,1689077,R_Hip,0.0422,0.0079,0.989,0.26,-1.58,1.77,0.0,0.0,0.0,0.946471,-0.003113,-0.041658,-0.320017,0.0,0.0,0.0,0,0
2026-06-16 16:01:15.909,1689097,R_Hip,0.0466,0.0181,0.9929,0.28,-1.57,1.77,-20.15,27.45,-34.36,0.946471,-0.003113,-0.041627,-0.320017,0.0,0.0,0.0,0,0
2026-06-16 16:01:15.913,1689055,R_Shank,0.0507,-3.1552,1.0277,-0.09,-1.45,-8.42,-11.51,24.52,-23.11,0.901425,0.036073,-0.018036,0.430982,0.0,0.0,0.0,0,0
2026-06-16 16:01:15.915,1689075,R_Shank,0.0345,-0.0724,1.0032,-0.07,-1.47,-8.44,-11.54,25.52,-21.89,0.901425,0.036042,-0.018036,0.431013,0.0,0.0,0.0,0,0
2026-06-16 16:01:15.917,1689095,R_Shank,0.038,-1.232,0.9994,-0.07,-1.47,-8.43,0.0,0.0,0.0,0.901425,0.036042,-0.018067,0.431013,0.0,0.0,0.0,0,0
2026-06-16 16:01:15.920,1689115,R_Shank,0.0384,-0.0724,1.0191,-0.08,-1.47,-8.42,-11.17,24.84,-23.41,0.901425,0.036073,-0.018067,0.431013,0.0,0.0,0.0,0,0
2026-06-16 16:01:15.922,1689060,R_Ankle,0.0233,-0.0072,0.9962,0.76,-1.73,-0.48,-8.71,32.01,-30.31,0.092471,0.085452,0.030305,0.991546,0.0,0.0,0.0,0,0
2026-06-16 16:01:15.923,1689199,L_Hip,0.118,-0.0715,0.9875,-4.15,4.51,2.98,1.2,30.96,-28.33,0.993194,-0.023408,-0.071902,0.088443,0.0,0.0,0.0,0,0
2026-06-16 16:01:15.925,1689080,R_Ankle,0.0081,-0.0076,1.0096,0.76,-1.74,-0.49,-9.73,32.0,-30.32,0.092471,0.085452,0.030305,0.991546,0.0,0.0,0.0,0,0
2026-06-16 16:01:15.925,1689219,L_Hip,0.1136,-0.0789,0.9909,-4.16,4.51,2.96,0.0,0.0,0.0,0.993194,-0.023408,-0.071902,0.088443,0.0,0.0,0.0,0,0
2026-06-16 16:01:15.927,1689100,R_Ankle,0.0067,-0.0166,1.0019,0.76,-1.74,-0.49,0.0,0.0,0.0,0.092471,0.085452,0.030305,0.991546,0.0,0.0,0.0,0,0
2026-06-16 16:01:15.928,1689239,L_Hip,0.1171,-0.0754,0.9962,-4.16,4.5,2.97,1.35,30.8,-27.61,0.993194,-0.023377,-0.071871,0.088443,0.0,0.0,0.0,0,0
2026-06-16 16:01:15.930,1689120,R_Ankle,0.0214,-0.0072,1.0139,0.77,-1.72,-0.48,-10.39,32.29,-28.79,0.092471,0.085452,0.030305,0.991546,0.0,0.0,0.0,0,0
2026-06-16 16:01:15.930,1689259,L_Hip,0.12,-0.0759,1.004,-4.16,4.51,2.96,1.87,30.97,-28.05,0.993194,-0.023377,-0.071871,0.088443,0.0,0.0,0.0,0,0
2026-06-16 16:01:15.932,1689062,R_Hip,0.0422,0.0006,0.9881,0.26,-1.58,1.78,-18.69,27.07,-31.96,0.946471,-0.003082,-0.041658,-0.320017,0.0,0.0,0.0,0,0
2026-06-16 16:01:15.933,1689082,R_Hip,0.0466,0.0171,0.989,0.28,-1.56,1.77,-18.5,26.89,-30.42,0.946471,-0.003082,-0.041658,-0.320017,0.0,0.0,0.0,0,0
2026-06-16 16:01:15.936,1689102,R_Hip,0.0476,0.0093,0.9943,0.28,-1.57,1.79,0.0,0.0,0.0,0.946471,-0.003082,-0.041658,-0.320017,0.0,0.0,0.0,0,0
2026-06-16 16:01:15.937,1689211,L_Shank,0.0086,-0.0337,0.9849,1.77,-1.25,-0.19,-9.87,14.2,-27.3,0.997742,-0.016633,-0.031373,0.05652,0.0,0.0,0.0,0,0
2026-06-16 16:01:15.939,1689212,L_Shank,0.0125,-0.04,0.9729,1.77,-1.25,-0.18,0.0,0.0,0.0,0.997742,-0.016633,-0.031373,0.05652,0.0,0.0,0.0,0,0
2026-06-16 16:01:15.939,1689122,R_Hip,0.0515,0.0035,0.9905,0.27,-1.58,1.78,-18.87,27.25,-31.11,0.946471,-0.003052,-0.041658,-0.320017,0.0,0.0,0.0,0,0
2026-06-16 16:01:15.942,1689232,L_Shank,0.0106,-0.0366,0.9806,1.76,-1.25,-0.19,-11.43,14.03,-27.75,0.997742,-0.016663,-0.031373,0.05652,0.0,0.0,0.0,0,0
2026-06-16 16:01:15.942,1689082,R_Ankle,0.0204,-0.0062,1.012,0.77,-1.72,-0.48,-8.7,31.99,-29.07,0.092471,0.085452,0.030335,0.991546,0.0,0.0,0.0,0,0
2026-06-16 16:01:15.944,1689102,R_Ankle,0.0062,-0.0116,0.9971,0.77,-1.72,-0.49,-9.38,32.31,-29.39,0.092471,0.085452,0.030335,0.991546,0.0,0.0,0.0,0,0
2026-06-16 16:01:15.945,1689252,L_Shank,0.014,-0.0439,0.9873,1.77,-1.26,-0.17,-11.09,16.4,-27.16,0.997742,-0.016663,-0.031373,0.05652,0.0,0.0,0.0,0,0
2026-06-16 16:01:15.947,1689122,R_Ankle,0.014,-0.0116,1.0096,0.77,-1.72,-0.49,0.0,0.0,0.0,0.092471,0.085452,0.030335,0.991546,0.0,0.0,0.0,0,0
2026-06-16 16:01:15.948,1689221,L_Hip,0.1146,-0.0759,0.9725,-4.16,4.51,2.96,1.34,30.48,-27.61,0.993194,-0.023377,-0.071871,0.088443,0.0,0.0,0.0,0,0
2026-06-16 16:01:15.950,1689142,R_Ankle,0.0253,-0.0086,1.022,0.75,-1.73,-0.49,-9.19,32.45,-28.01,0.092471,0.085421,0.030366,0.991546,0.0,0.0,0.0,0,0
2026-06-16 16:01:15.951,1689241,L_Hip,0.1141,-0.0759,0.9841,-4.16,4.51,2.96,2.19,30.01,-28.63,0.993194,-0.023347,-0.071841,0.088443,0.0,0.0,0.0,0,0
2026-06-16 16:01:15.953,1689261,L_Hip,0.122,-0.0798,0.9875,-4.16,4.51,2.97,0.0,0.0,0.0,0.993194,-0.023377,-0.071841,0.088443,0.0,0.0,0.0,0,0
2026-06-16 16:01:15.956,1689222,L_Hip,0.1141,-0.0774,0.9977,-4.16,4.51,2.97,0.36,30.78,-28.75,0.993194,-0.023347,-0.071841,0.088443,0.0,0.0,0.0,0,0
2026-06-16 16:01:15.959,1689100,R_Shank,0.0394,1.4688,1.0076,-0.06,-1.46,-8.43,-13.04,25.05,-22.33,0.901425,0.036042,-0.018067,0.431013,0.0,0.0,0.0,0,0
2026-06-16 16:01:15.960,1689234,L_Ankle,0.1168,0.0241,0.9851,5.4,-0.84,-10.29,-15.52,8.46,-45.04,0.932005,0.043641,-0.059725,0.354778,0.0,0.0,0.0,0,0
2026-06-16 16:01:15.965,1689254,L_Ankle,0.1099,0.0144,0.9928,5.4,-0.85,-10.3,0.0,0.0,0.0,0.932005,0.043641,-0.059725,0.354778,0.0,0.0,0.0,0,0
2026-06-16 16:01:15.965,1689120,R_Shank,0.0394,2.2392,0.9989,-0.09,-1.45,-8.43,-10.22,27.15,-21.89,0.901425,0.036073,-0.018067,0.431013,0.0,0.0,0.0,0,0
2026-06-16 16:01:15.968,1689274,L_Ankle,0.1114,0.0134,0.9942,5.41,-0.83,-10.29,-16.6,10.6,-44.71,0.932005,0.043641,-0.059694,0.354778,0.0,0.0,0.0,0,0
2026-06-16 16:01:15.969,1689140,R_Shank,0.0384,2.3688,1.0186,-0.09,-1.47,-8.41,0.0,0.0,0.0,0.901425,0.036073,-0.018067,0.431013,0.0,0.0,0.0,0,0
2026-06-16 16:01:15.971,1689294,L_Ankle,0.1153,0.0241,0.975,5.39,-0.83,-10.29,-16.03,9.0,-43.85,0.932005,0.043641,-0.059694,0.354778,0.0,0.0,0.0,0,0
2026-06-16 16:01:15.973,1689160,R_Shank,0.0365,-0.0724,1.0013,-0.09,-1.45,-8.43,-10.34,25.32,-23.26,0.901425,0.036073,-0.018036,0.431013,0.0,0.0,0.0,0,0
2026-06-16 16:01:15.975,1689236,L_Shank,0.0208,-0.0371,0.9858,1.77,-1.23,-0.17,-10.57,14.87,-26.68,0.997742,-0.016663,-0.031343,0.05652,0.0,0.0,0.0,0,0
2026-06-16 16:01:15.976,1689256,L_Shank,0.014,-0.0425,0.9863,1.77,-1.25,-0.17,0.0,0.0,0.0,0.997742,-0.016663,-0.031343,0.05652,0.0,0.0,0.0,0,0
2026-06-16 16:01:15.980,1689276,L_Shank,0.0116,-0.0454,1.0007,1.77,-1.24,-0.18,-10.55,14.55,-28.54,0.997742,-0.016663,-0.031373,0.05652,0.0,0.0,0.0,0,0
2026-06-16 16:01:15.982,1689122,R_Shank,0.0404,-0.9728,1.008,-0.09,-1.48,-8.42,-12.36,25.36,-23.54,0.901425,0.036073,-0.018036,0.431013,0.0,0.0,0.0,0,0
2026-06-16 16:01:15.983,1689296,L_Shank,0.014,-0.0469,0.9825,1.75,-1.26,-0.17,-11.61,14.2,-27.6,0.997742,-0.016694,-0.031373,0.05649,0.0,0.0,0.0,0,0
2026-06-16 16:01:15.986,1689142,R_Shank,0.0394,0.5684,1.0066,-0.09,-1.48,-8.42,-10.7,25.67,-22.05,0.901425,0.036073,-0.018036,0.431013,0.0,0.0,0.0,0,0
2026-06-16 16:01:15.988,1689256,L_Ankle,0.1119,0.008,0.9856,5.39,-0.83,-10.3,-16.74,9.01,-44.55,0.932005,0.043641,-0.059694,0.354778,0.0,0.0,0.0,0,0
2026-06-16 16:01:15.990,1689162,R_Shank,0.0326,-3.1552,1.021,-0.09,-1.49,-8.43,0.0,0.0,0.0,0.901425,0.036073,-0.018067,0.431013,0.0,0.0,0.0,0,0
2026-06-16 16:01:15.992,1689276,L_Ankle,0.1153,0.0158,0.988,5.41,-0.85,-10.29,0.0,0.0,0.0,0.932005,0.043641,-0.059694,0.354778,0.0,0.0,0.0,0,0
2026-06-16 16:01:15.993,1689182,R_Shank,0.0375,0.8276,1.0028,-0.09,-1.48,-8.41,-11.87,25.85,-23.09,0.901425,0.036073,-0.018067,0.431013,0.0,0.0,0.0,0,0
2026-06-16 16:01:15.994,1689296,L_Ankle,0.1256,0.0178,0.9846,5.4,-0.84,-10.29,-16.57,9.18,-44.37,0.932005,0.043641,-0.059694,0.354778,0.0,0.0,0.0,0,0
2026-06-16 16:01:15.998,1689127,R_Ankle,0.0091,-0.0086,1.0182,0.76,-1.73,-0.48,-9.03,32.31,-29.08,0.092471,0.085452,0.030366,0.991546,0.0,0.0,0.0,0,0
2026-06-16 16:01:15.999,1689316,L_Ankle,0.1188,0.0119,0.9808,5.39,-0.83,-10.29,-16.38,9.36,-43.52,0.932005,0.043641,-0.059694,0.354778,0.0,0.0,0.0,0,0
2026-06-16 16:01:16.001,1689147,R_Ankle,0.0199,-0.0121,1.0029,0.76,-1.72,-0.49,-8.37,31.37,-30.3,0.092471,0.085482,0.030366,0.991546,0.0,0.0,0.0,0,0
2026-06-16 16:01:16.002,1689266,L_Hip,0.1122,-0.0744,0.9827,-4.16,4.51,2.97,0.51,30.3,-28.32,0.993194,-0.023347,-0.071841,0.088443,0.0,0.0,0.0,0,0
2026-06-16 16:01:16.005,1689167,R_Ankle,0.0121,-0.0106,1.011,0.76,-1.73,-0.48,0.0,0.0,0.0,0.092471,0.085452,0.030366,0.991546,0.0,0.0,0.0,0,0
2026-06-16 16:01:16.006,1689286,L_Hip,0.118,-0.0848,0.9812,-4.16,4.51,2.96,0.33,30.14,-27.88,0.993194,-0.023347,-0.071871,0.088443,0.0,0.0,0.0,0,0
2026-06-16 16:01:16.008,1689187,R_Ankle,0.0273,-0.0131,1.0048,0.75,-1.73,-0.48,-8.54,31.21,-30.14,0.092471,0.085452,0.030366,0.991546,0.0,0.0,0.0,0,0
2026-06-16 16:01:16.010,1689306,L_Hip,0.1166,-0.0661,0.9783,-4.15,4.51,2.96,0.0,0.0,0.0,0.993194,-0.023347,-0.071841,0.088443,0.0,0.0,0.0,0,0
2026-06-16 16:01:16.012,1689137,R_Hip,0.0382,0.0079,0.9871,0.26,-1.57,1.78,-19.41,26.71,-31.62,0.946471,-0.003052,-0.041688,-0.320017,0.0,0.0,0.0,0,0
2026-06-16 16:01:16.013,1689326,L_Hip,0.1185,-0.0749,0.9943,-4.15,4.52,2.96,1.19,30.32,-28.62,0.993194,-0.023377,-0.071841,0.088443,0.0,0.0,0.0,0,0
2026-06-16 16:01:16.014,1689157,R_Hip,0.0431,0.001,0.9938,0.27,-1.58,1.79,-18.87,27.62,-32.13,0.946471,-0.003082,-0.041688,-0.320017,0.0,0.0,0.0,0,0
2026-06-16 16:01:16.018,1689286,L_Shank,0.0145,-0.0532,0.9652,1.77,-1.25,-0.18,-10.21,15.22,-27.93,0.997742,-0.016694,-0.031373,0.05649,0.0,0.0,0.0,0,0
2026-06-16 16:01:16.018,1689177,R_Hip,0.0377,0.0054,0.9967,0.26,-1.56,1.77,0.0,0.0,0.0,0.946471,-0.003082,-0.041658,-0.320017,0.0,0.0,0.0,0,0
2026-06-16 16:01:16.020,1689306,L_Shank,0.015,-0.0317,0.9834,1.78,-1.25,-0.17,0.0,0.0,0.0,0.997742,-0.016694,-0.031373,0.05649,0.0,0.0,0.0,0,0
2026-06-16 16:01:16.021,1689197,R_Hip,0.0412,0.0089,1.0044,0.27,-1.58,1.78,-18.14,28.35,-31.79,0.946471,-0.003082,-0.041658,-0.320017,0.0,0.0,0.0,0,0
2026-06-16 16:01:16.024,1689326,L_Shank,0.0208,-0.0405,0.9791,1.77,-1.25,-0.18,-10.74,15.04,-26.84,0.997742,-0.016694,-0.031373,0.05649,0.0,0.0,0.0,0,0
2026-06-16 16:01:16.026,1689167,R_Shank,0.0291,-0.0724,0.9893,-0.08,-1.46,-8.43,-11.7,26.01,-23.54,0.901425,0.036042,-0.018067,0.431013,0.0,0.0,0.0,0,0
2026-06-16 16:01:16.027,1689346,L_Shank,0.0116,-0.0366,0.9782,1.77,-1.25,-0.18,-10.23,15.54,-26.07,0.997742,-0.016663,-0.031373,0.05649,0.0,0.0,0.0,0,0
2026-06-16 16:01:16.029,1689187,R_Shank,0.0384,3.2692,1.0028,-0.08,-1.45,-8.44,0.0,0.0,0.0,0.901425,0.036042,-0.018036,0.431013,0.0,0.0,0.0,0,0
2026-06-16 16:01:16.032,1689207,R_Shank,0.0448,0.8276,1.0114,-0.09,-1.48,-8.41,-10.87,26.82,-23.7,0.901425,0.036042,-0.018036,0.431013,0.0,0.0,0.0,0,0
2026-06-16 16:01:16.035,1689227,R_Shank,0.0414,2.4984,1.0071,-0.08,-1.47,-8.44,-10.21,26.49,-22.2,0.901425,0.036042,-0.018067,0.431013,0.0,0.0,0.0,0,0
2026-06-16 16:01:16.037,1689172,R_Ankle,0.014,-0.0052,1.0216,0.75,-1.73,-0.49,-9.22,31.2,-29.53,0.092471,0.085513,0.030366,0.991546,0.0,0.0,0.0,0,0
2026-06-16 16:01:16.041,1689192,R_Ankle,0.015,-0.0027,1.0192,0.76,-1.73,-0.48,-8.03,31.37,-29.68,0.092441,0.085513,0.030366,0.991546,0.0,0.0,0.0,0,0
2026-06-16 16:01:16.043,1689212,R_Ankle,0.0096,-0.0151,1.0091,0.75,-1.74,-0.5,0.0,0.0,0.0,0.092441,0.085482,0.030366,0.991546,0.0,0.0,0.0,0,0
2026-06-16 16:01:16.046,1689232,R_Ankle,0.015,-0.0131,0.9995,0.76,-1.71,-0.49,-8.87,31.19,-28.91,0.092441,0.085482,0.030366,0.991546,0.0,0.0,0.0,0,0
2026-06-16 16:01:16.048,1689324,L_Ankle,0.1212,0.0139,0.9875,5.39,-0.85,-10.29,-16.76,9.72,-44.88,0.932005,0.043641,-0.059694,0.354778,0.0,0.0,0.0,0,0
2026-06-16 16:01:16.049,1689188,R_Hip,0.051,0.0113,0.99,0.28,-1.58,1.78,-18.87,26.16,-32.47,0.946471,-0.003052,-0.041627,-0.320017,0.0,0.0,0.0,0,0
2026-06-16 16:01:16.052,1689344,L_Ankle,0.1207,0.0075,0.9794,5.41,-0.84,-10.3,0.0,0.0,0.0,0.932005,0.043641,-0.059664,0.354778,0.0,0.0,0.0,0,0
2026-06-16 16:01:16.053,1689208,R_Hip,0.0461,-0.0018,0.9914,0.27,-1.56,1.78,-19.23,27.26,-32.13,0.946471,-0.003052,-0.041627,-0.320017,0.0,0.0,0.0,0,0
2026-06-16 16:01:16.055,1689364,L_Ankle,0.1197,0.0168,0.988,5.41,-0.86,-10.29,-15.02,9.69,-45.19,0.932005,0.043611,-0.059664,0.354778,0.0,0.0,0.0,0,0
2026-06-16 16:01:16.055,1689228,R_Hip,0.0471,0.0045,0.9799,0.26,-1.57,1.78,0.0,0.0,0.0,0.946471,-0.003052,-0.041627,-0.320017,0.0,0.0,0.0,0,0
2026-06-16 16:01:16.058,1689384,L_Ankle,0.1124,0.0153,0.9765,5.4,-0.86,-10.29,-16.25,10.24,-45.04,0.932005,0.04358,-0.059664,0.354778,0.0,0.0,0.0,0,0
2026-06-16 16:01:16.059,1689248,R_Hip,0.0481,0.0089,0.9861,0.28,-1.57,1.77,-17.78,26.89,-33.5,0.946471,-0.003052,-0.041627,-0.320017,0.0,0.0,0.0,0,0
2026-06-16 16:01:16.061,1689334,L_Hip,0.1077,-0.0828,0.9914,-4.16,4.51,2.96,1.02,30.15,-29.05,0.993194,-0.023377,-0.071841,0.088443,0.0,0.0,0.0,0,0
2026-06-16 16:01:16.061,1689190,R_Shank,0.0389,-2.3844,1.0128,-0.07,-1.48,-8.42,-10.02,26.31,-22.96,0.901425,0.036012,-0.018067,0.431013,0.0,0.0,0.0,0,0
2026-06-16 16:01:16.064,1689354,L_Hip,0.1225,-0.0744,0.9754,-4.15,4.51,2.96,0.86,29.99,-29.48,0.993194,-0.023377,-0.071841,0.088443,0.0,0.0,0.0,0,0
2026-06-16 16:01:16.064,1689210,R_Shank,0.0453,2.4984,1.0052,-0.07,-1.46,-8.43,0.0,0.0,0.0,0.901425,0.036042,-0.018067,0.431013,0.0,0.0,0.0,0,0
2026-06-16 16:01:16.066,1689374,L_Hip,0.1205,-0.0789,0.9895,-4.16,4.51,2.96,0.0,0.0,0.0,0.993194,-0.023347,-0.071841,0.088412,0.0,0.0,0.0,0,0
2026-06-16 16:01:16.067,1689230,R_Shank,0.0419,0.5684,1.0066,-0.08,-1.45,-8.42,-12.35,24.7,-23.25,0.901425,0.036042,-0.018067,0.431013,0.0,0.0,0.0,0,0
2026-06-16 16:01:16.069,1689394,L_Hip,0.1112,-0.0798,1.0093,-4.17,4.51,2.96,1.37,31.13,-28.48,0.993194,-0.023377,-0.071841,0.088412,0.0,0.0,0.0,0,0
2026-06-16 16:01:16.070,1689250,R_Shank,0.0345,2.4984,1.0052,-0.07,-1.45,-8.43,-12.2,25.85,-23.39,0.901425,0.036042,-0.018036,0.431013,0.0,0.0,0.0,0,0
2026-06-16 16:01:16.073,1689346,L_Ankle,0.1094,0.0153,0.9856,5.39,-0.84,-10.29,-16.6,10.6,-44.71,0.932005,0.04358,-0.059633,0.354778,0.0,0.0,0.0,0,0
2026-06-16 16:01:16.074,1689195,R_Ankle,0.014,-0.019,1.0053,0.77,-1.74,-0.5,-8.21,30.26,-29.82,0.092441,0.085482,0.030366,0.991546,0.0,0.0,0.0,0,0
2026-06-16 16:01:16.078,1689366,L_Ankle,0.1237,0.0173,0.9904,5.4,-0.86,-10.28,-16.59,10.25,-44.37,0.932005,0.04355,-0.059633,0.354778,0.0,0.0,0.0,0,0
2026-06-16 16:01:16.078,1689215,R_Ankle,0.013,-0.0072,1.0158,0.77,-1.73,-0.49,-9.07,30.74,-31.22,0.092471,0.085482,0.030366,0.991546,0.0,0.0,0.0,0,0
2026-06-16 16:01:16.080,1689347,L_Ankle,0.1109,0.0168,0.9942,5.4,-0.86,-10.29,0.0,0.0,0.0,0.932005,0.04358,-0.059633,0.354778,0.0,0.0,0.0,0,0
2026-06-16 16:01:16.081,1689235,R_Ankle,0.0204,-0.0062,0.9971,0.76,-1.72,-0.49,0.0,0.0,0.0,0.092471,0.085482,0.030366,0.991546,0.0,0.0,0.0,0,0
2026-06-16 16:01:16.083,1689367,L_Ankle,0.1158,0.0153,0.9818,5.4,-0.85,-10.29,-17.29,9.55,-45.41,0.932005,0.04358,-0.059633,0.354778,0.0,0.0,0.0,0,0
2026-06-16 16:01:16.084,1689255,R_Ankle,0.0101,-0.0156,1.0058,0.78,-1.72,-0.48,-9.22,31.2,-29.22,0.092471,0.085482,0.030366,0.991546,0.0,0.0,0.0,0,0
2026-06-16 16:01:16.086,1689356,L_Hip,0.1166,-0.0749,0.9909,-4.15,4.5,2.97,0.86,29.67,-29.77,0.993194,-0.023377,-0.07181,0.088412,0.0,0.0,0.0,0,0
2026-06-16 16:01:16.086,1689212,R_Hip,0.0491,0.0035,0.9847,0.27,-1.58,1.79,-18.69,26.71,-31.96,0.946471,-0.003082,-0.041627,-0.320017,0.0,0.0,0.0,0,0
2026-06-16 16:01:16.089,1689232,R_Hip,0.0476,0.003,0.976,0.26,-1.57,1.78,-19.05,25.25,-33.67,0.946471,-0.003052,-0.041627,-0.320017,0.0,0.0,0.0,0,0
2026-06-16 16:01:16.090,1689376,L_Hip,0.12,-0.0779,0.9861,-4.15,4.49,2.97,1.52,29.68,-28.91,0.993194,-0.023377,-0.07181,0.088412,0.0,0.0,0.0,0,0
2026-06-16 16:01:16.092,1689252,R_Hip,0.0461,-0.0037,0.9832,0.27,-1.58,1.78,0.0,0.0,0.0,0.946471,-0.003082,-0.041627,-0.319987,0.0,0.0,0.0,0,0
2026-06-16 16:01:16.093,1689396,L_Hip,0.119,-0.0725,0.9856,-4.16,4.5,2.96,0.0,0.0,0.0,0.993194,-0.023377,-0.07178,0.088412,0.0,0.0,0.0,0,0
2026-06-16 16:01:16.096,1689416,L_Hip,0.1156,-0.0779,0.9749,-4.16,4.51,2.98,-0.17,29.32,-28.6,0.993194,-0.023377,-0.07178,0.088412,0.0,0.0,0.0,0,0
2026-06-16 16:01:16.096,1689272,R_Hip,0.0496,0.0128,0.9842,0.27,-1.58,1.78,-19.23,26.16,-33.16,0.946471,-0.003082,-0.041627,-0.319987,0.0,0.0,0.0,0,0
2026-06-16 16:01:16.098,1689362,L_Shank,0.0116,-0.041,0.9786,1.77,-1.24,-0.17,-10.74,14.36,-27.14,0.997742,-0.016663,-0.031373,0.05649,0.0,0.0,0.0,0,0
2026-06-16 16:01:16.098,1689236,R_Shank,0.0399,-0.9728,0.9989,-0.09,-1.47,-8.43,-12.54,25.53,-22.48,0.901425,0.036012,-0.018036,0.431013,0.0,0.0,0.0,0,0
2026-06-16 16:01:16.101,1689382,L_Shank,0.0248,-0.0439,0.9868,1.78,-1.25,-0.17,0.0,0.0,0.0,0.997742,-0.016663,-0.031343,0.05649,0.0,0.0,0.0,0,0
2026-06-16 16:01:16.102,1689256,R_Shank,0.0409,2.4984,1.0287,-0.1,-1.46,-8.43,0.0,0.0,0.0,0.901425,0.036042,-0.018067,0.431043,0.0,0.0,0.0,0,0
