python_time,esp32_hw_time,sensor_name,ax,ay,az,gx,gy,gz,mx,my,mz,q0,q1,q2,q3,quat_roll,quat_pitch,quat_yaw,is_paused_flag,t_pose_flag
2026-06-16 16:13:37.921,2431052,R_Shank,-0.0302,0.5752,0.5372,2.32,-0.9,-7.96,-5.46,-25.29,-12.84,0.700125,-0.005371,0.026917,-0.713462,0.0,0.0,0.0,0,0
2026-06-16 16:13:37.923,2431072,R_Shank,-0.0282,-2.7732,0.5517,2.81,-0.83,-8.06,-4.75,-25.65,-14.96,0.700369,-0.003906,0.025941,-0.713279,0.0,0.0,0.0,0,0
2026-06-16 16:13:37.924,2431186,L_Shank,-0.0343,-0.1618,0.9551,1.82,-1.07,-0.34,26.09,27.03,-9.92,0.778008,-0.062044,-0.048738,0.623218,0.0,0.0,0.0,0,0
2026-06-16 16:13:37.925,2431092,R_Shank,-0.0341,0.3028,0.5358,3.35,-0.9,-8.19,0.0,0.0,0.0,0.700522,-0.001923,0.024415,-0.713187,0.0,0.0,0.0,0,0
2026-06-16 16:13:37.926,2431206,L_Shank,-0.0353,-0.1609,0.9522,1.8,-1.06,-0.45,24.87,27.21,-10.37,0.778008,-0.061892,-0.048799,0.623249,0.0,0.0,0.0,0,0
2026-06-16 16:13:37.928,2431112,R_Shank,-0.0852,-1.2452,0.5147,4.55,-1.5,-8.55,-5.09,-25.64,-14.36,0.700522,0.00058,0.022034,-0.713248,0.0,0.0,0.0,0,0
2026-06-16 16:13:37.929,2431187,L_Shank,-0.0348,-0.1633,0.9604,1.82,-1.03,-0.48,0.0,0.0,0.0,0.778008,-0.061739,-0.04886,0.62328,0.0,0.0,0.0,0,0
2026-06-16 16:13:37.930,2431207,L_Shank,-0.0421,-0.1594,0.9729,1.8,-1.0,-0.51,25.75,26.36,-10.84,0.777978,-0.061647,-0.048891,0.62328,0.0,0.0,0.0,0,0
2026-06-16 16:13:37.932,2431063,R_Hip,-0.1417,-0.6252,-0.0312,4.81,-2.09,2.12,-13.39,3.13,-33.08,0.172399,-0.074007,0.660695,-0.726798,0.0,0.0,0.0,0,0
2026-06-16 16:13:37.934,2431083,R_Hip,-0.1481,-0.6164,-0.0158,5.22,-2.1,1.88,0.0,0.0,0.0,0.173132,-0.073489,0.658467,-0.728721,0.0,0.0,0.0,0,0
2026-06-16 16:13:37.935,2431103,R_Hip,-0.1535,-0.6223,-0.0235,5.64,-2.11,1.62,-12.84,3.68,-32.57,0.173681,-0.073061,0.655751,-0.731071,0.0,0.0,0.0,0,0
2026-06-16 16:13:37.938,2431123,R_Hip,-0.1629,-0.6887,-0.0139,6.38,-2.19,1.06,-13.39,4.96,-33.09,0.174017,-0.072817,0.652608,-0.733818,0.0,0.0,0.0,0,0
2026-06-16 16:13:37.941,2431204,L_Hip,-0.2468,0.8636,0.4221,-4.22,4.36,2.75,20.3,1.02,-35.2,0.842586,0.470595,0.210883,0.155095,0.0,0.0,0.0,0,0
2026-06-16 16:13:37.942,2431224,L_Hip,-0.2522,0.8612,0.4124,-4.25,4.43,2.77,19.66,2.63,-35.78,0.842555,0.470626,0.21073,0.1554,0.0,0.0,0.0,0,0
2026-06-16 16:13:37.944,2431244,L_Hip,-0.2625,0.8656,0.4313,-4.25,4.49,2.81,0.0,0.0,0.0,0.842555,0.470626,0.210547,0.155675,0.0,0.0,0.0,0,0
2026-06-16 16:13:37.946,2431264,L_Hip,-0.2522,0.8666,0.4361,-4.26,4.52,2.82,20.18,3.12,-35.64,0.842586,0.470595,0.210334,0.155889,0.0,0.0,0.0,0,0
2026-06-16 16:13:37.948,2431211,L_Shank,-0.0582,-0.1628,0.9566,1.74,-0.98,-0.32,25.21,26.86,-9.75,0.777856,-0.061312,-0.049104,0.623463,0.0,0.0,0.0,0,0
2026-06-16 16:13:37.950,2431231,L_Shank,-0.0734,-0.1594,0.9686,1.74,-1.0,-0.29,24.35,27.72,-10.84,0.777856,-0.061251,-0.049104,0.623463,0.0,0.0,0.0,0,0
2026-06-16 16:13:37.952,2431212,L_Shank,-0.0753,-0.1692,0.959,1.7,-1.03,-0.29,0.0,0.0,0.0,0.777886,-0.06119,-0.049043,0.623463,0.0,0.0,0.0,0,0
2026-06-16 16:13:37.954,2431232,L_Shank,-0.0709,-0.1618,0.9676,1.7,-1.04,-0.29,22.77,25.85,-10.34,0.777947,-0.061129,-0.049013,0.623371,0.0,0.0,0.0,0,0
2026-06-16 16:13:37.955,2431216,L_Ankle,0.0634,-0.2074,0.9525,5.32,-0.77,-10.25,27.33,26.85,-9.01,-0.610187,0.017884,0.105747,-0.784936,0.0,0.0,0.0,0,0
2026-06-16 16:13:37.958,2431236,L_Ankle,0.0624,-0.2138,0.964,5.31,-0.8,-10.23,0.0,0.0,0.0,-0.610187,0.017823,0.105716,-0.784936,0.0,0.0,0.0,0,0
2026-06-16 16:13:37.959,2431256,L_Ankle,0.0629,-0.2113,0.9534,5.3,-0.8,-10.23,26.83,25.97,-8.17,-0.610218,0.017792,0.105655,-0.784936,0.0,0.0,0.0,0,0
2026-06-16 16:13:37.961,2431276,L_Ankle,0.0771,-0.2192,0.9554,5.31,-0.82,-10.23,27.88,25.96,-8.15,-0.610218,0.017792,0.105625,-0.784906,0.0,0.0,0.0,0,0
2026-06-16 16:13:37.963,2431226,L_Hip,-0.2576,0.8651,0.4269,-4.27,4.57,2.91,20.15,2.15,-35.06,0.842555,0.470626,0.210181,0.156133,0.0,0.0,0.0,0,0
2026-06-16 16:13:37.965,2431246,L_Hip,-0.2492,0.8651,0.4197,-4.24,4.58,2.93,17.78,2.1,-35.02,0.842524,0.470717,0.210028,0.156285,0.0,0.0,0.0,0,0
2026-06-16 16:13:37.967,2431097,R_Shank,-0.1087,0.8144,0.5248,6.67,-3.78,-9.77,-6.11,-25.94,-13.44,0.700247,0.003296,0.018555,-0.713614,0.0,0.0,0.0,0,0
2026-06-16 16:13:37.967,2431227,L_Hip,-0.2556,0.869,0.4109,-4.25,4.57,2.96,0.0,0.0,0.0,0.842433,0.47084,0.209937,0.156438,0.0,0.0,0.0,0,0
2026-06-16 16:13:37.969,2431117,R_Shank,-0.1313,1.0732,0.6333,6.97,-4.08,-10.06,-5.29,-25.46,-12.7,0.699667,0.005921,0.01413,-0.714255,0.0,0.0,0.0,0,0
2026-06-16 16:13:37.970,2431247,L_Hip,-0.2448,0.8636,0.4298,-4.29,4.54,3.03,19.27,1.96,-33.15,0.842341,0.470992,0.209906,0.15656,0.0,0.0,0.0,0,0
2026-06-16 16:13:37.971,2431137,R_Shank,-0.2285,1.5784,0.7967,7.04,-4.05,-10.45,0.0,0.0,0.0,0.698752,0.008515,0.009217,-0.715232,0.0,0.0,0.0,0,0
2026-06-16 16:13:37.974,2431157,R_Shank,-0.4106,1.1096,1.9313,5.11,-2.08,-14.51,-6.45,-27.25,-11.34,0.696371,0.011689,0.005768,-0.717521,0.0,0.0,0.0,0,0
2026-06-16 16:13:37.975,2431237,L_Shank,-0.0616,-0.1692,0.9834,1.7,-1.11,-0.27,25.22,27.88,-10.07,0.778069,-0.061098,-0.048952,0.623249,0.0,0.0,0.0,0,0
2026-06-16 16:13:37.977,2431257,L_Shank,-0.0753,-0.1618,0.9614,1.7,-1.16,-0.25,0.0,0.0,0.0,0.778191,-0.061068,-0.04886,0.623096,0.0,0.0,0.0,0,0
2026-06-16 16:13:37.979,2431277,L_Shank,-0.0685,-0.1638,0.9618,1.69,-1.17,-0.24,24.0,26.37,-11.13,0.778344,-0.061098,-0.048769,0.622913,0.0,0.0,0.0,0,0
2026-06-16 16:13:37.981,2431297,L_Shank,-0.0822,-0.1682,0.9513,1.7,-1.18,-0.22,24.35,27.39,-11.15,0.778497,-0.061129,-0.048647,0.62273,0.0,0.0,0.0,0,0
2026-06-16 16:13:37.982,2431112,R_Hip,-0.559,-2.0155,-0.4428,7.64,-3.2,-0.65,-13.75,4.23,-33.09,0.174169,-0.073,0.649159,-0.736808,0.0,0.0,0.0,0,0
2026-06-16 16:13:37.984,2431132,R_Hip,-0.3913,-2.0155,-0.4153,7.52,-4.09,-6.29,0.0,0.0,0.0,0.173894,-0.074129,0.645955,-0.739555,0.0,0.0,0.0,0,0
2026-06-16 16:13:37.986,2431152,R_Hip,0.1433,-2.0155,0.3277,4.67,-8.63,-11.67,-15.57,2.77,-31.72,0.170873,-0.080386,0.643696,-0.741569,0.0,0.0,0.0,0,0
2026-06-16 16:13:37.989,2431172,R_Hip,0.5339,-2.0155,1.4106,-5.03,-7.48,-8.55,-13.93,3.68,-32.23,0.166906,-0.0918,0.64214,-0.742515,0.0,0.0,0.0,0,0
2026-06-16 16:13:37.991,2431120,R_Shank,1.9818,1.1376,1.9313,-4.4,-4.47,-13.45,-7.15,-24.6,-13.42,0.690756,0.013337,0.00531,-0.722892,0.0,0.0,0.0,0,0
2026-06-16 16:13:37.993,2431140,R_Shank,-0.3252,0.8892,1.217,-0.47,9.83,-10.99,-6.63,-26.09,-12.39,0.687368,0.003784,0.001679,-0.726279,0.0,0.0,0.0,0,0
2026-06-16 16:13:37.995,2431160,R_Shank,-0.8499,0.8625,0.2413,1.92,15.41,-8.62,0.0,0.0,0.0,0.686605,0.006928,0.010315,-0.72689,0.0,0.0,0.0,0,0
2026-06-16 16:13:37.997,2431180,R_Shank,-0.8873,-1.3572,-0.2625,3.76,4.81,-5.38,-4.41,-26.64,-13.47,0.687429,0.0141,0.018189,-0.725852,0.0,0.0,0.0,0,0
2026-06-16 16:13:38.001,2431132,R_Ankle,0.0008,0.3192,0.5622,2.75,-1.56,1.56,-19.47,-24.26,-20.07,0.980438,0.013642,-0.081454,0.178533,0.0,0.0,0.0,0,0
2026-06-16 16:13:38.003,2431152,R_Ankle,0.0224,0.3148,0.5459,3.12,-1.47,1.42,-17.09,-23.91,-20.66,0.980193,0.016053,-0.081149,0.179876,0.0,0.0,0.0,0,0
2026-06-16 16:13:38.005,2431172,R_Ankle,0.042,0.3054,0.5402,3.24,-1.39,1.25,-17.57,-22.82,-19.29,0.979919,0.01886,-0.080721,0.18128,0.0,0.0,0.0,0,0
2026-06-16 16:13:38.007,2431192,R_Ankle,0.0704,0.2603,0.5292,3.32,-1.27,1.02,0.0,0.0,0.0,0.979644,0.021882,-0.080264,0.182531,0.0,0.0,0.0,0,0
2026-06-16 16:13:38.009,2431271,L_Hip,-0.238,0.8666,0.4318,-4.23,4.51,3.13,17.28,2.26,-34.87,0.842189,0.471206,0.209906,0.156713,0.0,0.0,0.0,0,0
2026-06-16 16:13:38.010,2431291,L_Hip,-0.2438,0.8666,0.4381,-4.2,4.54,3.16,20.83,2.16,-35.36,0.842036,0.471419,0.209906,0.156835,0.0,0.0,0.0,0,0
2026-06-16 16:13:38.012,2431311,L_Hip,-0.2399,0.8661,0.4313,-4.19,4.59,3.14,0.0,0.0,0.0,0.841914,0.471633,0.209876,0.156957,0.0,0.0,0.0,0,0
2026-06-16 16:13:38.014,2431272,L_Hip,-0.2483,0.8656,0.4356,-4.19,4.7,3.12,19.0,2.3,-36.93,0.841792,0.471816,0.209845,0.157079,0.0,0.0,0.0,0,0
2026-06-16 16:13:38.032,2431163,R_Hip,-0.7868,-0.5178,-0.0134,-3.68,9.01,8.52,-13.39,4.23,-33.77,0.162664,-0.090823,0.642506,-0.743248,0.0,0.0,0.0,0,0
2026-06-16 16:13:38.033,2431183,R_Hip,-0.7661,-0.4382,-0.1646,-3.39,6.74,12.24,0.0,0.0,0.0,0.162145,-0.080782,0.645924,-0.741569,0.0,0.0,0.0,0,0
2026-06-16 16:13:38.035,2431203,R_Hip,-0.5486,-0.2927,-0.2002,-2.64,3.19,13.7,-13.38,2.03,-31.37,0.166356,-0.070803,0.649373,-0.738639,0.0,0.0,0.0,0,0
2026-06-16 16:13:38.038,2431223,R_Hip,-0.2611,-0.3972,-0.2762,-2.11,-2.83,13.28,-13.2,2.95,-31.54,0.172887,-0.064913,0.652058,-0.735282,0.0,0.0,0.0,0,0
2026-06-16 16:13:38.043,2431306,L_Ankle,0.0751,-0.2113,0.9717,5.27,-0.85,-10.21,27.53,26.32,-7.81,-0.610248,0.017823,0.105594,-0.784906,0.0,0.0,0.0,0,0
2026-06-16 16:13:38.045,2431326,L_Ankle,0.0756,-0.2182,0.9712,5.3,-0.88,-10.25,27.34,26.85,-8.33,-0.610279,0.017914,0.105502,-0.784906,0.0,0.0,0.0,0,0
2026-06-16 16:13:38.047,2431307,L_Ankle,0.0707,-0.228,0.9592,5.31,-0.88,-10.25,28.22,26.3,-8.48,-0.610279,0.017975,0.105411,-0.784906,0.0,0.0,0.0,0,0
2026-06-16 16:13:38.049,2431327,L_Ankle,0.0737,-0.2236,0.965,5.32,-0.89,-10.26,28.06,25.42,-8.66,-0.610309,0.018097,0.105289,-0.784906,0.0,0.0,0.0,0,0
2026-06-16 16:13:38.051,2431311,L_Shank,-0.0582,-0.1638,0.9671,1.67,-1.21,-0.12,25.39,26.02,-10.21,0.778619,-0.06122,-0.048494,0.622578,0.0,0.0,0.0,0,0
2026-06-16 16:13:38.053,2431331,L_Shank,-0.0519,-0.1614,0.9786,1.67,-1.2,-0.07,0.0,0.0,0.0,0.778741,-0.061281,-0.048311,0.622456,0.0,0.0,0.0,0,0
2026-06-16 16:13:38.055,2431351,L_Shank,-0.0636,-0.1736,0.9628,1.66,-1.19,-0.07,24.18,26.88,-11.3,0.778802,-0.061373,-0.048158,0.622364,0.0,0.0,0.0,0,0
2026-06-16 16:13:38.056,2431187,R_Hip,0.0466,-0.861,0.0226,2.07,-6.54,4.61,-13.75,2.77,-34.11,0.179357,-0.062563,0.652608,-0.733451,0.0,0.0,0.0,0,0
2026-06-16 16:13:38.058,2431371,L_Shank,-0.0631,-0.1873,0.9686,1.68,-1.2,-0.06,26.11,26.38,-12.09,0.778863,-0.061495,-0.047975,0.622272,0.0,0.0,0.0,0,0
2026-06-16 16:13:38.059,2431207,R_Hip,0.0801,-0.8952,0.0466,1.37,-5.41,2.82,0.0,0.0,0.0,0.183416,-0.06354,0.65157,-0.733299,0.0,0.0,0.0,0,0
2026-06-16 16:13:38.061,2431227,R_Hip,0.0944,-0.9386,0.0596,1.65,-4.64,0.95,-12.48,3.32,-32.91,0.184545,-0.065767,0.65038,-0.733879,0.0,0.0,0.0,0,0
2026-06-16 16:13:38.062,2431247,R_Hip,0.0639,-0.9899,0.0702,2.24,-3.7,-1.23,-14.12,3.86,-32.74,0.183721,-0.068636,0.648793,-0.735221,0.0,0.0,0.0,0,0
2026-06-16 16:13:38.066,2431329,L_Ankle,0.0644,-0.2206,0.9616,5.38,-0.92,-10.23,28.06,26.49,-7.63,-0.610309,0.01822,0.105197,-0.784906,0.0,0.0,0.0,0,0
2026-06-16 16:13:38.068,2431349,L_Ankle,0.0678,-0.2138,0.9693,5.4,-0.93,-10.24,0.0,0.0,0.0,-0.610279,0.018342,0.105075,-0.784936,0.0,0.0,0.0,0,0
2026-06-16 16:13:38.069,2431200,R_Ankle,0.0836,0.1572,0.6226,3.04,-0.62,0.16,-16.72,-23.61,-19.12,0.979431,0.024903,-0.079775,0.183508,0.0,0.0,0.0,0,0
2026-06-16 16:13:38.071,2431369,L_Ankle,0.0629,-0.2099,0.9578,5.41,-0.96,-10.22,27.53,26.67,-7.81,-0.610279,0.018494,0.104984,-0.784967,0.0,0.0,0.0,0,0
2026-06-16 16:13:38.072,2431220,R_Ankle,0.0366,0.1017,0.6714,2.79,-0.48,0.21,-17.73,-23.32,-17.59,0.979278,0.02765,-0.079348,0.184149,0.0,0.0,0.0,0,0
2026-06-16 16:13:38.073,2431389,L_Ankle,0.0776,-0.2109,0.9693,5.4,-0.96,-10.23,28.57,25.59,-8.82,-0.610248,0.018647,0.104862,-0.784997,0.0,0.0,0.0,0,0
2026-06-16 16:13:38.074,2431240,R_Ankle,-0.5665,-0.1895,1.034,2.46,-0.41,0.29,0.0,0.0,0.0,0.979156,0.029939,-0.078677,0.184668,0.0,0.0,0.0,0,0
2026-06-16 16:13:38.076,2431339,L_Hip,-0.2512,0.8695,0.4405,-4.19,4.76,3.05,19.3,1.65,-35.19,0.8417,0.471969,0.209784,0.157231,0.0,0.0,0.0,0,0
2026-06-16 16:13:38.077,2431260,R_Ankle,-1.3608,-1.1099,2.0159,-3.66,2.24,-2.11,-17.42,-24.57,-19.43,0.979186,0.030793,-0.076632,0.185308,0.0,0.0,0.0,0,0
2026-06-16 16:13:38.078,2431359,L_Hip,-0.2532,0.868,0.4226,-4.19,4.74,2.98,20.49,3.12,-34.48,0.84167,0.47203,0.209693,0.157384,0.0,0.0,0.0,0,0
2026-06-16 16:13:38.081,2431379,L_Hip,-0.2507,0.8538,0.4163,-4.18,4.74,2.95,0.0,0.0,0.0,0.841639,0.47206,0.209632,0.157537,0.0,0.0,0.0,0,0
2026-06-16 16:13:38.082,2431212,R_Hip,-0.0968,-0.9972,0.0842,2.19,-1.84,-3.04,-13.57,4.41,-31.21,0.182073,-0.071596,0.647145,-0.736808,0.0,0.0,0.0,0,0
2026-06-16 16:13:38.084,2431399,L_Hip,-0.2492,0.8543,0.4177,-4.16,4.74,2.96,18.63,2.28,-35.18,0.841609,0.472091,0.209601,0.157628,0.0,0.0,0.0,0,0
2026-06-16 16:13:38.084,2431232,R_Hip,-0.1664,-1.0182,0.1087,1.7,-1.07,-3.36,0.0,0.0,0.0,0.179662,-0.07419,0.645619,-0.738456,0.0,0.0,0.0,0,0
2026-06-16 16:13:38.086,2431252,R_Hip,-0.2344,-1.0392,0.1049,1.03,-0.3,-3.39,-13.75,2.77,-32.4,0.17658,-0.076022,0.644734,-0.739799,0.0,0.0,0.0,0,0
2026-06-16 16:13:38.089,2431351,L_Ankle,0.0717,-0.2148,0.9525,5.35,-1.0,-10.36,28.76,26.12,-7.96,-0.610218,0.018769,0.10477,-0.785028,0.0,0.0,0.0,0,0
2026-06-16 16:13:38.089,2431272,R_Hip,-0.2916,-1.1041,0.1203,-0.45,0.87,-2.83,-13.75,3.13,-33.08,0.173315,-0.076815,0.644826,-0.74041,0.0,0.0,0.0,0,0
2026-06-16 16:13:38.091,2431371,L_Ankle,0.0756,-0.227,0.9736,5.37,-1.02,-10.36,0.0,0.0,0.0,-0.610187,0.018891,0.104678,-0.785058,0.0,0.0,0.0,0,0
2026-06-16 16:13:38.093,2431391,L_Ankle,0.0717,-0.2265,0.9587,5.37,-1.02,-10.38,27.89,25.6,-8.15,-0.610157,0.018983,0.104648,-0.785089,0.0,0.0,0.0,0,0
2026-06-16 16:13:38.094,2431411,L_Ankle,0.083,-0.2285,0.9784,5.39,-1.02,-10.38,26.8,25.97,-9.87,-0.610126,0.019105,0.104617,-0.785089,0.0,0.0,0.0,0,0
2026-06-16 16:13:38.101,2431233,R_Shank,0.0051,-1.7836,0.641,1.78,-6.75,4.58,-5.95,-26.11,-12.69,0.691702,0.014344,0.016327,-0.721824,0.0,0.0,0.0,0,0
2026-06-16 16:13:38.103,2431253,R_Shank,0.0708,3.1424,0.8918,1.41,-4.25,3.4,0.0,0.0,0.0,0.698172,0.012696,0.011597,-0.71572,0.0,0.0,0.0,0,0
2026-06-16 16:13:38.105,2431273,R_Shank,0.1273,1.212,0.7871,0.87,-2.69,1.34,-6.96,-26.09,-12.98,0.703574,0.013245,0.008454,-0.71044,0.0,0.0,0.0,0,0
2026-06-16 16:13:38.107,2431293,R_Shank,0.1381,0.6048,0.5757,-0.46,-1.93,-3.75,-6.8,-24.94,-13.73,0.706565,0.013764,0.006378,-0.70748,0.0,0.0,0.0,0,0
2026-06-16 16:13:38.109,2431237,R_Hip,-0.3099,-1.0821,0.0375,-1.7,0.71,-0.15,-13.93,3.68,-31.55,0.170415,-0.076876,0.645589,-0.74041,0.0,0.0,0.0,0,0
2026-06-16 16:13:38.110,2431257,R_Hip,-0.3079,-1.0416,0.0052,-1.64,0.37,0.6,0.0,0.0,0.0,0.168401,-0.076479,0.646718,-0.739921,0.0,0.0,0.0,0,0
2026-06-16 16:13:38.112,2431277,R_Hip,-0.3094,-1.0104,-0.0173,-1.51,-0.09,1.29,-14.11,2.77,-32.4,0.167425,-0.075747,0.648,-0.739128,0.0,0.0,0.0,0,0
2026-06-16 16:13:38.115,2431297,R_Hip,-0.2887,-1.0162,-0.0385,-1.41,-1.39,2.7,-13.2,4.78,-32.23,0.167669,-0.075014,0.64922,-0.73806,0.0,0.0,0.0,0,0
2026-06-16 16:13:38.123,2431255,R_Shank,-0.0989,2.2796,1.2703,0.66,-2.13,-11.29,-4.6,-26.46,-12.41,0.694479,0.008698,0.009583,-0.719382,0.0,0.0,0.0,0,0
2026-06-16 16:13:38.125,2431275,R_Shank,-0.1014,-2.9852,1.1022,0.71,-2.63,-10.18,0.0,0.0,0.0,0.692679,0.008606,0.0094,-0.721122,0.0,0.0,0.0,0,0
2026-06-16 16:13:38.127,2431295,R_Shank,-0.1004,-2.9852,1.0787,0.61,-3.14,-9.25,-5.25,-27.12,-13.01,0.692007,0.008087,0.008728,-0.721763,0.0,0.0,0.0,0,0
2026-06-16 16:13:38.129,2431315,R_Shank,-0.1004,2.0336,1.021,0.13,-3.47,-7.47,-5.45,-25.62,-12.55,0.692282,0.007111,0.007996,-0.721519,0.0,0.0,0.0,0,0
2026-06-16 16:13:38.133,2431396,L_Ankle,0.0786,-0.2162,0.9597,5.46,-1.0,-10.35,28.04,26.13,-9.0,-0.610096,0.019196,0.104617,-0.785119,0.0,0.0,0.0,0,0
2026-06-16 16:13:38.135,2431416,L_Ankle,0.0776,-0.2157,0.9765,5.48,-0.99,-10.35,0.0,0.0,0.0,-0.610096,0.019257,0.104648,-0.785119,0.0,0.0,0.0,0,0
2026-06-16 16:13:38.137,2431268,R_Ankle,1.0004,-0.3356,0.4928,4.49,-5.72,-1.57,-17.94,-24.08,-20.82,0.980193,0.021424,-0.070437,0.183782,0.0,0.0,0.0,0,0
2026-06-16 16:13:38.138,2431436,L_Ankle,0.0815,-0.2167,0.9539,5.54,-0.99,-10.35,28.22,25.95,-8.82,-0.610065,0.019349,0.104648,-0.78515,0.0,0.0,0.0,0,0
2026-06-16 16:13:38.139,2431288,R_Ankle,0.8225,0.0908,0.3218,7.73,-2.19,0.62,-16.74,-24.88,-19.11,0.980224,0.007355,-0.077456,0.18189,0.0,0.0,0.0,0,0
2026-06-16 16:13:38.141,2431456,L_Ankle,0.083,-0.2138,0.9678,5.55,-0.98,-10.34,28.56,26.3,-8.82,-0.610004,0.01941,0.104709,-0.78518,0.0,0.0,0.0,0,0
2026-06-16 16:13:38.141,2431308,R_Ankle,-0.6488,1.4537,0.8357,5.23,1.07,3.7,0.0,0.0,0.0,0.979644,0.008728,-0.083071,0.182348,0.0,0.0,0.0,0,0
2026-06-16 16:13:38.144,2431328,R_Ankle,-0.1584,0.0472,0.9329,3.25,-0.87,3.11,-17.44,-24.54,-21.27,0.979369,0.015381,-0.079867,0.184851,0.0,0.0,0.0,0,0
2026-06-16 16:13:38.144,2431406,L_Hip,-0.2463,0.8715,0.4322,-4.09,4.7,3.13,19.46,2.13,-34.18,0.841548,0.472121,0.209693,0.157659,0.0,0.0,0.0,0,0
2026-06-16 16:13:38.146,2431426,L_Hip,-0.2478,0.8641,0.4347,-4.09,4.61,3.25,18.34,3.89,-35.76,0.841517,0.472152,0.209754,0.157659,0.0,0.0,0.0,0,0
2026-06-16 16:13:38.148,2431446,L_Hip,-0.2404,0.8671,0.4366,-4.08,4.55,3.28,0.0,0.0,0.0,0.841517,0.472182,0.209784,0.157598,0.0,0.0,0.0,0,0
2026-06-16 16:13:38.150,2431466,L_Hip,-0.2365,0.8621,0.4366,-4.07,4.52,3.31,19.44,1.49,-34.17,0.841517,0.472213,0.209845,0.157476,0.0,0.0,0.0,0,0
2026-06-16 16:13:38.157,2431288,R_Hip,-0.1738,-1.1227,0.0023,-1.16,-4.28,3.86,-13.21,1.86,-34.28,0.169134,-0.074709,0.650319,-0.736778,0.0,0.0,0.0,0,0
2026-06-16 16:13:38.158,2431308,R_Hip,-0.1432,-1.1393,0.0177,-1.02,-4.63,3.72,0.0,0.0,0.0,0.171331,-0.075014,0.651143,-0.735527,0.0,0.0,0.0,0,0
2026-06-16 16:13:38.161,2431328,R_Hip,-0.0968,-1.1778,0.0336,-0.84,-4.77,3.54,-16.3,5.69,-32.75,0.173559,-0.075991,0.651601,-0.734489,0.0,0.0,0.0,0,0
2026-06-16 16:13:38.163,2431348,R_Hip,-0.013,-1.1554,0.0495,-0.5,-4.35,2.98,-14.84,2.77,-32.74,0.175237,-0.077303,0.651753,-0.733818,0.0,0.0,0.0,0,0
2026-06-16 16:13:38.191,2431322,R_Shank,-0.0208,-0.2648,1.0225,-1.35,-1.22,-3.73,-5.59,-26.45,-13.6,0.693594,0.006073,0.008026,-0.720267,0.0,0.0,0.0,0,0
2026-06-16 16:13:38.193,2431342,R_Shank,0.0571,-2.5832,1.008,-1.56,-0.97,-3.41,0.0,0.0,0.0,0.695791,0.005036,0.009033,-0.718131,0.0,0.0,0.0,0,0
2026-06-16 16:13:38.195,2431362,R_Shank,0.0581,2.8044,1.0133,-1.66,-0.93,-3.29,-6.44,-26.27,-13.74,0.698325,0.003906,0.010285,-0.715659,0.0,0.0,0.0,0,0
2026-06-16 16:13:38.197,2431382,R_Shank,-0.0066,-0.8164,1.0662,-1.58,-1.12,-3.2,-5.94,-25.78,-13.6,0.700949,0.002869,0.011231,-0.713095,0.0,0.0,0.0,0,0
2026-06-16 16:13:38.199,2431462,L_Shank,-0.0621,-0.1995,0.9714,1.69,-1.32,-0.16,23.99,27.02,-9.58,0.778924,-0.061617,-0.047823,0.622211,0.0,0.0,0.0,0,0
2026-06-16 16:13:38.201,2431482,L_Shank,-0.0553,-0.1829,0.9714,1.67,-1.32,-0.12,24.35,27.72,-10.84,0.778954,-0.061769,-0.0477,0.622181,0.0,0.0,0.0,0,0
2026-06-16 16:13:38.203,2431502,L_Shank,-0.0563,-0.1662,0.97,1.69,-1.3,-0.03,23.29,26.35,-9.88,0.778985,-0.061892,-0.047578,0.62212,0.0,0.0,0.0,0,0
2026-06-16 16:13:38.205,2431522,L_Shank,-0.0651,-0.1618,0.9724,1.72,-1.25,0.11,26.1,27.39,-11.48,0.779015,-0.062014,-0.047517,0.622089,0.0,0.0,0.0,0,0
2026-06-16 16:13:38.207,2431337,R_Hip,-0.0697,-1.1754,0.0582,-0.48,-2.29,2.78,-14.11,3.49,-31.03,0.176122,-0.078433,0.651784,-0.733451,0.0,0.0,0.0,0,0
2026-06-16 16:13:38.208,2431357,R_Hip,-0.0796,-1.1827,0.0442,-0.7,-2.15,2.79,0.0,0.0,0.0,0.176641,-0.078921,0.651997,-0.733085,0.0,0.0,0.0,0,0
2026-06-16 16:13:38.211,2431377,R_Hip,-0.0613,-1.2135,0.0784,-1.05,-2.14,2.75,-13.38,2.76,-31.37,0.177068,-0.079196,0.652516,-0.732475,0.0,0.0,0.0,0,0
2026-06-16 16:13:38.212,2431474,L_Hip,-0.2409,0.8705,0.4502,-4.02,4.47,3.24,19.63,2.3,-34.32,0.841517,0.472243,0.209876,0.157292,0.0,0.0,0.0,0,0
2026-06-16 16:13:38.214,2431397,R_Hip,-0.0658,-1.2247,0.1077,-1.92,-1.93,2.61,-14.66,3.68,-32.23,0.177282,-0.079623,0.653401,-0.73162,0.0,0.0,0.0,0,0
2026-06-16 16:13:38.214,2431494,L_Hip,-0.2404,0.8749,0.4356,-4.02,4.51,3.14,19.49,3.1,-35.05,0.841548,0.472213,0.209876,0.157079,0.0,0.0,0.0,0,0
2026-06-16 16:13:38.216,2431514,L_Hip,-0.2272,0.8808,0.4293,-4.0,4.51,3.09,0.0,0.0,0.0,0.841639,0.472213,0.209876,0.156804,0.0,0.0,0.0,0,0
2026-06-16 16:13:38.216,2431345,R_Shank,-0.0366,-1.4908,1.1233,-1.12,-1.14,-3.71,-7.32,-25.09,-12.37,0.703452,0.002197,0.011902,-0.710623,0.0,0.0,0.0,0,0
2026-06-16 16:13:38.218,2431534,L_Hip,-0.2335,0.87,0.4371,-3.99,4.54,3.05,19.97,1.98,-34.91,0.8417,0.472182,0.209845,0.156499,0.0,0.0,0.0,0,0
2026-06-16 16:13:38.219,2431365,R_Shank,-0.0415,-2.0092,1.1555,-0.98,-1.09,-4.02,-5.97,-24.79,-12.99,0.705832,0.001984,0.01236,-0.708243,0.0,0.0,0.0,0,0
2026-06-16 16:13:38.221,2431385,R_Shank,-0.0586,-0.3384,1.1603,-0.87,-1.07,-4.47,-6.47,-25.59,-11.63,0.707877,0.002045,0.012635,-0.706168,0.0,0.0,0.0,0,0
2026-06-16 16:13:38.223,2431405,R_Shank,-0.0694,3.126,1.2655,-1.04,-0.87,-5.87,-5.79,-25.28,-12.84,0.709342,0.002197,0.013062,-0.704703,0.0,0.0,0.0,0,0
2026-06-16 16:13:38.233,2431496,L_Hip,-0.2252,0.8784,0.408,-3.93,4.61,2.93,19.96,1.98,-34.33,0.841792,0.472121,0.209815,0.156194,0.0,0.0,0.0,0,0
2026-06-16 16:13:38.235,2431516,L_Hip,-0.235,0.8779,0.4008,-3.91,4.62,2.94,20.33,1.67,-36.37,0.841884,0.472091,0.209754,0.155919,0.0,0.0,0.0,0,0
2026-06-16 16:13:38.236,2431367,R_Shank,0.0213,-0.986,1.4394,-3.03,-0.99,-8.89,-6.96,-26.09,-12.98,0.710044,0.001984,0.013672,-0.70397,0.0,0.0,0.0,0,0
2026-06-16 16:13:38.237,2431536,L_Hip,-0.237,0.8749,0.3945,-3.92,4.62,2.93,0.0,0.0,0.0,0.841975,0.47206,0.209723,0.155614,0.0,0.0,0.0,0,0
2026-06-16 16:13:38.239,2431387,R_Shank,0.0134,-1.9956,1.3991,-3.44,-0.71,-9.54,-6.64,-25.43,-12.38,0.710013,0.001007,0.014649,-0.704001,0.0,0.0,0.0,0,0
2026-06-16 16:13:38.240,2431497,L_Hip,-0.2394,0.8764,0.394,-3.9,4.61,2.94,19.65,2.62,-34.91,0.842067,0.471999,0.209662,0.15537,0.0,0.0,0.0,0,0
2026-06-16 16:13:38.241,2431407,R_Shank,-0.0115,2.6412,1.3386,-3.74,-0.45,-10.03,-6.49,-24.93,-11.62,0.709342,-0.000244,0.016388,-0.704642,0.0,0.0,0.0,0,0
2026-06-16 16:13:38.243,2431427,R_Shank,-0.0626,1.2364,1.2199,-4.03,-0.13,-10.43,0.0,0.0,0.0,0.708365,-0.001617,0.018799,-0.705557,0.0,0.0,0.0,0,0
2026-06-16 16:13:38.248,2431380,R_Ankle,-0.0751,-0.076,0.8989,3.02,-1.24,0.7,-17.74,-23.3,-19.13,0.979064,0.017487,-0.07889,0.186743,0.0,0.0,0.0,0,0
2026-06-16 16:13:38.249,2431511,L_Shank,-0.0343,-0.199,0.9782,1.76,-1.36,-0.18,25.4,27.05,-11.47,0.778985,-0.06238,-0.047365,0.622089,0.0,0.0,0.0,0,0
2026-06-16 16:13:38.251,2431531,L_Shank,-0.047,-0.1902,0.9604,1.8,-1.32,0.0,0.0,0.0,0.0,0.778924,-0.062441,-0.047365,0.62215,0.0,0.0,0.0,0,0
2026-06-16 16:13:38.251,2431400,R_Ankle,-0.0726,-0.0507,0.8621,2.47,-1.35,1.33,-17.92,-23.46,-19.29,0.978881,0.018891,-0.079043,0.187506,0.0,0.0,0.0,0,0
2026-06-16 16:13:38.253,2431420,R_Ankle,-0.0074,-0.0057,0.8764,1.55,-2.22,1.98,0.0,0.0,0.0,0.978668,0.01999,-0.078463,0.188665,0.0,0.0,0.0,0,0
2026-06-16 16:13:38.254,2431551,L_Shank,-0.0387,-0.1848,0.9609,1.82,-1.3,0.02,24.35,27.38,-10.84,0.778863,-0.062532,-0.047395,0.622242,0.0,0.0,0.0,0,0
2026-06-16 16:13:38.256,2431440,R_Ankle,0.0562,0.0319,0.8985,1.07,-2.14,1.41,-16.9,-25.05,-18.34,0.978332,0.020753,-0.078463,0.190374,0.0,0.0,0.0,0,0
2026-06-16 16:13:38.256,2431571,L_Shank,-0.047,-0.1799,0.9642,1.85,-1.29,0.03,24.18,27.9,-11.31,0.778832,-0.062624,-0.047487,0.622272,0.0,0.0,0.0,0,0
2026-06-16 16:13:38.272,2431402,R_Ankle,-0.0907,-0.0067,0.9377,0.57,-1.72,-1.38,-18.09,-23.62,-19.13,0.978118,0.021271,-0.078799,0.191321,0.0,0.0,0.0,0,0
2026-06-16 16:13:38.273,2431422,R_Ankle,-0.0917,-0.0507,0.965,0.16,-1.93,-1.6,-17.76,-23.93,-19.74,0.978149,0.021668,-0.078585,0.191168,0.0,0.0,0.0,0,0
2026-06-16 16:13:38.275,2431442,R_Ankle,-0.0604,-0.0587,1.023,-0.17,-2.26,-1.48,0.0,0.0,0.0,0.978301,0.021729,-0.078372,0.190435,0.0,0.0,0.0,0,0
2026-06-16 16:13:38.277,2431462,R_Ankle,0.0733,-0.1241,1.0766,-0.29,-2.35,-1.25,-17.75,-24.89,-18.81,0.978454,0.021271,-0.078463,0.189673,0.0,0.0,0.0,0,0
2026-06-16 16:13:38.279,2431542,L_Hip,-0.2448,0.8759,0.4143,-3.99,4.54,2.98,20.66,2.0,-35.5,0.842128,0.471969,0.209662,0.155126,0.0,0.0,0.0,0,0
2026-06-16 16:13:38.281,2431562,L_Hip,-0.2424,0.8798,0.4037,-4.02,4.54,2.98,19.82,1.82,-35.92,0.842219,0.471908,0.209601,0.154912,0.0,0.0,0.0,0,0
2026-06-16 16:13:38.281,2431412,R_Hip,-0.1205,-1.0958,0.0692,-3.43,-0.53,2.48,-14.66,3.68,-31.89,0.17719,-0.079867,0.654744,-0.730399,0.0,0.0,0.0,0,0
2026-06-16 16:13:38.283,2431432,R_Hip,-0.1269,-1.0494,0.0461,-3.64,-0.25,2.54,0.0,0.0,0.0,0.176733,-0.079745,0.656575,-0.728874,0.0,0.0,0.0,0,0
2026-06-16 16:13:38.284,2431582,L_Hip,-0.2301,0.8798,0.4168,-4.09,4.51,2.98,20.14,1.51,-35.64,0.84228,0.471816,0.209601,0.154759,0.0,0.0,0.0,0,0
2026-06-16 16:13:38.286,2431602,L_Hip,-0.2438,0.8774,0.4129,-4.12,4.49,2.95,0.0,0.0,0.0,0.842341,0.471725,0.209632,0.154637,0.0,0.0,0.0,0,0
2026-06-16 16:13:38.286,2431452,R_Hip,-0.1175,-0.9982,0.0264,-3.77,0.01,2.55,-14.66,2.58,-31.89,0.176122,-0.079287,0.658712,-0.727134,0.0,0.0,0.0,0,0
2026-06-16 16:13:38.288,2431472,R_Hip,-0.1304,-0.9157,-0.0096,-3.84,0.4,2.49,-13.57,1.49,-32.57,0.175298,-0.078555,0.661031,-0.725303,0.0,0.0,0.0,0,0
2026-06-16 16:13:38.293,2431425,R_Ankle,-0.1618,-0.3386,1.3899,-0.54,-1.34,-3.2,-18.08,-23.31,-18.83,0.976623,0.015168,-0.086398,0.196142,0.0,0.0,0.0,0,0
2026-06-16 16:13:38.295,2431445,R_Ankle,-0.15,-0.2965,1.3569,-0.86,-1.19,-3.22,-16.74,-24.56,-19.42,0.97705,0.013947,-0.085452,0.194464,0.0,0.0,0.0,0,0
2026-06-16 16:13:38.297,2431465,R_Ankle,-0.1133,-0.2692,1.3061,-1.26,-0.9,-3.51,-17.93,-23.45,-20.21,0.977538,0.011963,-0.084536,0.192602,0.0,0.0,0.0,0,0
2026-06-16 16:13:38.299,2431485,R_Ankle,-0.0893,-0.2142,1.2151,-1.52,-0.8,-3.68,0.0,0.0,0.0,0.978027,0.009888,-0.083621,0.190588,0.0,0.0,0.0,0,0
2026-06-16 16:13:38.300,2431562,L_Shank,-0.046,-0.1711,0.9681,1.88,-1.27,-0.12,24.36,27.74,-12.09,0.778802,-0.062685,-0.047609,0.622303,0.0,0.0,0.0,0,0
2026-06-16 16:13:38.302,2431582,L_Shank,-0.047,-0.1775,0.9642,1.9,-1.29,-0.25,0.0,0.0,0.0,0.77868,-0.062685,-0.0477,0.622425,0.0,0.0,0.0,0,0
2026-06-16 16:13:38.304,2431602,L_Shank,-0.047,-0.1618,0.97,1.9,-1.28,-0.29,24.88,26.88,-10.99,0.778527,-0.062685,-0.04767,0.622608,0.0,0.0,0.0,0,0
2026-06-16 16:13:38.306,2431622,L_Shank,-0.0514,-0.1614,0.9777,1.9,-1.26,-0.35,24.7,27.39,-11.15,0.778405,-0.062716,-0.047639,0.622761,0.0,0.0,0.0,0,0
2026-06-16 16:13:38.308,2431564,L_Hip,-0.2409,0.87,0.4008,-4.17,4.35,2.66,19.28,1.97,-34.03,0.842616,0.471145,0.209937,0.154485,0.0,0.0,0.0,0,0
2026-06-16 16:13:38.310,2431584,L_Hip,-0.2497,0.8666,0.4037,-4.16,4.32,2.64,21.14,1.52,-34.49,0.842677,0.471053,0.209876,0.154576,0.0,0.0,0.0,0,0
2026-06-16 16:13:38.311,2431604,L_Hip,-0.2527,0.871,0.4114,-4.18,4.26,2.6,19.97,2.3,-34.62,0.842708,0.471023,0.209784,0.154729,0.0,0.0,0.0,0,0
2026-06-16 16:13:38.313,2431624,L_Hip,-0.2414,0.8784,0.4192,-4.19,4.23,2.61,0.0,0.0,0.0,0.842738,0.470962,0.209723,0.154851,0.0,0.0,0.0,0,0
2026-06-16 16:13:38.316,2431577,L_Ankle,0.0893,-0.2109,0.9626,5.58,-0.96,-10.39,27.7,25.78,-8.66,-0.609973,0.019471,0.104801,-0.785211,0.0,0.0,0.0,0,0
2026-06-16 16:13:38.317,2431597,L_Ankle,0.0776,-0.2109,0.9794,5.58,-0.93,-10.39,0.0,0.0,0.0,-0.609943,0.019471,0.104862,-0.785211,0.0,0.0,0.0,0,0
2026-06-16 16:13:38.319,2431617,L_Ankle,0.0815,-0.2192,0.9789,5.56,-0.91,-10.41,26.83,26.68,-7.49,-0.609912,0.019532,0.104953,-0.785211,0.0,0.0,0.0,0,0
2026-06-16 16:13:38.321,2431637,L_Ankle,0.08,-0.2148,0.9635,5.56,-0.91,-10.41,28.92,25.94,-8.47,-0.609882,0.019532,0.105045,-0.785241,0.0,0.0,0.0,0,0
2026-06-16 16:13:38.326,2431457,R_Shank,-0.0694,-1.328,1.022,-4.22,-0.16,-10.23,-6.62,-25.77,-13.59,0.707389,-0.002991,0.021455,-0.706442,0.0,0.0,0.0,0,0
2026-06-16 16:13:38.328,2431477,R_Shank,-0.0591,0.602,0.8668,-4.22,-0.1,-9.9,-6.31,-24.78,-12.98,0.706503,-0.004456,0.024201,-0.707236,0.0,0.0,0.0,0,0
2026-06-16 16:13:38.329,2431497,R_Shank,-0.0557,-3.2512,0.8168,-4.16,-0.08,-9.78,0.0,0.0,0.0,0.705771,-0.00589,0.026978,-0.707877,0.0,0.0,0.0,0,0
2026-06-16 16:13:38.332,2431517,R_Shank,-0.0626,-3.2512,0.69,-3.89,-0.1,-9.69,-5.13,-24.64,-13.14,0.7051,-0.007263,0.029664,-0.708426,0.0,0.0,0.0,0,0
2026-06-16 16:13:38.333,2431463,R_Hip,-0.1733,-0.7145,-0.0726,-3.32,0.61,2.38,-14.11,1.67,-32.05,0.174322,-0.077761,0.663381,-0.723502,0.0,0.0,0.0,0,0
2026-06-16 16:13:38.335,2431483,R_Hip,-0.1826,-0.7062,-0.0919,-3.08,0.48,2.38,0.0,0.0,0.0,0.173406,-0.076785,0.665609,-0.721763,0.0,0.0,0.0,0,0
2026-06-16 16:13:38.337,2431503,R_Hip,-0.2004,-0.6691,-0.0953,-2.75,0.24,2.37,-12.66,1.31,-32.73,0.172704,-0.075808,0.667623,-0.720176,0.0,0.0,0.0,0,0
2026-06-16 16:13:38.339,2431523,R_Hip,-0.1945,-0.6325,-0.1275,-1.98,-0.34,2.44,-13.02,2.4,-32.05,0.172338,-0.074953,0.66924,-0.718833,0.0,0.0,0.0,0,0
2026-06-16 16:13:38.341,2431470,R_Ankle,-0.0555,-0.0864,0.9693,-1.63,-0.6,-3.14,-17.4,-23.62,-18.82,0.978545,0.007782,-0.082797,0.18833,0.0,0.0,0.0,0,0
2026-06-16 16:13:38.342,2431490,R_Ankle,-0.0373,-0.0651,0.9147,-1.52,-0.61,-2.93,-17.41,-23.61,-19.74,0.979034,0.00586,-0.081973,0.186224,0.0,0.0,0.0,0,0
2026-06-16 16:13:38.344,2431510,R_Ankle,-0.0089,-0.029,0.8616,-1.33,-0.64,-2.77,-17.93,-24.41,-19.59,0.979461,0.004242,-0.08124,0.184362,0.0,0.0,0.0,0,0
2026-06-16 16:13:38.346,2431530,R_Ankle,0.0312,0.0175,0.7284,-1.06,-0.75,-2.31,0.0,0.0,0.0,0.979827,0.003052,-0.080691,0.182745,0.0,0.0,0.0,0,0
2026-06-16 16:13:38.347,2431610,L_Hip,-0.2532,0.8567,0.4231,-4.24,4.16,2.7,18.3,2.28,-35.18,0.842708,0.470901,0.209754,0.155004,0.0,0.0,0.0,0,0
2026-06-16 16:13:38.349,2431480,R_Shank,-0.0837,1.884,0.5435,-2.7,-0.32,-9.49,-5.44,-25.3,-13.75,0.704428,-0.008362,0.032136,-0.708945,0.0,0.0,0.0,0,0
2026-06-16 16:13:38.350,2431630,L_Hip,-0.2448,0.8646,0.4192,-4.24,4.15,2.74,17.77,1.14,-35.31,0.842708,0.470809,0.209845,0.155187,0.0,0.0,0.0,0,0
2026-06-16 16:13:38.351,2431500,R_Shank,-0.0729,2.1432,0.4902,-2.28,-0.46,-9.36,-5.28,-24.81,-13.9,0.703848,-0.009186,0.034272,-0.709433,0.0,0.0,0.0,0,0
2026-06-16 16:13:38.352,2431650,L_Hip,-0.2468,0.8479,0.4168,-4.24,4.16,2.85,19.47,2.13,-34.76,0.842708,0.470748,0.209937,0.155309,0.0,0.0,0.0,0,0
2026-06-16 16:13:38.353,2431520,R_Shank,-0.0793,0.4724,0.471,-1.83,-0.62,-9.22,0.0,0.0,0.0,0.703391,-0.009705,0.035859,-0.70983,0.0,0.0,0.0,0,0
2026-06-16 16:13:38.354,2431670,L_Hip,-0.2586,0.8636,0.4177,-4.22,4.16,2.88,0.0,0.0,0.0,0.842708,0.470656,0.210089,0.15537,0.0,0.0,0.0,0,0
2026-06-16 16:13:38.355,2431540,R_Shank,-0.0788,-0.6868,0.4445,-0.85,-0.93,-8.82,-5.64,-23.8,-13.58,0.703085,-0.009919,0.036805,-0.710044,0.0,0.0,0.0,0,0
2026-06-16 16:13:38.357,2431487,R_Hip,-0.1743,-0.5979,-0.1063,0.01,-1.48,2.94,-12.65,1.67,-31.37,0.17243,-0.07419,0.6704,-0.717826,0.0,0.0,0.0,0,0
2026-06-16 16:13:38.359,2431507,R_Hip,-0.1703,-0.5808,-0.1049,0.54,-1.65,3.08,0.0,0.0,0.0,0.172979,-0.073489,0.670949,-0.717246,0.0,0.0,0.0,0,0
2026-06-16 16:13:38.361,2431527,R_Hip,-0.1614,-0.5661,-0.0914,1.04,-1.78,3.16,-13.38,2.76,-31.03,0.173803,-0.072756,0.670919,-0.717154,0.0,0.0,0.0,0,0
2026-06-16 16:13:38.363,2431547,R_Hip,-0.157,-0.5461,-0.0914,2.01,-1.96,3.24,-14.3,2.58,-31.89,0.174841,-0.071963,0.670309,-0.717551,0.0,0.0,0.0,0,0
2026-06-16 16:13:38.365,2431492,R_Ankle,0.0699,0.1582,0.5833,-0.46,-0.92,-0.62,-17.07,-23.61,-19.74,0.980071,0.002258,-0.080386,0.181494,0.0,0.0,0.0,0,0
2026-06-16 16:13:38.367,2431512,R_Ankle,0.0753,0.1983,0.5478,-0.21,-1.0,-0.17,-17.9,-21.87,-19.0,0.980224,0.001923,-0.080172,0.180792,0.0,0.0,0.0,0,0
2026-06-16 16:13:38.369,2431631,L_Hip,-0.2546,0.8577,0.4385,-4.08,4.7,3.06,18.98,1.97,-36.06,0.842555,0.470656,0.210181,0.156102,0.0,0.0,0.0,0,0
2026-06-16 16:13:38.370,2431532,R_Ankle,0.0988,0.2345,0.5344,0.08,-1.09,0.3,-17.24,-22.17,-20.84,0.980255,0.002045,-0.080081,0.1807,0.0,0.0,0.0,0,0
2026-06-16 16:13:38.371,2431651,L_Hip,-0.2468,0.8597,0.4352,-4.07,4.73,3.06,0.0,0.0,0.0,0.842524,0.470717,0.210028,0.156285,0.0,0.0,0.0,0,0
2026-06-16 16:13:38.372,2431552,R_Ankle,0.1267,0.2732,0.5076,0.62,-1.35,1.08,0.0,0.0,0.0,0.980132,0.002808,-0.080081,0.181249,0.0,0.0,0.0,0,0
2026-06-16 16:13:38.373,2431632,L_Hip,-0.2409,0.8656,0.4356,-4.06,4.77,3.1,19.96,0.69,-35.49,0.842494,0.470779,0.209906,0.156407,0.0,0.0,0.0,0,0
2026-06-16 16:13:38.375,2431652,L_Hip,-0.2438,0.869,0.4279,-4.06,4.78,3.11,18.96,2.29,-34.6,0.842433,0.47087,0.209815,0.156499,0.0,0.0,0.0,0,0
2026-06-16 16:13:38.406,2431537,R_Hip,-0.1708,-0.5622,-0.0702,3.78,-2.19,2.77,-13.39,2.77,-33.42,0.175939,-0.071139,0.669179,-0.718406,0.0,0.0,0.0,0,0
2026-06-16 16:13:38.407,2431557,R_Hip,-0.1757,-0.5676,-0.0558,4.19,-2.23,2.52,0.0,0.0,0.0,0.177007,-0.070406,0.667562,-0.719749,0.0,0.0,0.0,0,0
2026-06-16 16:13:38.410,2431577,R_Hip,-0.1723,-0.5788,-0.0495,4.61,-2.28,2.17,-14.3,2.95,-31.89,0.177923,-0.069826,0.665487,-0.721519,0.0,0.0,0.0,0,0
2026-06-16 16:13:38.412,2431597,R_Hip,-0.1644,-0.6159,-0.0548,5.38,-2.41,1.55,-13.21,2.22,-33.59,0.178564,-0.069521,0.662923,-0.723716,0.0,0.0,0.0,0,0
2026-06-16 16:13:38.416,2431547,R_Shank,-0.0213,-1.2184,0.4517,4.94,-4.93,-8.37,-5.97,-24.13,-13.58,0.705405,-0.006348,0.03003,-0.70809,0.0,0.0,0.0,0,0
2026-06-16 16:13:38.418,2431567,R_Shank,-0.0483,1.7212,0.5108,5.35,-5.51,-8.68,-5.28,-25.46,-13.0,0.705618,-0.005524,0.02588,-0.70806,0.0,0.0,0.0,0,0
2026-06-16 16:13:38.419,2431587,R_Shank,-0.0503,0.944,0.568,5.77,-6.06,-8.9,0.0,0.0,0.0,0.705527,-0.004669,0.020753,-0.708304,0.0,0.0,0.0,0,0
2026-06-16 16:13:38.422,2431607,R_Shank,-0.0601,-0.87,0.654,6.58,-7.0,-8.92,-5.64,-25.12,-12.09,0.705374,-0.003754,0.014618,-0.70864,0.0,0.0,0.0,0,0
2026-06-16 16:13:38.424,2431687,L_Shank,-0.0445,-0.1491,0.9599,1.89,-1.21,-0.28,24.53,27.89,-11.0,0.778344,-0.062716,-0.047639,0.622822,0.0,0.0,0.0,0,0
2026-06-16 16:13:38.426,2431707,L_Shank,-0.0538,-0.1511,0.9614,1.87,-1.21,-0.25,0.0,0.0,0.0,0.778375,-0.062685,-0.047761,0.622791,0.0,0.0,0.0,0,0
2026-06-16 16:13:38.427,2431727,L_Shank,-0.044,-0.1555,0.9556,1.85,-1.2,-0.21,25.23,26.88,-11.31,0.778436,-0.062654,-0.047884,0.6227,0.0,0.0,0.0,0,0
2026-06-16 16:13:38.429,2431747,L_Shank,-0.045,-0.1574,0.9676,1.82,-1.19,-0.17,23.31,27.06,-11.76,0.778436,-0.062593,-0.048036,0.6227,0.0,0.0,0.0,0,0
2026-06-16 16:13:38.431,2431689,L_Ankle,0.0766,-0.2177,0.9568,5.43,-0.81,-10.27,27.71,26.85,-7.3,-0.60976,0.019318,0.105289,-0.785302,0.0,0.0,0.0,0,0
2026-06-16 16:13:38.433,2431709,L_Ankle,0.0844,-0.2123,0.965,5.41,-0.78,-10.27,0.0,0.0,0.0,-0.60976,0.019227,0.105411,-0.785272,0.0,0.0,0.0,0,0
2026-06-16 16:13:38.434,2431729,L_Ankle,0.0889,-0.2109,0.9717,5.41,-0.77,-10.29,26.46,26.33,-9.19,-0.60979,0.019166,0.105502,-0.785241,0.0,0.0,0.0,0,0
2026-06-16 16:13:38.436,2431749,L_Ankle,0.0805,-0.2153,0.9669,5.4,-0.76,-10.29,27.5,25.96,-9.86,-0.609821,0.019074,0.105625,-0.785211,0.0,0.0,0.0,0,0
2026-06-16 16:13:38.438,2431699,L_Hip,-0.2443,0.8685,0.4124,-4.06,4.8,3.25,19.46,1.81,-34.46,0.842402,0.470962,0.209784,0.15656,0.0,0.0,0.0,0,0
2026-06-16 16:13:38.439,2431719,L_Hip,-0.2355,0.868,0.4148,-4.09,4.81,3.33,0.0,0.0,0.0,0.842311,0.471084,0.209815,0.15659,0.0,0.0,0.0,0,0
2026-06-16 16:13:38.441,2431739,L_Hip,-0.2399,0.8685,0.4201,-4.1,4.79,3.35,19.33,3.26,-35.19,0.842189,0.471236,0.209906,0.15659,0.0,0.0,0.0,0,0
2026-06-16 16:13:38.443,2431759,L_Hip,-0.236,0.8636,0.4105,-4.1,4.79,3.35,19.13,1.81,-35.04,0.842067,0.471419,0.209998,0.15656,0.0,0.0,0.0,0,0
2026-06-16 16:13:38.451,2431582,R_Ankle,-1.5578,0.1726,2.0159,2.03,-2.66,-0.43,-18.27,-24.09,-19.59,0.97467,0.025819,-0.088137,0.203772,0.0,0.0,0.0,0,0
2026-06-16 16:13:38.455,2431602,R_Ankle,-2.1551,-0.8781,2.0159,0.38,2.46,-3.41,-18.59,-22.83,-19.0,0.974395,0.02765,-0.089236,0.204443,0.0,0.0,0.0,0,0
2026-06-16 16:13:38.456,2431622,R_Ankle,-1.3035,-1.9943,2.0159,-1.06,4.72,-7.91,-18.61,-23.78,-19.91,0.975036,0.027467,-0.084262,0.203528,0.0,0.0,0.0,0,0
2026-06-16 16:13:38.458,2431642,R_Ankle,0.4134,-1.0406,1.4469,-0.14,1.92,-6.91,-18.11,-23.92,-20.98,0.976897,0.018921,-0.073794,0.199591,0.0,0.0,0.0,0,0
2026-06-16 16:13:38.460,2431587,R_Hip,-0.1491,-0.7463,-0.0062,6.73,-2.75,0.28,-13.39,2.77,-33.42,0.178991,-0.069552,0.659932,-0.726341,0.0,0.0,0.0,0,0
2026-06-16 16:13:38.462,2431607,R_Hip,-0.1452,-0.799,0.0028,6.99,-2.81,-0.08,0.0,0.0,0.0,0.179174,-0.069887,0.656545,-0.729331,0.0,0.0,0.0,0,0
2026-06-16 16:13:38.464,2431627,R_Hip,-0.124,-0.9289,0.0009,7.2,-2.9,-0.51,-14.3,4.05,-32.23,0.178991,-0.07065,0.65276,-0.732658,0.0,0.0,0.0,0,0
2026-06-16 16:13:38.466,2431647,R_Hip,-0.1304,-1.5332,-0.1833,7.54,-3.57,-1.38,-14.85,5.33,-32.41,0.178381,-0.072268,0.648976,-0.736045,0.0,0.0,0.0,0,0
2026-06-16 16:13:38.468,2431592,R_Shank,-0.1661,0.6648,0.9744,6.93,-6.46,-8.79,-6.28,-26.1,-12.99,0.705313,-0.002594,0.007874,-0.708823,0.0,0.0,0.0,0,0
2026-06-16 16:13:38.470,2431612,R_Shank,-0.253,-3.0724,1.9313,5.73,-4.9,-10.69,0.0,0.0,0.0,0.705252,-0.001007,0.001465,-0.708945,0.0,0.0,0.0,0,0
2026-06-16 16:13:38.472,2431632,R_Shank,-0.3689,-2.574,1.9313,2.99,-3.29,-13.61,-7.13,-26.58,-11.93,0.703391,0.000977,-0.001892,-0.710746,0.0,0.0,0.0,0,0
2026-06-16 16:13:38.474,2431652,R_Shank,1.7084,3.157,1.9313,-4.93,-5.75,-16.67,-6.77,-26.92,-12.84,0.699393,-0.001892,-0.002655,-0.714682,0.0,0.0,0.0,0,0
2026-06-16 16:13:38.481,2431613,R_Hip,-0.4026,-0.3543,-0.1646,-2.71,0.24,10.76,-13.2,4.05,-32.23,0.169012,-0.077639,0.648396,-0.738182,0.0,0.0,0.0,0,0
2026-06-16 16:13:38.483,2431633,R_Hip,-0.3755,0.1568,-0.4813,-2.02,-2.44,10.86,-13.75,2.77,-33.08,0.17307,-0.070376,0.651509,-0.735252,0.0,0.0,0.0,0,0
2026-06-16 16:13:38.485,2431653,R_Hip,-0.1008,-0.467,-0.1877,-1.78,-3.95,10.96,-14.48,4.59,-32.06,0.179022,-0.066439,0.653615,-0.732292,0.0,0.0,0.0,0,0
2026-06-16 16:13:38.487,2431673,R_Hip,0.0644,-0.6057,-0.1217,0.57,-5.9,8.28,-13.39,2.4,-32.74,0.184393,-0.065279,0.653859,-0.730857,0.0,0.0,0.0,0,0
2026-06-16 16:13:38.493,2431756,L_Ankle,0.0771,-0.2201,0.965,5.4,-0.7,-10.29,26.97,27.56,-9.01,-0.609851,0.018952,0.105686,-0.78518,0.0,0.0,0.0,0,0
2026-06-16 16:13:38.495,2431776,L_Ankle,0.0756,-0.2153,0.9678,5.38,-0.66,-10.27,26.49,26.33,-7.49,-0.609851,0.018799,0.105716,-0.78518,0.0,0.0,0.0,0,0
2026-06-16 16:13:38.497,2431757,L_Ankle,0.0737,-0.2104,0.9563,5.38,-0.65,-10.28,0.0,0.0,0.0,-0.609882,0.018677,0.105716,-0.78515,0.0,0.0,0.0,0,0
2026-06-16 16:13:38.499,2431777,L_Ankle,0.0668,-0.2104,0.9717,5.36,-0.64,-10.27,27.49,26.66,-9.85,-0.609912,0.018494,0.105716,-0.78515,0.0,0.0,0.0,0,0
2026-06-16 16:13:38.500,2431761,L_Shank,-0.045,-0.1609,0.9695,1.79,-1.16,-0.18,24.54,27.23,-11.93,0.778375,-0.062593,-0.048189,0.622791,0.0,0.0,0.0,0,0
2026-06-16 16:13:38.502,2431781,L_Shank,-0.0475,-0.1682,0.9695,1.78,-1.16,-0.19,0.0,0.0,0.0,0.778253,-0.062532,-0.04828,0.622913,0.0,0.0,0.0,0,0
2026-06-16 16:13:38.504,2431801,L_Shank,-0.0357,-0.1687,0.9671,1.78,-1.16,-0.23,24.52,27.55,-10.69,0.778161,-0.062471,-0.048311,0.623035,0.0,0.0,0.0,0,0
2026-06-16 16:13:38.506,2431821,L_Shank,-0.0318,-0.1638,0.9532,1.75,-1.12,-0.27,24.87,26.18,-10.05,0.7781,-0.06241,-0.048341,0.623096,0.0,0.0,0.0,0,0
2026-06-16 16:13:38.518,2431650,R_Ankle,1.8588,-1.1372,0.9004,0.09,-6.47,9.22,-17.24,-23.13,-19.59,0.977721,0.014588,-0.072604,0.196265,0.0,0.0,0.0,0,0
2026-06-16 16:13:38.520,2431670,R_Ankle,0.8377,-0.7716,1.2409,-1.04,-1.76,9.57,0.0,0.0,0.0,0.976623,0.013642,-0.082614,0.197851,0.0,0.0,0.0,0,0
2026-06-16 16:13:38.522,2431690,R_Ankle,0.0273,-2.1166,1.0484,0.03,2.43,4.79,-17.58,-23.13,-19.91,0.974548,0.011048,-0.090823,0.204566,0.0,0.0,0.0,0,0
2026-06-16 16:13:38.523,2431710,R_Ankle,-0.3264,0.2662,0.8759,3.66,-2.39,5.77,-18.94,-22.5,-20.24,0.973693,0.006012,-0.091311,0.208563,0.0,0.0,0.0,0,0
2026-06-16 16:13:38.526,2431789,L_Hip,-0.2394,0.8803,0.4134,-4.03,4.76,3.25,19.64,2.62,-34.62,0.841945,0.471633,0.21012,0.15656,0.0,0.0,0.0,0,0
2026-06-16 16:13:38.528,2431809,L_Hip,-0.238,0.8793,0.4182,-4.06,4.84,3.15,0.0,0.0,0.0,0.841823,0.471786,0.210181,0.15656,0.0,0.0,0.0,0,0
2026-06-16 16:13:38.530,2431661,R_Shank,-0.901,2.3169,0.47,2.14,10.66,-8.73,-4.45,-25.63,-11.95,0.695608,-0.004791,0.002258,-0.718375,0.0,0.0,0.0,0,0
2026-06-16 16:13:38.531,2431829,L_Hip,-0.2463,0.8729,0.4129,-4.07,4.88,3.11,19.82,2.47,-35.34,0.841762,0.471908,0.210181,0.15656,0.0,0.0,0.0,0,0
2026-06-16 16:13:38.532,2431681,R_Shank,-0.4774,-3.0748,-0.0444,3.58,1.85,-3.77,0.0,0.0,0.0,0.694327,0.003265,0.013062,-0.719504,0.0,0.0,0.0,0,0
2026-06-16 16:13:38.533,2431849,L_Hip,-0.2448,0.8788,0.408,-4.1,4.88,3.08,19.32,2.94,-35.19,0.8417,0.471999,0.210181,0.15659,0.0,0.0,0.0,0,0
2026-06-16 16:13:38.535,2431701,R_Shank,-0.2722,-1.0688,0.2754,3.86,-5.38,1.08,-5.76,-25.63,-14.65,0.697836,0.005585,0.013459,-0.716086,0.0,0.0,0.0,0,0
2026-06-16 16:13:38.537,2431721,R_Shank,-0.0626,3.0792,0.8,3.48,-10.58,4.1,-7.46,-26.25,-12.83,0.704062,0.003876,0.00763,-0.710074,0.0,0.0,0.0,0,0
2026-06-16 16:13:38.561,2431824,L_Ankle,0.0756,-0.205,0.9611,5.33,-0.64,-10.26,28.76,26.47,-7.62,-0.609943,0.018342,0.105655,-0.785119,0.0,0.0,0.0,0,0
2026-06-16 16:13:38.563,2431844,L_Ankle,0.0688,-0.2211,0.965,5.31,-0.63,-10.28,27.53,25.96,-8.16,-0.610004,0.018189,0.105625,-0.785089,0.0,0.0,0.0,0,0
2026-06-16 16:13:38.564,2431695,R_Ankle,-0.1226,0.2523,0.8252,0.8,-2.96,0.93,-19.1,-23.0,-18.84,0.97293,0.00766,-0.089663,0.212806,0.0,0.0,0.0,0,0
2026-06-16 16:13:38.565,2431864,L_Ankle,0.0766,-0.2113,0.9515,5.32,-0.64,-10.26,0.0,0.0,0.0,-0.610065,0.018036,0.105594,-0.785028,0.0,0.0,0.0,0,0
2026-06-16 16:13:38.566,2431715,R_Ankle,-0.0883,0.1265,0.8065,0.49,-2.41,-0.48,0.0,0.0,0.0,0.972411,0.010559,-0.089053,0.215217,0.0,0.0,0.0,0,0
2026-06-16 16:13:38.568,2431884,L_Ankle,0.0756,-0.2162,0.9616,5.32,-0.64,-10.25,26.96,27.92,-9.01,-0.610126,0.017945,0.105564,-0.784997,0.0,0.0,0.0,0,0
2026-06-16 16:13:38.569,2431735,R_Ankle,-0.0976,0.0824,0.7806,0.54,-2.2,-1.51,-17.92,-23.14,-19.29,0.97235,0.011994,-0.0889,0.215552,0.0,0.0,0.0,0,0
2026-06-16 16:13:38.570,2431755,R_Ankle,-0.0834,0.0641,0.7931,0.58,-1.82,-2.29,-20.31,-23.47,-19.93,0.972564,0.012665,-0.088687,0.214606,0.0,0.0,0.0,0,0
2026-06-16 16:13:38.573,2431836,L_Shank,-0.0851,-0.1795,0.9748,1.72,-1.22,-0.12,25.41,27.73,-11.47,0.778497,-0.061434,-0.047914,0.62273,0.0,0.0,0.0,0,0
2026-06-16 16:13:38.575,2431856,L_Shank,-0.0743,-0.1795,0.9546,1.74,-1.25,-0.11,25.22,26.53,-10.68,0.778588,-0.061434,-0.047853,0.622669,0.0,0.0,0.0,0,0
2026-06-16 16:13:38.577,2431876,L_Shank,-0.0734,-0.1848,0.9594,1.74,-1.29,-0.12,0.0,0.0,0.0,0.778649,-0.061495,-0.047761,0.622547,0.0,0.0,0.0,0,0
2026-06-16 16:13:38.579,2431896,L_Shank,-0.0763,-0.1804,0.9657,1.74,-1.32,-0.09,24.17,27.54,-9.75,0.778771,-0.061525,-0.04767,0.622425,0.0,0.0,0.0,0,0
2026-06-16 16:13:38.581,2431713,R_Hip,0.0737,-0.7502,-0.0091,1.29,-3.3,1.89,-13.93,2.95,-32.23,0.187414,-0.066134,0.653218,-0.730583,0.0,0.0,0.0,0,0
2026-06-16 16:13:38.583,2431733,R_Hip,0.0614,-0.7858,-0.0192,1.66,-2.8,0.9,-13.93,3.68,-33.26,0.188116,-0.067507,0.652516,-0.730888,0.0,0.0,0.0,0,0
2026-06-16 16:13:38.585,2431753,R_Hip,0.0481,-0.819,-0.0019,2.0,-2.51,0.16,-14.84,3.13,-32.4,0.187506,-0.069033,0.651509,-0.731834,0.0,0.0,0.0,0,0
2026-06-16 16:13:38.586,2431773,R_Hip,-0.0076,-0.8683,-0.0024,2.35,-2.0,-0.8,-13.2,3.68,-32.57,0.186163,-0.070711,0.650227,-0.733146,0.0,0.0,0.0,0,0
2026-06-16 16:13:38.588,2431717,R_Ankle,-0.0937,0.0666,0.9464,0.43,-1.74,-2.22,-18.77,-23.31,-19.15,0.9729,0.013245,-0.08826,0.213294,0.0,0.0,0.0,0,0
2026-06-16 16:13:38.591,2431737,R_Ankle,-0.0951,0.0205,0.9631,0.31,-1.63,-2.2,0.0,0.0,0.0,0.973205,0.013794,-0.08771,0.211982,0.0,0.0,0.0,0,0
2026-06-16 16:13:38.593,2431757,R_Ankle,-0.0628,-0.0146,0.978,0.28,-1.48,-2.24,-18.93,-22.52,-18.69,0.97354,0.01413,-0.087161,0.21073,0.0,0.0,0.0,0,0
2026-06-16 16:13:38.594,2431856,L_Hip,-0.2497,0.87,0.4071,-4.14,4.73,2.96,19.98,1.99,-35.49,0.8417,0.47203,0.210181,0.15656,0.0,0.0,0.0,0,0
2026-06-16 16:13:38.596,2431777,R_Ankle,0.0121,-0.0844,1.0402,0.29,-1.16,-2.51,-18.77,-24.58,-18.82,0.973846,0.014161,-0.08652,0.209449,0.0,0.0,0.0,0,0
2026-06-16 16:13:38.597,2431876,L_Hip,-0.2527,0.8788,0.4066,-4.16,4.67,2.94,0.0,0.0,0.0,0.84167,0.47206,0.210181,0.156529,0.0,0.0,0.0,0,0
2026-06-16 16:13:38.598,2431857,L_Hip,-0.2522,0.8641,0.425,-4.18,4.66,2.96,20.15,1.83,-35.35,0.841731,0.471999,0.210181,0.156499,0.0,0.0,0.0,0,0
2026-06-16 16:13:38.600,2431877,L_Hip,-0.2473,0.8656,0.3993,-4.19,4.63,2.98,19.32,1.65,-36.35,0.841762,0.471938,0.210211,0.156407,0.0,0.0,0.0,0,0
2026-06-16 16:13:38.618,2431750,R_Shank,0.0694,1.9536,0.667,-1.09,-3.01,-2.32,-6.3,-25.11,-13.29,0.709433,0.002564,0.002319,-0.704733,0.0,0.0,0.0,0,0
2026-06-16 16:13:38.621,2431770,R_Shank,0.0556,-1.8864,0.5714,-1.87,-2.14,-6.02,-6.47,-25.27,-12.83,0.712973,0.001648,0.000214,-0.701163,0.0,0.0,0.0,0,0
2026-06-16 16:13:38.623,2431790,R_Shank,0.0424,1.7144,0.4618,-1.98,-2.03,-7.25,0.0,0.0,0.0,0.71456,0.000549,6.1e-05,-0.699545,0.0,0.0,0.0,0,0
2026-06-16 16:13:38.625,2431810,R_Shank,-0.0179,2.3488,0.4873,-2.12,-1.87,-8.51,-6.62,-25.77,-12.99,0.714835,-0.000641,0.000275,-0.699271,0.0,0.0,0.0,0,0
2026-06-16 16:13:38.629,2431891,L_Ankle,0.0688,-0.2084,0.9654,5.34,-0.7,-10.24,28.41,26.12,-7.97,-0.610187,0.017823,0.105533,-0.784967,0.0,0.0,0.0,0,0
2026-06-16 16:13:38.632,2431911,L_Ankle,0.0629,-0.2157,0.9616,5.35,-0.77,-10.24,28.04,26.84,-8.31,-0.610187,0.017762,0.105502,-0.784967,0.0,0.0,0.0,0,0
2026-06-16 16:13:38.634,2431931,L_Ankle,0.0678,-0.2177,0.9837,5.35,-0.79,-10.25,0.0,0.0,0.0,-0.610187,0.017701,0.105472,-0.784967,0.0,0.0,0.0,0,0
2026-06-16 16:13:38.637,2431951,L_Ankle,0.0599,-0.2133,0.9741,5.36,-0.81,-10.26,28.19,26.3,-9.84,-0.610187,0.01767,0.105472,-0.784967,0.0,0.0,0.0,0,0
2026-06-16 16:13:38.640,2431901,L_Hip,-0.2375,0.8621,0.4264,-4.18,4.43,3.17,19.95,1.66,-34.04,0.841792,0.471908,0.210273,0.156255,0.0,0.0,0.0,0,0
2026-06-16 16:13:38.643,2431902,L_Hip,-0.2286,0.8656,0.4318,-4.18,4.33,3.23,19.67,2.95,-35.78,0.841853,0.471877,0.210273,0.156041,0.0,0.0,0.0,0,0
2026-06-16 16:13:38.645,2431922,L_Hip,-0.2335,0.87,0.4448,-4.14,4.3,3.22,0.0,0.0,0.0,0.841914,0.471847,0.210273,0.155828,0.0,0.0,0.0,0,0
2026-06-16 16:13:38.647,2431942,L_Hip,-0.2281,0.8666,0.4419,-4.14,4.29,3.18,19.33,3.58,-34.9,0.841945,0.471847,0.210303,0.155522,0.0,0.0,0.0,0,0
2026-06-16 16:13:38.661,2431924,L_Hip,-0.2227,0.8764,0.4395,-4.08,4.35,2.99,19.61,0.37,-35.48,0.842036,0.471816,0.210242,0.155217,0.0,0.0,0.0,0,0
2026-06-16 16:13:38.663,2431944,L_Hip,-0.2272,0.8823,0.4453,-4.04,4.42,2.86,19.51,3.11,-35.92,0.842128,0.471786,0.210211,0.154881,0.0,0.0,0.0,0,0
2026-06-16 16:13:38.667,2431964,L_Hip,-0.2365,0.8798,0.4211,-4.0,4.47,2.81,18.96,2.29,-34.6,0.84228,0.471694,0.210089,0.154607,0.0,0.0,0.0,0,0
2026-06-16 16:13:38.669,2431984,L_Hip,-0.236,0.871,0.4134,-3.99,4.48,2.8,0.0,0.0,0.0,0.842372,0.471633,0.209937,0.154424,0.0,0.0,0.0,0,0
2026-06-16 16:13:38.684,2431946,L_Hip,-0.2438,0.8749,0.4182,-3.95,4.5,2.83,19.97,1.02,-35.78,0.842463,0.471603,0.209784,0.154271,0.0,0.0,0.0,0,0
2026-06-16 16:13:38.687,2431947,L_Hip,-0.2429,0.8725,0.4022,-3.97,4.48,2.86,20.14,1.51,-35.64,0.842524,0.471572,0.209632,0.154149,0.0,0.0,0.0,0,0
2026-06-16 16:13:38.688,2431818,R_Shank,-0.013,1.8104,1.0109,-1.96,-1.61,-14.61,-7.8,-25.91,-12.82,0.713675,-0.001495,0.000732,-0.70043,0.0,0.0,0.0,0,0
2026-06-16 16:13:38.691,2431967,L_Hip,-0.2502,0.8607,0.4056,-4.01,4.51,2.89,19.47,2.14,-35.05,0.842616,0.47148,0.209479,0.154118,0.0,0.0,0.0,0,0
2026-06-16 16:13:38.691,2431838,R_Shank,0.0065,-3.0656,1.1546,-1.71,-1.5,-15.8,0.0,0.0,0.0,0.71099,-0.001984,0.001007,-0.703177,0.0,0.0,0.0,0,0
2026-06-16 16:13:38.693,2431987,L_Hip,-0.2384,0.8715,0.394,-4.03,4.51,2.92,0.0,0.0,0.0,0.842677,0.47145,0.209418,0.154118,0.0,0.0,0.0,0,0
2026-06-16 16:13:38.695,2431858,R_Shank,-0.011,2.7308,1.2415,-1.38,-1.35,-16.67,-7.15,-24.6,-13.42,0.707144,-0.002197,0.001099,-0.707022,0.0,0.0,0.0,0,0
2026-06-16 16:13:38.697,2431878,R_Shank,-0.0444,0.8408,1.2872,-0.61,-1.03,-16.89,-6.29,-25.44,-13.29,0.702933,-0.002136,0.001312,-0.711234,0.0,0.0,0.0,0,0
2026-06-16 16:13:38.706,2431969,L_Hip,-0.2404,0.8729,0.4168,-4.15,4.52,2.98,18.79,2.12,-34.75,0.842677,0.471419,0.209387,0.154149,0.0,0.0,0.0,0,0
2026-06-16 16:13:38.708,2431838,R_Hip,-0.1185,-1.0387,0.0818,1.48,-0.83,-3.25,-13.75,2.76,-31.37,0.184088,-0.072481,0.649037,-0.73455,0.0,0.0,0.0,0,0
2026-06-16 16:13:38.710,2431989,L_Hip,-0.2532,0.8784,0.4235,-4.18,4.52,3.0,19.8,1.5,-35.34,0.842677,0.471389,0.209418,0.15421,0.0,0.0,0.0,0,0
2026-06-16 16:13:38.712,2431858,R_Hip,-0.1688,-1.1095,0.0967,1.03,-0.38,-3.59,-15.21,4.23,-32.06,0.181219,-0.074435,0.64803,-0.735954,0.0,0.0,0.0,0,0
2026-06-16 16:13:38.713,2432009,L_Hip,-0.2257,0.8729,0.4129,-4.23,4.57,2.94,18.79,2.12,-34.46,0.842647,0.471358,0.20951,0.154302,0.0,0.0,0.0,0,0
2026-06-16 16:13:38.714,2431878,R_Hip,-0.2029,-1.1529,0.1145,0.56,0.08,-3.66,-15.21,3.5,-33.77,0.17774,-0.076174,0.647542,-0.737053,0.0,0.0,0.0,0,0
2026-06-16 16:13:38.715,2432029,L_Hip,-0.2404,0.8847,0.426,-4.25,4.61,2.93,0.0,0.0,0.0,0.842586,0.471358,0.209632,0.154454,0.0,0.0,0.0,0,0
2026-06-16 16:13:38.717,2431898,R_Hip,-0.2778,-1.2125,0.0981,-0.19,0.67,-3.25,-14.11,3.13,-31.72,0.174169,-0.077334,0.647572,-0.737754,0.0,0.0,0.0,0,0
2026-06-16 16:13:38.719,2431982,L_Ankle,0.0702,-0.2153,0.964,5.43,-1.06,-10.33,27.69,26.13,-8.66,-0.610157,0.018281,0.105136,-0.785028,0.0,0.0,0.0,0,0
2026-06-16 16:13:38.722,2432002,L_Ankle,0.0874,-0.228,0.9597,5.45,-1.04,-10.33,28.75,26.83,-7.62,-0.610157,0.018433,0.105106,-0.785028,0.0,0.0,0.0,0,0
2026-06-16 16:13:38.722,2431852,R_Ankle,0.1292,-0.2593,1.0838,0.04,-1.41,-2.35,-18.61,-23.14,-20.22,0.974212,0.013977,-0.086032,0.208014,0.0,0.0,0.0,0,0
2026-06-16 16:13:38.725,2432022,L_Ankle,0.0746,-0.2221,0.9688,5.45,-1.03,-10.35,26.46,26.33,-9.19,-0.610157,0.018586,0.105045,-0.785028,0.0,0.0,0.0,0,0
2026-06-16 16:13:38.726,2431872,R_Ankle,0.1238,-0.3074,1.0877,-0.09,-1.61,-2.1,0.0,0.0,0.0,0.974548,0.013428,-0.085849,0.206549,0.0,0.0,0.0,0,0
2026-06-16 16:13:38.730,2431892,R_Ankle,0.1003,-0.3401,1.0795,-0.11,-1.78,-1.73,-18.93,-23.15,-19.0,0.974792,0.012543,-0.086215,0.205359,0.0,0.0,0.0,0,0
2026-06-16 16:13:38.730,2432042,L_Ankle,0.0849,-0.2182,0.9635,5.45,-1.03,-10.32,0.0,0.0,0.0,-0.610157,0.018708,0.105045,-0.785058,0.0,0.0,0.0,0,0
2026-06-16 16:13:38.734,2431912,R_Ankle,0.0669,-0.3396,1.0795,0.11,-2.09,-0.56,-17.91,-24.11,-18.36,0.974883,0.011261,-0.086825,0.204688,0.0,0.0,0.0,0,0
2026-06-16 16:13:38.734,2431991,L_Hip,-0.2365,0.8705,0.4163,-4.21,4.39,2.74,17.94,1.62,-34.59,0.842128,0.471603,0.209967,0.155736,0.0,0.0,0.0,0,0
2026-06-16 16:13:38.737,2431862,R_Hip,-0.3198,-1.1241,0.0158,-0.68,-0.19,-0.39,-13.02,3.5,-32.4,0.171209,-0.077883,0.64803,-0.737999,0.0,0.0,0.0,0,0
2026-06-16 16:13:38.738,2432011,L_Hip,-0.2365,0.871,0.4192,-4.21,4.35,2.73,19.14,1.81,-35.62,0.842036,0.471664,0.209998,0.15598,0.0,0.0,0.0,0,0
2026-06-16 16:13:38.741,2432031,L_Hip,-0.2473,0.869,0.4284,-4.22,4.32,2.74,19.65,2.3,-35.2,0.841945,0.471755,0.210059,0.156224,0.0,0.0,0.0,0,0
2026-06-16 16:13:38.741,2431882,R_Hip,-0.3198,-1.09,-0.0048,-0.75,-0.48,0.59,-13.75,2.77,-33.42,0.169439,-0.077975,0.64864,-0.737877,0.0,0.0,0.0,0,0
2026-06-16 16:13:38.744,2432051,L_Hip,-0.2433,0.87,0.4143,-4.22,4.28,2.77,18.15,3.72,-35.03,0.841823,0.471816,0.210211,0.156407,0.0,0.0,0.0,0,0
2026-06-16 16:13:38.745,2431902,R_Hip,-0.2985,-1.067,-0.0154,-0.83,-0.77,1.63,-15.94,3.87,-32.41,0.16892,-0.077486,0.649464,-0.737297,0.0,0.0,0.0,0,0
2026-06-16 16:13:38.747,2431922,R_Hip,-0.2586,-1.0416,-0.0168,-0.84,-1.45,3.29,-15.21,3.87,-33.09,0.169561,-0.076601,0.65038,-0.736442,0.0,0.0,0.0,0,0
2026-06-16 16:13:38.750,2432012,L_Shank,-0.0572,-0.1711,0.9633,1.76,-1.35,0.1,24.7,26.7,-10.52,0.779321,-0.062044,-0.047243,0.621723,0.0,0.0,0.0,0,0
2026-06-16 16:13:38.752,2432032,L_Shank,-0.0416,-0.1785,0.9546,1.77,-1.33,0.06,24.7,28.07,-11.16,0.779321,-0.062197,-0.047182,0.621693,0.0,0.0,0.0,0,0
2026-06-16 16:13:38.754,2432052,L_Shank,-0.0377,-0.1829,0.9791,1.77,-1.35,-0.01,0.0,0.0,0.0,0.77929,-0.062319,-0.047151,0.621723,0.0,0.0,0.0,0,0
2026-06-16 16:13:38.756,2431886,R_Shank,-0.1087,-1.3012,1.1709,0.25,-0.93,-11.77,-5.8,-24.96,-13.14,0.699454,-0.001862,0.001831,-0.714652,0.0,0.0,0.0,0,0
2026-06-16 16:13:38.758,2432072,L_Shank,-0.0387,-0.1741,0.9609,1.77,-1.41,-0.15,24.53,26.2,-11.29,0.77926,-0.062441,-0.047121,0.621754,0.0,0.0,0.0,0,0
2026-06-16 16:13:38.758,2431906,R_Shank,-0.0709,2.4288,1.1349,0.39,-1.09,-10.29,0.0,0.0,0.0,0.697439,-0.001617,0.002503,-0.716636,0.0,0.0,0.0,0,0
2026-06-16 16:13:38.761,2431926,R_Shank,-0.0582,-2.5832,1.1205,0.45,-1.22,-8.87,-6.13,-25.28,-13.14,0.69686,-0.001495,0.003021,-0.717185,0.0,0.0,0.0,0,0
2026-06-16 16:13:38.763,2431946,R_Shank,-0.0233,-2.8424,1.057,0.1,-1.33,-6.56,-4.59,-26.47,-13.01,0.697531,-0.001648,0.003418,-0.716514,0.0,0.0,0.0,0,0
2026-06-16 16:13:38.786,2432049,L_Ankle,0.0717,-0.2236,0.9616,5.52,-0.81,-10.38,26.63,27.57,-8.0,-0.610004,0.018281,0.105564,-0.785089,0.0,0.0,0.0,0,0
2026-06-16 16:13:38.789,2432069,L_Ankle,0.0751,-0.2162,0.977,5.5,-0.8,-10.39,0.0,0.0,0.0,-0.610004,0.018159,0.105655,-0.785089,0.0,0.0,0.0,0,0
2026-06-16 16:13:38.790,2431920,R_Ankle,0.0067,-0.1503,1.0225,1.0,-2.44,1.66,-19.44,-23.32,-18.84,0.974792,0.010071,-0.087527,0.204932,0.0,0.0,0.0,0,0
2026-06-16 16:13:38.792,2432089,L_Ankle,0.0776,-0.2113,0.9688,5.5,-0.79,-10.37,27.69,26.84,-7.98,-0.610034,0.018006,0.105747,-0.785058,0.0,0.0,0.0,0,0
2026-06-16 16:13:38.793,2431940,R_Ankle,0.0121,-0.1221,1.0182,1.12,-2.51,1.9,0.0,0.0,0.0,0.974517,0.00943,-0.088046,0.206,0.0,0.0,0.0,0,0
2026-06-16 16:13:38.794,2432109,L_Ankle,0.0781,-0.2133,0.9683,5.48,-0.8,-10.33,26.97,26.14,-10.03,-0.610004,0.017914,0.105808,-0.785058,0.0,0.0,0.0,0,0
2026-06-16 16:13:38.796,2431960,R_Ankle,0.0199,-0.0859,0.9837,1.18,-2.51,1.93,-18.76,-22.36,-19.16,0.974151,0.009339,-0.088504,0.207587,0.0,0.0,0.0,0,0
2026-06-16 16:13:38.798,2432060,L_Hip,-0.2487,0.8788,0.4284,-4.11,4.47,2.9,21.0,2.33,-35.22,0.841578,0.471816,0.210944,0.156804,0.0,0.0,0.0,0,0
2026-06-16 16:13:38.799,2431980,R_Ankle,0.0091,-0.0612,0.9904,1.15,-2.39,1.53,-18.6,-24.1,-19.29,0.973754,0.009583,-0.0889,0.209204,0.0,0.0,0.0,0,0
2026-06-16 16:13:38.800,2432080,L_Hip,-0.238,0.8818,0.4477,-4.13,4.54,2.85,0.0,0.0,0.0,0.841548,0.471847,0.210883,0.156896,0.0,0.0,0.0,0,0
2026-06-16 16:13:38.802,2432100,L_Hip,-0.2576,0.8784,0.4274,-4.12,4.58,2.83,19.3,2.29,-34.61,0.841578,0.471847,0.21073,0.157018,0.0,0.0,0.0,0,0
2026-06-16 16:13:38.805,2432120,L_Hip,-0.238,0.8666,0.441,-4.14,4.61,2.82,19.16,3.42,-35.05,0.841609,0.471877,0.210486,0.15714,0.0,0.0,0.0,0,0
2026-06-16 16:13:38.811,2431942,R_Ankle,0.0307,-0.1384,1.0048,0.31,-2.32,0.02,-18.75,-21.72,-19.16,0.972839,0.009583,-0.090579,0.212714,0.0,0.0,0.0,0,0
2026-06-16 16:13:38.813,2431962,R_Ankle,0.0415,-0.1538,1.0058,0.34,-2.35,0.0,0.0,0.0,0.0,0.972747,0.009247,-0.091006,0.213019,0.0,0.0,0.0,0,0
2026-06-16 16:13:38.815,2431982,R_Ankle,0.0361,-0.129,1.0144,0.29,-2.41,-0.05,-19.26,-22.21,-18.7,0.972625,0.00885,-0.091525,0.213355,0.0,0.0,0.0,0,0
2026-06-16 16:13:38.817,2432002,R_Ankle,0.062,-0.1479,1.0311,0.22,-2.41,-0.34,-18.42,-23.31,-18.53,0.972533,0.008484,-0.092074,0.213569,0.0,0.0,0.0,0,0
2026-06-16 16:13:38.821,2431952,R_Shank,-0.0262,3.2692,0.9821,0.29,-2.35,-5.83,-7.47,-25.26,-13.12,0.705435,-0.005676,0.003265,-0.708731,0.0,0.0,0.0,0,0
2026-06-16 16:13:38.825,2432086,L_Shank,-0.0465,-0.1432,0.969,1.74,-1.35,0.03,25.75,27.04,-10.85,0.779199,-0.062532,-0.04709,0.621815,0.0,0.0,0.0,0,0
2026-06-16 16:13:38.825,2431972,R_Shank,-0.0218,0.0504,0.9922,0.45,-2.16,-6.79,-6.63,-25.43,-12.68,0.706595,-0.005707,0.002503,-0.707541,0.0,0.0,0.0,0,0
2026-06-16 16:13:38.828,2432106,L_Shank,-0.0587,-0.1462,0.9522,1.75,-1.31,0.12,23.13,27.22,-11.29,0.779168,-0.062593,-0.047121,0.621876,0.0,0.0,0.0,0,0
2026-06-16 16:13:38.829,2431992,R_Shank,-0.015,-0.5908,1.009,0.38,-2.08,-7.29,0.0,0.0,0.0,0.707297,-0.005554,0.001679,-0.70687,0.0,0.0,0.0,0,0
2026-06-16 16:13:38.831,2432087,L_Shank,-0.0563,-0.1457,0.9647,1.74,-1.27,0.16,0.0,0.0,0.0,0.779107,-0.062624,-0.047151,0.621937,0.0,0.0,0.0,0,0
2026-06-16 16:13:38.832,2432012,R_Shank,-0.0223,-1.4908,1.0263,0.1,-1.98,-8.2,-7.46,-25.92,-13.43,0.707511,-0.005463,0.001068,-0.706656,0.0,0.0,0.0,0,0
2026-06-16 16:13:38.835,2432107,L_Shank,-0.047,-0.1516,0.9638,1.73,-1.28,0.09,25.23,26.88,-11.31,0.779015,-0.062624,-0.047212,0.622028,0.0,0.0,0.0,0,0
2026-06-16 16:13:38.837,2431963,R_Hip,-0.1703,-1.0172,0.0192,-0.29,-2.43,4.71,-15.57,4.23,-32.75,0.171026,-0.075625,0.651173,-0.735496,0.0,0.0,0.0,0,0
2026-06-16 16:13:38.838,2432094,L_Ankle,0.0781,-0.2143,0.9726,5.38,-0.82,-10.23,27.16,27.03,-8.16,-0.609973,0.017579,0.106174,-0.785028,0.0,0.0,0.0,0,0
2026-06-16 16:13:38.840,2431983,R_Hip,-0.123,-0.9957,0.0144,0.0,-2.48,4.68,-14.66,2.95,-33.6,0.172857,-0.07474,0.651723,-0.734672,0.0,0.0,0.0,0,0
2026-06-16 16:13:38.841,2432114,L_Ankle,0.0751,-0.2143,0.9856,5.38,-0.82,-10.25,0.0,0.0,0.0,-0.610004,0.017518,0.106265,-0.785028,0.0,0.0,0.0,0,0
2026-06-16 16:13:38.844,2432003,R_Hip,-0.1096,-0.964,0.0384,0.26,-2.35,4.48,-15.03,3.68,-32.92,0.174627,-0.073977,0.651875,-0.734214,0.0,0.0,0.0,0,0
2026-06-16 16:13:38.846,2432134,L_Ankle,0.082,-0.2157,0.9702,5.37,-0.81,-10.27,27.7,26.85,-7.64,-0.610004,0.017487,0.106357,-0.784997,0.0,0.0,0.0,0,0
2026-06-16 16:13:38.847,2432023,R_Hip,-0.1294,-0.9469,0.024,0.67,-1.91,3.99,-13.93,3.68,-31.89,0.175878,-0.073244,0.651723,-0.734092,0.0,0.0,0.0,0,0
2026-06-16 16:13:38.849,2432154,L_Ankle,0.0795,-0.2187,0.9698,5.38,-0.78,-10.26,26.3,25.45,-9.03,-0.610004,0.017457,0.106418,-0.784997,0.0,0.0,0.0,0,0
2026-06-16 16:13:38.857,2431987,R_Hip,-0.1452,-0.9464,0.0346,0.65,-1.72,3.03,-12.84,4.05,-32.57,0.176855,-0.072481,0.65154,-0.734123,0.0,0.0,0.0,0,0
2026-06-16 16:13:38.859,2432007,R_Hip,-0.158,-0.9533,0.0389,0.54,-1.77,2.75,-13.57,2.95,-32.23,0.177587,-0.071902,0.651326,-0.734184,0.0,0.0,0.0,0,0
2026-06-16 16:13:38.861,2432027,R_Hip,-0.1708,-0.9508,0.0384,0.42,-1.78,2.49,-14.48,3.13,-32.4,0.178045,-0.071657,0.651204,-0.734214,0.0,0.0,0.0,0,0
2026-06-16 16:13:38.863,2432047,R_Hip,-0.1649,-0.9591,0.0298,0.19,-1.73,2.06,-14.12,4.23,-32.75,0.17832,-0.071566,0.651143,-0.734184,0.0,0.0,0.0,0,0
2026-06-16 16:13:38.865,2432126,L_Hip,-0.2586,0.8646,0.4381,-4.14,4.64,2.83,19.17,4.07,-35.05,0.84167,0.471877,0.210211,0.157201,0.0,0.0,0.0,0,0
2026-06-16 16:13:38.867,2431997,R_Shank,-0.0179,-3.1484,1.0421,-0.54,-1.36,-8.55,-7.66,-24.75,-12.36,0.70745,-0.005463,0.000732,-0.706717,0.0,0.0,0.0,0,0
2026-06-16 16:13:38.867,2432146,L_Hip,-0.2522,0.868,0.4197,-4.15,4.62,2.86,0.0,0.0,0.0,0.8417,0.471877,0.210028,0.157231,0.0,0.0,0.0,0,0
2026-06-16 16:13:38.870,2432127,L_Hip,-0.2507,0.8617,0.4318,-4.12,4.61,2.9,18.25,0.66,-34.59,0.841731,0.471877,0.209876,0.157201,0.0,0.0,0.0,0,0
2026-06-16 16:13:38.871,2432017,R_Shank,-0.0105,2.8936,1.0388,-0.62,-1.22,-8.48,-6.47,-24.61,-13.43,0.707389,-0.005554,0.000824,-0.706778,0.0,0.0,0.0,0,0
2026-06-16 16:13:38.873,2432147,L_Hip,-0.2541,0.8651,0.4172,-4.12,4.57,2.9,17.95,1.95,-35.17,0.841762,0.471877,0.209815,0.157109,0.0,0.0,0.0,0,0
2026-06-16 16:13:38.874,2432037,R_Shank,-0.012,1.6116,1.0474,-0.67,-1.16,-8.45,0.0,0.0,0.0,0.707358,-0.005646,0.00116,-0.706809,0.0,0.0,0.0,0,0
2026-06-16 16:13:38.876,2432057,R_Shank,-0.0086,-0.4344,1.0301,-0.77,-1.09,-8.35,-7.13,-25.59,-13.43,0.707389,-0.005829,0.001648,-0.706778,0.0,0.0,0.0,0,0
2026-06-16 16:13:38.877,2432139,L_Ankle,0.0849,-0.2084,0.9688,5.37,-0.77,-10.28,27.36,25.79,-8.33,-0.610004,0.017457,0.106449,-0.784997,0.0,0.0,0.0,0,0
2026-06-16 16:13:38.881,2432159,L_Ankle,0.0844,-0.2206,0.9616,5.36,-0.74,-10.27,0.0,0.0,0.0,-0.610034,0.017457,0.106449,-0.784967,0.0,0.0,0.0,0,0
2026-06-16 16:13:38.883,2432179,L_Ankle,0.0712,-0.2197,0.9554,5.35,-0.73,-10.29,28.38,27.54,-8.3,-0.610065,0.017426,0.106418,-0.784967,0.0,0.0,0.0,0,0
2026-06-16 16:13:38.885,2432199,L_Ankle,0.0864,-0.2162,0.9602,5.36,-0.71,-10.29,26.43,28.1,-9.19,-0.610096,0.017396,0.106388,-0.784936,0.0,0.0,0.0,0,0
2026-06-16 16:13:38.889,2432020,R_Shank,0.0065,0.3228,1.082,-1.06,-2.23,-10.8,-6.14,-24.62,-13.43,0.707999,-0.010834,0.002777,-0.706107,0.0,0.0,0.0,0,0
2026-06-16 16:13:38.891,2432040,R_Shank,-0.0233,0.3228,1.0373,-1.06,-2.24,-11.0,0.0,0.0,0.0,0.70687,-0.011689,0.002716,-0.707205,0.0,0.0,0.0,0,0
2026-06-16 16:13:38.894,2432060,R_Shank,-0.0312,-0.8296,1.0037,-1.06,-2.24,-11.18,-5.8,-24.62,-13.14,0.705557,-0.012452,0.002686,-0.708518,0.0,0.0,0.0,0,0
2026-06-16 16:13:38.897,2432080,R_Shank,-0.0351,-1.3348,0.9763,-1.21,-2.32,-11.5,-6.63,-25.43,-12.68,0.704062,-0.013306,0.002777,-0.709952,0.0,0.0,0.0,0,0
2026-06-16 16:13:38.900,2432161,L_Shank,-0.0548,-0.1941,0.9729,1.75,-1.25,-0.1,24.35,27.04,-10.83,0.778436,-0.06238,-0.047517,0.622761,0.0,0.0,0.0,0,0
2026-06-16 16:13:38.902,2432032,R_Ankle,0.1159,-0.1449,1.0067,0.19,-2.34,-1.09,-18.94,-22.51,-19.93,0.972472,0.008118,-0.092715,0.213599,0.0,0.0,0.0,0,0
2026-06-16 16:13:38.903,2432181,L_Shank,-0.0397,-0.1892,0.9791,1.78,-1.21,-0.09,24.7,27.73,-11.16,0.778375,-0.062319,-0.04767,0.622852,0.0,0.0,0.0,0,0
2026-06-16 16:13:38.905,2432052,R_Ankle,0.1199,-0.1384,1.0029,0.22,-2.29,-1.35,0.0,0.0,0.0,0.972442,0.007782,-0.093295,0.213355,0.0,0.0,0.0,0,0
2026-06-16 16:13:38.906,2432201,L_Shank,-0.0436,-0.1795,0.9638,1.79,-1.19,-0.13,24.68,27.02,-8.97,0.778344,-0.062227,-0.047823,0.622883,0.0,0.0,0.0,0,0
2026-06-16 16:13:38.908,2432072,R_Ankle,0.1375,-0.1295,0.9957,0.28,-2.27,-1.67,-18.94,-24.43,-18.36,0.972503,0.007447,-0.093997,0.212836,0.0,0.0,0.0,0,0
2026-06-16 16:13:38.909,2432162,L_Shank,-0.046,-0.1736,0.9762,1.82,-1.19,-0.25,0.0,0.0,0.0,0.778283,-0.062075,-0.047914,0.622944,0.0,0.0,0.0,0,0
2026-06-16 16:13:38.911,2432092,R_Ankle,0.139,-0.1117,1.0024,0.22,-2.45,-2.34,-19.63,-23.47,-19.92,0.972625,0.007294,-0.094821,0.21189,0.0,0.0,0.0,0,0
2026-06-16 16:13:38.912,2432171,L_Hip,-0.261,0.8562,0.4192,-4.07,4.46,3.0,19.66,2.3,-36.07,0.841731,0.471969,0.209845,0.156987,0.0,0.0,0.0,0,0
2026-06-16 16:13:38.914,2432191,L_Hip,-0.259,0.8675,0.4114,-4.04,4.41,3.03,0.0,0.0,0.0,0.84167,0.472091,0.209876,0.156896,0.0,0.0,0.0,0,0
2026-06-16 16:13:38.917,2432211,L_Hip,-0.2502,0.8553,0.4206,-4.04,4.43,3.06,17.27,2.25,-34.29,0.841609,0.472213,0.209937,0.156774,0.0,0.0,0.0,0,0
2026-06-16 16:13:38.918,2432172,L_Hip,-0.2473,0.8572,0.4158,-4.04,4.41,3.09,18.63,3.25,-34.02,0.841548,0.472304,0.209998,0.156682,0.0,0.0,0.0,0,0
2026-06-16 16:13:38.921,2432184,L_Ankle,0.0658,-0.2241,0.953,5.41,-0.74,-10.27,27.37,25.43,-7.65,-0.610279,0.017304,0.106052,-0.784845,0.0,0.0,0.0,0,0
2026-06-16 16:13:38.924,2432204,L_Ankle,0.0697,-0.2128,0.9616,5.41,-0.77,-10.27,28.07,24.71,-8.66,-0.610248,0.017335,0.105991,-0.784875,0.0,0.0,0.0,0,0
2026-06-16 16:13:38.927,2432224,L_Ankle,0.0712,-0.2099,0.9717,5.41,-0.77,-10.29,0.0,0.0,0.0,-0.610218,0.017365,0.10596,-0.784906,0.0,0.0,0.0,0,0
2026-06-16 16:13:38.929,2432244,L_Ankle,0.0742,-0.2143,0.9741,5.44,-0.8,-10.29,27.0,26.15,-8.33,-0.610187,0.017365,0.10596,-0.784936,0.0,0.0,0.0,0,0
2026-06-16 16:13:38.932,2432194,L_Hip,-0.2576,0.8661,0.4158,-4.03,4.46,3.16,18.47,2.44,-35.03,0.841517,0.472396,0.210059,0.156621,0.0,0.0,0.0,0,0
2026-06-16 16:13:38.934,2432214,L_Hip,-0.2527,0.8612,0.4235,-4.03,4.51,3.15,0.0,0.0,0.0,0.841456,0.472488,0.210089,0.15659,0.0,0.0,0.0,0,0
2026-06-16 16:13:38.936,2432234,L_Hip,-0.2507,0.8656,0.4197,-4.04,4.55,3.15,20.16,2.47,-35.35,0.841426,0.472518,0.210089,0.15659,0.0,0.0,0.0,0,0
2026-06-16 16:13:38.938,2432254,L_Hip,-0.2561,0.8562,0.4313,-4.03,4.57,3.16,20.5,3.44,-34.78,0.841426,0.472518,0.21012,0.156621,0.0,0.0,0.0,0,0
2026-06-16 16:13:38.947,2432077,R_Ankle,0.0361,-0.1805,1.0508,-0.06,-2.37,-4.06,-20.97,-22.22,-18.72,0.972869,0.007233,-0.095737,0.210425,0.0,0.0,0.0,0,0
2026-06-16 16:13:38.948,2432097,R_Ankle,0.0395,-0.1731,1.0762,-0.18,-2.29,-4.3,0.0,0.0,0.0,0.973205,0.007111,-0.096683,0.20838,0.0,0.0,0.0,0,0
2026-06-16 16:13:38.951,2432117,R_Ankle,0.0351,-0.1677,1.0762,-0.25,-2.24,-4.46,-19.97,-23.79,-19.61,0.973693,0.006623,-0.097232,0.205817,0.0,0.0,0.0,0,0
2026-06-16 16:13:38.953,2432137,R_Ankle,0.04,-0.1335,1.0953,-0.38,-2.12,-4.88,-19.8,-23.95,-19.46,0.974242,0.006043,-0.097659,0.203009,0.0,0.0,0.0,0,0
2026-06-16 16:13:38.956,2432087,R_Hip,-0.1397,-0.9743,0.0394,-0.22,-1.28,1.35,-12.84,4.05,-33.6,0.178289,-0.071627,0.651265,-0.734092,0.0,0.0,0.0,0,0
2026-06-16 16:13:38.958,2432107,R_Hip,-0.1422,-0.9796,0.0413,-0.32,-1.22,1.13,-15.02,1.85,-31.2,0.177953,-0.071749,0.651509,-0.73394,0.0,0.0,0.0,0,0
2026-06-16 16:13:38.960,2432127,R_Hip,-0.1407,-0.9689,0.0404,-0.38,-1.18,0.89,-15.39,4.05,-31.89,0.177252,-0.072085,0.651784,-0.733818,0.0,0.0,0.0,0,0
2026-06-16 16:13:38.962,2432147,R_Hip,-0.1481,-0.9811,0.0134,-0.51,-1.13,0.44,0.0,0.0,0.0,0.176305,-0.072573,0.65215,-0.733695,0.0,0.0,0.0,0,0
2026-06-16 16:13:38.966,2432229,L_Ankle,0.0746,-0.2113,0.977,5.45,-0.83,-10.31,27.0,26.86,-7.65,-0.610157,0.017396,0.10596,-0.784936,0.0,0.0,0.0,0,0
2026-06-16 16:13:38.969,2432249,L_Ankle,0.0678,-0.2138,0.9534,5.45,-0.85,-10.32,26.31,26.51,-7.33,-0.610126,0.017396,0.10596,-0.784967,0.0,0.0,0.0,0,0
2026-06-16 16:13:38.970,2432100,R_Ankle,-0.1265,0.0953,0.7926,0.61,-1.55,-3.48,-17.76,-24.89,-19.42,0.98056,0.000397,-0.098849,0.169408,0.0,0.0,0.0,0,0
2026-06-16 16:13:38.972,2432269,L_Ankle,0.0722,-0.2148,0.9659,5.45,-0.85,-10.31,0.0,0.0,0.0,-0.610096,0.017426,0.10596,-0.784997,0.0,0.0,0.0,0,0
2026-06-16 16:13:38.974,2432120,R_Ankle,-0.1314,0.1087,0.7998,1.03,-1.42,-2.71,-16.74,-24.24,-19.73,0.981017,0.000793,-0.09827,0.167028,0.0,0.0,0.0,0,0
2026-06-16 16:13:38.976,2432289,L_Ankle,0.0683,-0.2113,0.9731,5.45,-0.86,-10.32,28.03,26.48,-8.99,-0.610096,0.017487,0.10596,-0.784997,0.0,0.0,0.0,0,0
2026-06-16 16:13:38.976,2432140,R_Ankle,-0.0986,0.1032,0.7485,1.25,-1.37,-2.18,0.0,0.0,0.0,0.981445,0.001556,-0.097537,0.165014,0.0,0.0,0.0,0,0
2026-06-16 16:13:38.978,2432237,L_Shank,-0.0568,-0.1633,0.9642,1.74,-1.16,-0.19,25.4,27.04,-10.53,0.777947,-0.061739,-0.048494,0.623341,0.0,0.0,0.0,0,0
2026-06-16 16:13:38.980,2432160,R_Ankle,-0.0751,0.1161,0.7361,1.48,-1.32,-1.64,-16.21,-24.09,-18.65,0.98175,0.002655,-0.096683,0.16364,0.0,0.0,0.0,0,0
2026-06-16 16:13:38.982,2432257,L_Shank,-0.0582,-0.1726,0.982,1.73,-1.17,-0.22,0.0,0.0,0.0,0.777947,-0.061739,-0.048524,0.623371,0.0,0.0,0.0,0,0
2026-06-16 16:13:38.983,2432112,R_Hip,-0.1047,-0.8493,-0.0106,-0.38,-1.09,0.44,-14.66,3.32,-32.23,0.166265,-0.08652,0.656972,-0.730216,0.0,0.0,0.0,0,0
2026-06-16 16:13:38.985,2432277,L_Shank,-0.044,-0.1692,0.9662,1.73,-1.19,-0.24,24.7,26.02,-10.51,0.777978,-0.061678,-0.048524,0.62331,0.0,0.0,0.0,0,0
2026-06-16 16:13:38.986,2432132,R_Hip,-0.1013,-0.8307,-0.0389,-0.25,-1.1,0.5,0.0,0.0,0.0,0.165227,-0.087039,0.657338,-0.730064,0.0,0.0,0.0,0,0
2026-06-16 16:13:38.989,2432297,L_Shank,-0.0343,-0.1618,0.9618,1.74,-1.18,-0.24,25.39,27.71,-9.92,0.778069,-0.061617,-0.048524,0.623218,0.0,0.0,0.0,0,0
2026-06-16 16:13:38.990,2432152,R_Hip,-0.1092,-0.8136,-0.0235,0.02,-1.1,0.73,-15.76,3.68,-32.58,0.164281,-0.087466,0.657582,-0.730003,0.0,0.0,0.0,0,0
2026-06-16 16:13:38.991,2432172,R_Hip,-0.1077,-0.7936,-0.0332,0.17,-1.12,0.88,0.0,0.0,0.0,0.163518,-0.087741,0.657735,-0.730003,0.0,0.0,0.0,0,0
2026-06-16 16:13:39.001,2432133,R_Shank,-0.0233,-0.046,0.9245,-1.5,-2.3,-11.7,-7.31,-25.75,-12.07,0.702475,-0.014344,0.003052,-0.711509,0.0,0.0,0.0,0,0
2026-06-16 16:13:39.003,2432153,R_Shank,-0.0307,0.2132,0.9086,-1.51,-2.21,-11.65,0.0,0.0,0.0,0.700827,-0.015473,0.003388,-0.713095,0.0,0.0,0.0,0,0
2026-06-16 16:13:39.007,2432173,R_Shank,-0.0351,0.984,0.8875,-1.52,-2.03,-11.54,-6.29,-26.1,-12.39,0.69924,-0.016572,0.003876,-0.714652,0.0,0.0,0.0,0,0
2026-06-16 16:13:39.010,2432193,R_Shank,-0.037,-3.258,0.8601,-1.42,-1.53,-11.21,-5.12,-25.29,-12.55,0.697806,-0.017335,0.004578,-0.716025,0.0,0.0,0.0,0,0
2026-06-16 16:13:39.024,2432155,R_Shank,-0.04,0.3428,0.7943,-0.71,-0.79,-10.3,-6.82,-24.6,-12.82,0.696554,-0.017762,0.005371,-0.717215,0.0,0.0,0.0,0,0
2026-06-16 16:13:39.025,2432175,R_Shank,-0.069,1.4956,0.765,-0.47,-0.54,-10.06,0.0,0.0,0.0,0.695547,-0.017853,0.006134,-0.718192,0.0,0.0,0.0,0,0
2026-06-16 16:13:39.028,2432195,R_Shank,-0.0616,1.366,0.7232,-0.19,-0.34,-9.85,-5.11,-25.96,-12.55,0.694784,-0.017396,0.006928,-0.718955,0.0,0.0,0.0,0,0
2026-06-16 16:13:39.030,2432215,R_Shank,-0.0724,3.1664,0.679,0.54,-0.44,-9.63,-5.79,-25.29,-13.14,0.694174,-0.016541,0.007385,-0.719565,0.0,0.0,0.0,0,0
2026-06-16 16:13:39.032,2432162,R_Hip,-0.1343,-0.7702,-0.051,1.07,-1.38,1.81,-16.3,2.41,-33.09,0.162999,-0.087802,0.657674,-0.730155,0.0,0.0,0.0,0,0
2026-06-16 16:13:39.034,2432182,R_Hip,-0.1471,-0.7595,-0.0587,1.35,-1.49,2.03,-13.56,1.85,-30.17,0.162908,-0.087619,0.65746,-0.730399,0.0,0.0,0.0,0,0
2026-06-16 16:13:39.037,2432202,R_Hip,-0.159,-0.7658,-0.0457,1.66,-1.58,2.25,-13.39,3.5,-32.06,0.163182,-0.087222,0.656972,-0.730827,0.0,0.0,0.0,0,0
2026-06-16 16:13:39.039,2432222,R_Hip,-0.1807,-0.7887,-0.0438,2.28,-1.77,2.54,0.0,0.0,0.0,0.163823,-0.086642,0.656148,-0.731498,0.0,0.0,0.0,0,0
2026-06-16 16:13:39.042,2432168,R_Ankle,0.0919,-0.0146,0.7088,2.29,-1.24,1.09,-17.08,-24.56,-20.04,0.981933,0.003967,-0.095889,0.16306,0.0,0.0,0.0,0,0
2026-06-16 16:13:39.044,2432188,R_Ankle,0.1262,-0.0309,0.715,2.29,-1.31,1.8,0.0,0.0,0.0,0.981903,0.005402,-0.095218,0.163427,0.0,0.0,0.0,0,0
2026-06-16 16:13:39.044,2432307,L_Hip,-0.2438,0.8729,0.4293,-4.07,4.67,3.23,19.14,2.13,-35.33,0.841456,0.472457,0.21012,0.156652,0.0,0.0,0.0,0,0
2026-06-16 16:13:39.047,2432327,L_Hip,-0.2433,0.8705,0.4264,-4.08,4.71,3.27,0.0,0.0,0.0,0.841487,0.472365,0.210211,0.156682,0.0,0.0,0.0,0,0
2026-06-16 16:13:39.047,2432208,R_Ankle,0.164,-0.0473,0.737,2.26,-1.36,2.43,-16.73,-24.88,-18.8,0.981689,0.006684,-0.094943,0.1648,0.0,0.0,0.0,0,0
2026-06-16 16:13:39.049,2432347,L_Hip,-0.2463,0.8749,0.4226,-4.09,4.71,3.3,19.31,1.65,-35.77,0.841517,0.472243,0.210303,0.156682,0.0,0.0,0.0,0,0
2026-06-16 16:13:39.050,2432228,R_Ankle,0.2134,-0.081,0.773,2.06,-1.61,3.29,-16.22,-24.72,-18.64,0.981292,0.007752,-0.095126,0.167058,0.0,0.0,0.0,0,0
2026-06-16 16:13:39.051,2432367,L_Hip,-0.2301,0.8734,0.425,-4.1,4.7,3.3,20.29,1.02,-34.62,0.841548,0.472182,0.210395,0.156652,0.0,0.0,0.0,0,0
2026-06-16 16:13:39.056,2432319,L_Ankle,0.0761,-0.2162,0.9698,5.38,-1.0,-10.35,27.02,25.08,-8.34,-0.610034,0.01822,0.105716,-0.785028,0.0,0.0,0.0,0,0
2026-06-16 16:13:39.058,2432339,L_Ankle,0.0683,-0.2265,0.9496,5.38,-1.03,-10.33,28.75,26.83,-7.62,-0.610034,0.018281,0.105655,-0.785058,0.0,0.0,0.0,0,0
2026-06-16 16:13:39.060,2432359,L_Ankle,0.0688,-0.2216,0.9592,5.37,-1.05,-10.32,26.48,25.98,-8.17,-0.610034,0.018311,0.105594,-0.785058,0.0,0.0,0.0,0,0
2026-06-16 16:13:39.062,2432379,L_Ankle,0.0751,-0.2172,0.9602,5.38,-1.07,-10.32,0.0,0.0,0.0,-0.610034,0.018311,0.105564,-0.785058,0.0,0.0,0.0,0,0
2026-06-16 16:13:39.066,2432329,L_Hip,-0.2281,0.872,0.4318,-4.09,4.73,3.29,21.15,1.2,-35.65,0.841609,0.47206,0.210456,0.156529,0.0,0.0,0.0,0,0
2026-06-16 16:13:39.068,2432349,L_Hip,-0.2375,0.869,0.4172,-4.09,4.74,3.25,18.47,2.44,-35.32,0.84167,0.471999,0.210456,0.156407,0.0,0.0,0.0,0,0
2026-06-16 16:13:39.070,2432369,L_Hip,-0.2404,0.871,0.4168,-4.09,4.74,3.24,0.0,0.0,0.0,0.841731,0.471938,0.210456,0.156255,0.0,0.0,0.0,0,0
2026-06-16 16:13:39.072,2432389,L_Hip,-0.2389,0.869,0.4158,-4.09,4.72,3.23,17.98,2.92,-35.46,0.841792,0.471908,0.210395,0.156072,0.0,0.0,0.0,0,0
2026-06-16 16:13:39.081,2432212,R_Hip,-0.011,-1.6855,0.1309,1.45,-4.26,0.62,-14.48,4.23,-32.06,0.168126,-0.085849,0.648579,-0.737327,0.0,0.0,0.0,0,0
2026-06-16 16:13:39.083,2432232,R_Hip,-0.0421,-1.6304,0.41,0.05,-3.29,0.74,-14.48,2.4,-32.4,0.168523,-0.087893,0.647359,-0.73809,0.0,0.0,0.0,0,0
2026-06-16 16:13:39.085,2432252,R_Hip,-0.194,-1.4683,0.3908,-1.0,-1.35,0.98,-15.03,4.05,-32.23,0.168004,-0.089206,0.646901,-0.738426,0.0,0.0,0.0,0,0
2026-06-16 16:13:39.087,2432272,R_Hip,-0.4662,-1.0875,0.1588,-1.51,2.49,1.66,0.0,0.0,0.0,0.166601,-0.087527,0.647511,-0.738426,0.0,0.0,0.0,0,0
2026-06-16 16:13:39.091,2432222,R_Shank,-0.2825,0.1372,1.0345,0.89,1.75,-7.46,-6.28,-26.76,-11.79,0.692587,-0.011109,-0.002289,-0.721213,0.0,0.0,0.0,0,0
2026-06-16 16:13:39.093,2432242,R_Shank,-0.1725,2.15,0.8048,1.26,-1.08,-5.84,-6.77,-26.27,-14.34,0.692709,-0.008911,0.00061,-0.721122,0.0,0.0,0.0,0,0
2026-06-16 16:13:39.095,2432262,R_Shank,-0.0871,2.9004,0.8481,1.32,-3.46,-4.72,-5.47,-24.96,-12.54,0.694296,-0.008454,0.000366,-0.719596,0.0,0.0,0.0,0,0
2026-06-16 16:13:39.097,2432282,R_Shank,-0.0218,1.7212,0.9225,0.73,-5.17,-4.32,0.0,0.0,0.0,0.696402,-0.009522,-0.00174,-0.717551,0.0,0.0,0.0,0,0
2026-06-16 16:13:39.099,2432362,L_Shank,-0.0548,-0.1731,0.9686,1.74,-1.08,-0.45,24.36,27.05,-11.46,0.778375,-0.061342,-0.048158,0.622913,0.0,0.0,0.0,0,0
2026-06-16 16:13:39.101,2432382,L_Shank,-0.0558,-0.1785,0.9772,1.75,-1.09,-0.45,0.0,0.0,0.0,0.778344,-0.061342,-0.048036,0.622944,0.0,0.0,0.0,0,0
2026-06-16 16:13:39.104,2432402,L_Shank,-0.0509,-0.1751,0.9614,1.76,-1.09,-0.45,25.22,26.53,-10.37,0.778314,-0.061373,-0.047945,0.623005,0.0,0.0,0.0,0,0
2026-06-16 16:13:39.105,2432236,R_Ankle,-0.616,-0.2038,1.8502,1.67,-0.98,2.19,-18.61,-25.38,-18.66,0.980773,0.008576,-0.095737,0.169744,0.0,0.0,0.0,0,0
2026-06-16 16:13:39.106,2432422,L_Shank,-0.0597,-0.1614,0.9594,1.75,-1.09,-0.4,24.88,27.56,-11.31,0.778283,-0.061403,-0.047914,0.623035,0.0,0.0,0.0,0,0
2026-06-16 16:13:39.108,2432256,R_Ankle,-0.5597,-0.512,1.8363,1.57,1.45,-0.26,-17.92,-23.78,-18.98,0.980255,0.009339,-0.096408,0.172308,0.0,0.0,0.0,0,0
2026-06-16 16:13:39.111,2432276,R_Ankle,-0.4803,-0.56,1.8258,2.12,2.07,-2.52,0.0,0.0,0.0,0.980377,0.009369,-0.093081,0.173406,0.0,0.0,0.0,0,0
2026-06-16 16:13:39.113,2432374,L_Hip,-0.2365,0.8729,0.4182,-4.1,4.67,3.15,19.66,2.62,-35.49,0.841914,0.471816,0.210334,0.155889,0.0,0.0,0.0,0,0
2026-06-16 16:13:39.115,2432296,R_Ankle,0.0699,-0.515,1.2409,1.48,0.06,-2.32,-17.42,-24.88,-19.73,0.981079,0.007935,-0.088107,0.172094,0.0,0.0,0.0,0,0
2026-06-16 16:13:39.116,2432394,L_Hip,-0.2301,0.8759,0.4226,-4.11,4.64,3.11,20.47,1.51,-35.06,0.841975,0.471786,0.210211,0.155705,0.0,0.0,0.0,0,0
2026-06-16 16:13:39.118,2432237,R_Hip,-0.4194,-0.7731,-0.0505,-1.07,0.63,5.22,-14.48,3.14,-33.09,0.166051,-0.083682,0.648946,-0.737724,0.0,0.0,0.0,0,0
2026-06-16 16:13:39.119,2432414,L_Hip,-0.2321,0.8749,0.4158,-4.12,4.64,3.08,0.0,0.0,0.0,0.842036,0.471786,0.210089,0.155553,0.0,0.0,0.0,0,0
2026-06-16 16:13:39.122,2432434,L_Hip,-0.2321,0.871,0.4148,-4.13,4.64,3.06,19.65,2.94,-34.91,0.842097,0.471755,0.209967,0.155431,0.0,0.0,0.0,0,0
2026-06-16 16:13:39.122,2432257,R_Hip,-0.2542,-0.7316,-0.0423,-0.88,-0.58,5.57,-14.48,3.5,-32.4,0.167028,-0.080081,0.650441,-0.736595,0.0,0.0,0.0,0,0
2026-06-16 16:13:39.124,2432277,R_Hip,-0.1713,-0.7482,-0.0269,-0.67,-1.58,5.63,-14.3,2.59,-33.25,0.169073,-0.077761,0.651418,-0.735496,0.0,0.0,0.0,0,0
2026-06-16 16:13:39.127,2432297,R_Hip,-0.0579,-0.8019,-0.0139,-0.3,-2.58,4.6,0.0,0.0,0.0,0.171056,-0.076785,0.651875,-0.734733,0.0,0.0,0.0,0,0
2026-06-16 16:13:39.129,2432245,R_Shank,0.0061,0.6912,0.8654,-0.69,-3.41,-6.33,-6.6,-27.09,-13.3,0.698019,-0.010804,-0.003479,-0.715934,0.0,0.0,0.0,0,0
2026-06-16 16:13:39.132,2432265,R_Shank,0.0129,0.0504,0.801,-1.03,-2.45,-7.84,-7.32,-25.41,-11.77,0.698874,-0.01178,-0.004212,-0.71511,0.0,0.0,0.0,0,0
2026-06-16 16:13:39.134,2432396,L_Hip,-0.2326,0.8808,0.4274,-4.16,4.55,3.03,19.44,1.16,-34.17,0.842158,0.471755,0.209876,0.15537,0.0,0.0,0.0,0,0
2026-06-16 16:13:39.135,2432285,R_Shank,0.0011,-2.7796,0.7227,-1.0,-2.25,-8.49,0.0,0.0,0.0,0.698996,-0.012543,-0.004425,-0.714988,0.0,0.0,0.0,0,0
2026-06-16 16:13:39.137,2432416,L_Hip,-0.2267,0.8808,0.4163,-4.18,4.51,3.05,18.95,1.96,-34.02,0.842189,0.471725,0.209815,0.155278,0.0,0.0,0.0,0,0
2026-06-16 16:13:39.138,2432305,R_Shank,-0.0213,0.1732,0.7909,-0.99,-2.18,-9.93,-7.14,-25.92,-12.23,0.698416,-0.013092,-0.004608,-0.715537,0.0,0.0,0.0,0,0
2026-06-16 16:13:39.140,2432397,L_Hip,-0.2326,0.8749,0.4182,-4.18,4.5,3.03,0.0,0.0,0.0,0.842189,0.471725,0.209815,0.155248,0.0,0.0,0.0,0,0
2026-06-16 16:13:39.142,2432257,R_Ankle,-0.0079,-0.0473,0.9612,0.36,-2.07,-1.72,-18.09,-24.26,-18.51,0.979736,0.006043,-0.090915,0.178289,0.0,0.0,0.0,0,0
2026-06-16 16:13:39.143,2432417,L_Hip,-0.2223,0.8788,0.4289,-4.19,4.48,3.01,19.81,1.82,-35.63,0.84225,0.471664,0.209845,0.155187,0.0,0.0,0.0,0,0
2026-06-16 16:13:39.145,2432277,R_Ankle,0.0179,-0.0943,0.9938,0.29,-2.01,-1.84,-18.08,-23.95,-18.51,0.979888,0.006256,-0.091037,0.177435,0.0,0.0,0.0,0,0
2026-06-16 16:13:39.148,2432297,R_Ankle,0.0366,-0.1275,1.0091,0.22,-1.9,-2.0,0.0,0.0,0.0,0.980041,0.006317,-0.091098,0.176489,0.0,0.0,0.0,0,0
2026-06-16 16:13:39.148,2432410,L_Ankle,0.082,-0.2197,0.9717,5.38,-1.09,-10.29,27.34,26.14,-8.67,-0.610034,0.018311,0.105533,-0.785058,0.0,0.0,0.0,0,0
2026-06-16 16:13:39.151,2432430,L_Ankle,0.0756,-0.2138,0.9573,5.38,-1.06,-10.31,27.35,25.78,-8.67,-0.610065,0.018281,0.105502,-0.785058,0.0,0.0,0.0,0,0
2026-06-16 16:13:39.152,2432317,R_Ankle,0.0865,-0.2152,1.035,0.16,-1.74,-2.34,-16.04,-22.97,-19.43,0.980224,0.006043,-0.09125,0.175359,0.0,0.0,0.0,0,0
2026-06-16 16:13:39.155,2432450,L_Ankle,0.08,-0.2104,0.9544,5.4,-1.06,-10.31,27.17,26.68,-8.16,-0.610065,0.01825,0.105502,-0.785058,0.0,0.0,0.0,0,0
2026-06-16 16:13:39.155,2432262,R_Hip,-0.1767,-1.0421,0.0543,0.38,-1.26,-2.02,-14.3,4.41,-31.89,0.166936,-0.081118,0.65041,-0.736534,0.0,0.0,0.0,0,0
2026-06-16 16:13:39.157,2432470,L_Ankle,0.0795,-0.2216,0.9659,5.39,-1.06,-10.31,0.0,0.0,0.0,-0.610065,0.01825,0.105472,-0.785058,0.0,0.0,0.0,0,0
2026-06-16 16:13:39.158,2432282,R_Hip,-0.2399,-1.0953,0.0611,0.14,-1.16,-1.85,-15.03,3.32,-32.57,0.164892,-0.082644,0.650105,-0.737083,0.0,0.0,0.0,0,0
2026-06-16 16:13:39.161,2432302,R_Hip,-0.2699,-1.1373,0.0668,-0.08,-1.12,-1.53,-13.93,3.31,-31.2,0.16306,-0.083804,0.650075,-0.737388,0.0,0.0,0.0,0,0
2026-06-16 16:13:39.163,2432322,R_Hip,-0.2887,-1.172,0.0538,-0.45,-1.4,-0.53,0.0,0.0,0.0,0.16187,-0.084536,0.650319,-0.737358,0.0,0.0,0.0,0,0
2026-06-16 16:13:39.165,2432267,R_Shank,-0.0022,-2.0092,0.9946,-0.47,-1.71,-12.61,-6.11,-26.27,-13.15,0.697073,-0.013489,-0.004791,-0.716819,0.0,0.0,0.0,0,0
2026-06-16 16:13:39.168,2432287,R_Shank,-0.0081,-2.5072,1.0974,-0.3,-1.5,-12.9,-4.96,-25.13,-12.09,0.69509,-0.013581,-0.005036,-0.718741,0.0,0.0,0.0,0,0
2026-06-16 16:13:39.171,2432307,R_Shank,-0.0341,1.8708,1.1166,-0.18,-1.29,-12.9,0.0,0.0,0.0,0.692831,-0.013428,-0.005097,-0.720908,0.0,0.0,0.0,0,0
2026-06-16 16:13:39.175,2432327,R_Shank,-0.0871,2.7908,1.156,-0.11,-0.85,-11.77,-6.3,-25.77,-12.08,0.69097,-0.013092,-0.004669,-0.722709,0.0,0.0,0.0,0,0
2026-06-16 16:13:39.176,2432437,L_Shank,-0.0558,-0.1614,0.9503,1.79,-1.22,-0.2,25.74,26.36,-10.53,0.778649,-0.061525,-0.047761,0.622578,0.0,0.0,0.0,0,0
2026-06-16 16:13:39.178,2432288,R_Hip,-0.1935,-1.2042,0.0264,-1.06,-2.69,2.06,-13.2,4.05,-32.23,0.161565,-0.085055,0.650777,-0.736961,0.0,0.0,0.0,0,0
2026-06-16 16:13:39.178,2432457,L_Shank,-0.0641,-0.1711,0.97,1.79,-1.22,-0.19,0.0,0.0,0.0,0.778741,-0.061617,-0.047731,0.622456,0.0,0.0,0.0,0,0
2026-06-16 16:13:39.180,2432308,R_Hip,-0.1077,-1.2066,0.0365,-1.16,-2.87,2.54,-15.39,2.22,-31.2,0.162023,-0.085513,0.651448,-0.736229,0.0,0.0,0.0,0,0
2026-06-16 16:13:39.181,2432477,L_Shank,-0.0636,-0.1682,0.959,1.78,-1.2,-0.2,25.58,28.92,-11.34,0.778832,-0.061678,-0.0477,0.622333,0.0,0.0,0.0,0,0
2026-06-16 16:13:39.184,2432328,R_Hip,-0.0534,-1.2017,0.0283,-1.25,-2.96,2.92,-13.2,4.04,-31.55,0.162969,-0.086001,0.65215,-0.735313,0.0,0.0,0.0,0,0
2026-06-16 16:13:39.184,2432497,L_Shank,-0.0695,-0.1755,0.9614,1.77,-1.22,-0.2,23.82,26.19,-10.35,0.778863,-0.061769,-0.047609,0.622303,0.0,0.0,0.0,0,0
2026-06-16 16:13:39.186,2432348,R_Hip,0.0076,-1.2349,0.0428,-1.5,-2.88,3.35,0.0,0.0,0.0,0.163945,-0.08652,0.653005,-0.734306,0.0,0.0,0.0,0,0
2026-06-16 16:13:39.187,2432441,L_Hip,-0.2232,0.8818,0.4143,-4.17,4.48,2.91,17.96,2.59,-35.17,0.84225,0.471603,0.209967,0.155126,0.0,0.0,0.0,0,0
2026-06-16 16:13:39.190,2432442,L_Hip,-0.2311,0.8774,0.4255,-4.14,4.48,2.85,20.0,3.6,-34.92,0.842311,0.47148,0.210089,0.155095,0.0,0.0,0.0,0,0
2026-06-16 16:13:39.190,2432302,R_Ankle,0.0758,-0.3847,1.1025,0.04,-2.16,-1.83,-17.76,-24.89,-19.42,0.980438,0.005432,-0.091525,0.174047,0.0,0.0,0.0,0,0
2026-06-16 16:13:39.192,2432462,L_Hip,-0.2223,0.8813,0.425,-4.15,4.49,2.82,0.0,0.0,0.0,0.842311,0.471419,0.210211,0.155034,0.0,0.0,0.0,0,0
2026-06-16 16:13:39.194,2432322,R_Ankle,0.0635,-0.4089,1.137,0.2,-2.29,-1.35,-16.74,-24.56,-19.42,0.980621,0.004395,-0.092013,0.172765,0.0,0.0,0.0,0,0
2026-06-16 16:13:39.195,2432482,L_Hip,-0.2281,0.8803,0.4095,-4.14,4.48,2.8,20.14,2.79,-34.19,0.842311,0.471358,0.210334,0.155004,0.0,0.0,0.0,0,0
2026-06-16 16:13:39.196,2432342,R_Ankle,0.0586,-0.3975,1.1514,0.36,-2.44,-0.83,0.0,0.0,0.0,0.980682,0.003174,-0.092685,0.172033,0.0,0.0,0.0,0,0
2026-06-16 16:13:39.199,2432362,R_Ankle,0.0567,-0.3435,1.1772,0.99,-2.52,0.01,-16.73,-24.25,-19.11,0.980621,0.002045,-0.093417,0.172063,0.0,0.0,0.0,0,0
2026-06-16 16:13:39.201,2432462,L_Shank,-0.0641,-0.1697,0.9681,1.74,-1.38,0.04,23.3,26.36,-10.81,0.778924,-0.062105,-0.047212,0.622211,0.0,0.0,0.0,0,0
2026-06-16 16:13:39.202,2432325,R_Ankle,-0.0408,-0.238,1.2146,1.59,-1.95,-0.63,-16.9,-24.4,-19.27,0.980499,0.001526,-0.093966,0.172521,0.0,0.0,0.0,0,0
2026-06-16 16:13:39.204,2432482,L_Shank,-0.0528,-0.1765,0.9585,1.74,-1.4,0.05,25.23,27.9,-11.32,0.778924,-0.062105,-0.047182,0.622211,0.0,0.0,0.0,0,0
2026-06-16 16:13:39.205,2432345,R_Ankle,-0.0731,-0.2375,1.3013,1.3,-1.9,-0.96,-16.22,-25.36,-18.32,0.980407,0.001465,-0.09418,0.172857,0.0,0.0,0.0,0,0
2026-06-16 16:13:39.207,2432502,L_Shank,-0.0465,-0.1746,0.9652,1.74,-1.4,0.06,0.0,0.0,0.0,0.778924,-0.062136,-0.047182,0.622211,0.0,0.0,0.0,0,0
2026-06-16 16:13:39.208,2432365,R_Ankle,-0.0785,-0.2286,1.376,0.81,-1.64,-1.51,0.0,0.0,0.0,0.980468,0.001465,-0.093997,0.172735,0.0,0.0,0.0,0,0
2026-06-16 16:13:39.210,2432522,L_Shank,-0.047,-0.1589,0.9652,1.74,-1.41,0.02,24.7,28.06,-10.85,0.778924,-0.062105,-0.047151,0.622242,0.0,0.0,0.0,0,0
2026-06-16 16:13:39.211,2432385,R_Ankle,-0.0653,-0.1464,1.3037,0.09,-1.3,-2.29,-16.89,-23.45,-18.97,0.980651,0.000916,-0.093295,0.171911,0.0,0.0,0.0,0,0
2026-06-16 16:13:39.213,2432336,R_Shank,0.0404,-2.7328,1.1517,-1.77,-0.88,-4.66,-5.76,-26.61,-13.45,0.696127,-0.010376,0.003937,-0.717826,0.0,0.0,0.0,0,0
2026-06-16 16:13:39.214,2432476,L_Ankle,0.0756,-0.2123,0.963,5.37,-1.03,-10.3,28.04,26.84,-7.97,-0.610096,0.018189,0.105472,-0.785028,0.0,0.0,0.0,0,0
2026-06-16 16:13:39.217,2432477,L_Ankle,0.0791,-0.2128,0.9597,5.37,-1.01,-10.29,26.6,27.21,-10.04,-0.610096,0.018189,0.105472,-0.785028,0.0,0.0,0.0,0,0
2026-06-16 16:13:39.220,2432356,R_Shank,0.0591,2.1032,1.2876,-1.9,-1.25,-5.01,-6.11,-26.6,-12.24,0.698019,-0.011139,0.00531,-0.715934,0.0,0.0,0.0,0,0
2026-06-16 16:13:39.221,2432497,L_Ankle,0.0795,-0.2148,0.9582,5.37,-1.01,-10.32,27.2,25.26,-7.48,-0.610096,0.018159,0.105441,-0.785028,0.0,0.0,0.0,0,0
2026-06-16 16:13:39.223,2432376,R_Shank,0.0537,3.1128,1.339,-2.09,-1.51,-5.52,0.0,0.0,0.0,0.699576,-0.012024,0.005951,-0.714377,0.0,0.0,0.0,0,0
2026-06-16 16:13:39.224,2432517,L_Ankle,0.0732,-0.2197,0.9616,5.35,-1.0,-10.32,28.02,26.48,-9.67,-0.610126,0.018128,0.105472,-0.785028,0.0,0.0,0.0,0,0
2026-06-16 16:13:39.225,2432396,R_Shank,0.0473,1.0468,1.3587,-2.51,-1.38,-7.03,-7.46,-26.57,-12.53,0.700461,-0.012787,0.006378,-0.713523,0.0,0.0,0.0,0,0
2026-06-16 16:13:39.228,2432337,R_Hip,0.0575,-1.2545,0.0712,-2.09,-2.26,2.67,-13.02,3.13,-33.08,0.164647,-0.087222,0.653951,-0.733207,0.0,0.0,0.0,0,0
2026-06-16 16:13:39.236,2432357,R_Hip,0.019,-1.2081,0.1082,-2.22,-1.79,2.51,-14.84,1.31,-32.74,0.164922,-0.088015,0.654958,-0.732139,0.0,0.0,0.0,0,0
2026-06-16 16:13:39.238,2432499,L_Ankle,0.0835,-0.2231,0.9592,5.35,-0.95,-10.32,26.98,27.56,-7.99,-0.610126,0.018067,0.105472,-0.785028,0.0,0.0,0.0,0,0
2026-06-16 16:13:39.240,2432377,R_Hip,-0.0219,-1.1602,0.0895,-2.33,-1.19,2.47,-13.57,3.31,-31.89,0.164617,-0.088443,0.656117,-0.731132,0.0,0.0,0.0,0,0
2026-06-16 16:13:39.241,2432519,L_Ankle,0.0913,-0.2167,0.9506,5.36,-0.93,-10.33,0.0,0.0,0.0,-0.610157,0.018036,0.105502,-0.784997,0.0,0.0,0.0,0,0
2026-06-16 16:13:39.243,2432397,R_Hip,-0.1087,-1.0465,0.0529,-2.44,-0.12,2.59,0.0,0.0,0.0,0.164068,-0.088046,0.657491,-0.730064,0.0,0.0,0.0,0,0
2026-06-16 16:13:39.245,2432539,L_Ankle,0.0893,-0.2172,0.9558,5.36,-0.94,-10.32,27.69,26.84,-8.32,-0.610157,0.017975,0.105564,-0.784997,0.0,0.0,0.0,0,0
2026-06-16 16:13:39.247,2432357,R_Shank,-0.0056,-2.1252,1.1373,-2.55,0.03,-9.64,-6.64,-25.43,-12.08,0.700522,-0.013306,0.007294,-0.713431,0.0,0.0,0.0,0,0
2026-06-16 16:13:39.249,2432559,L_Ankle,0.0766,-0.2211,0.9702,5.38,-0.89,-10.31,27.88,24.89,-9.17,-0.610187,0.017914,0.105625,-0.784967,0.0,0.0,0.0,0,0
2026-06-16 16:13:39.252,2432377,R_Shank,-0.0321,2.7776,1.0023,-2.57,0.0,-9.92,0.0,0.0,0.0,0.700003,-0.013642,0.00885,-0.713919,0.0,0.0,0.0,0,0
2026-06-16 16:13:39.254,2432510,L_Hip,-0.233,0.8759,0.4158,-4.13,4.42,2.78,19.5,3.1,-35.34,0.842311,0.471358,0.210395,0.154973,0.0,0.0,0.0,0,0
2026-06-16 16:13:39.257,2432397,R_Shank,-0.0267,-2.228,0.9566,-2.6,-0.12,-10.11,-6.32,-24.45,-12.68,0.699179,-0.01413,0.010743,-0.714682,0.0,0.0,0.0,0,0
2026-06-16 16:13:39.258,2432530,L_Hip,-0.237,0.8734,0.4124,-4.16,4.39,2.78,20.51,2.16,-36.81,0.842311,0.471358,0.210395,0.154942,0.0,0.0,0.0,0,0
2026-06-16 16:13:39.260,2432417,R_Shank,-0.0341,1.3724,0.849,-2.74,-0.36,-10.25,-6.15,-24.28,-12.53,0.698233,-0.014893,0.012696,-0.715567,0.0,0.0,0.0,0,0
2026-06-16 16:13:39.262,2432550,L_Hip,-0.2424,0.8764,0.4153,-4.16,4.38,2.77,20.64,1.67,-34.63,0.842311,0.471389,0.210395,0.154881,0.0,0.0,0.0,0,0
2026-06-16 16:13:39.264,2432380,R_Shank,-0.0488,1.502,0.7352,-2.81,-0.49,-10.22,-4.78,-24.65,-13.75,0.697287,-0.015778,0.014649,-0.716422,0.0,0.0,0.0,0,0
2026-06-16 16:13:39.265,2432570,L_Hip,-0.2355,0.8818,0.4153,-4.18,4.35,2.74,0.0,0.0,0.0,0.84228,0.47145,0.210395,0.154851,0.0,0.0,0.0,0,0
2026-06-16 16:13:39.267,2432400,R_Shank,-0.0366,-1.5804,0.6655,-2.66,-0.68,-10.03,0.0,0.0,0.0,0.696371,-0.016663,0.016572,-0.717277,0.0,0.0,0.0,0,0
2026-06-16 16:13:39.268,2432511,L_Shank,-0.0392,-0.1785,0.9676,1.74,-1.32,-0.2,24.69,27.71,-9.91,0.778863,-0.062014,-0.047182,0.622303,0.0,0.0,0.0,0,0
2026-06-16 16:13:39.270,2432420,R_Shank,-0.0316,0.9904,0.6477,-2.48,-0.87,-9.87,-5.63,-24.46,-13.29,0.695578,-0.017609,0.018281,-0.717978,0.0,0.0,0.0,0,0
2026-06-16 16:13:39.271,2432531,L_Shank,-0.0416,-0.1697,0.9614,1.71,-1.32,-0.25,25.74,27.71,-9.92,0.778802,-0.061983,-0.047243,0.622364,0.0,0.0,0.0,0,0
2026-06-16 16:13:39.274,2432440,R_Shank,-0.0375,2.7844,0.5891,-1.98,-1.46,-9.45,-5.8,-24.63,-13.44,0.694967,-0.018647,0.019501,-0.718497,0.0,0.0,0.0,0,0
2026-06-16 16:13:39.274,2432551,L_Shank,-0.0313,-0.1741,0.9767,1.73,-1.31,-0.27,0.0,0.0,0.0,0.778741,-0.061922,-0.047365,0.622456,0.0,0.0,0.0,0,0
2026-06-16 16:13:39.277,2432387,R_Hip,-0.1151,-0.6799,-0.0621,-0.66,-0.7,2.76,-13.57,1.85,-31.54,0.164708,-0.082369,0.664632,-0.724082,0.0,0.0,0.0,0,0
2026-06-16 16:13:39.277,2432571,L_Shank,-0.0401,-0.1726,0.9767,1.74,-1.28,-0.25,23.83,27.89,-10.68,0.778619,-0.061861,-0.047456,0.622608,0.0,0.0,0.0,0,0
2026-06-16 16:13:39.280,2432407,R_Hip,-0.0973,-0.653,-0.0669,-0.38,-0.65,2.64,-14.3,1.85,-31.88,0.164769,-0.081576,0.665395,-0.723441,0.0,0.0,0.0,0,0
2026-06-16 16:13:39.281,2432531,L_Hip,-0.233,0.8793,0.4139,-4.24,4.38,2.69,19.15,2.45,-35.33,0.84225,0.471541,0.210303,0.154881,0.0,0.0,0.0,0,0
2026-06-16 16:13:39.283,2432551,L_Hip,-0.2463,0.8769,0.4192,-4.27,4.41,2.65,19.83,2.79,-35.35,0.842219,0.471633,0.210242,0.154912,0.0,0.0,0.0,0,0
2026-06-16 16:13:39.283,2432427,R_Hip,-0.1067,-0.6438,-0.0635,-0.08,-0.6,2.54,0.0,0.0,0.0,0.164678,-0.080813,0.665914,-0.723106,0.0,0.0,0.0,0,0
2026-06-16 16:13:39.286,2432532,L_Hip,-0.2394,0.8729,0.4221,-4.26,4.41,2.62,19.5,3.1,-35.34,0.842158,0.471694,0.210181,0.155004,0.0,0.0,0.0,0,0
2026-06-16 16:13:39.286,2432447,R_Hip,-0.1161,-0.6145,-0.0842,0.51,-0.51,2.35,-12.29,0.57,-32.05,0.164464,-0.079989,0.666097,-0.723045,0.0,0.0,0.0,0,0
2026-06-16 16:13:39.288,2432552,L_Hip,-0.2483,0.8867,0.424,-4.28,4.41,2.61,0.0,0.0,0.0,0.842128,0.471755,0.210181,0.155065,0.0,0.0,0.0,0,0
2026-06-16 16:13:39.290,2432413,R_Hip,-0.193,-0.6516,-0.0933,1.67,-0.97,1.46,-13.39,2.4,-32.4,0.16419,-0.079196,0.666005,-0.723289,0.0,0.0,0.0,0,0
2026-06-16 16:13:39.291,2432536,L_Shank,-0.0372,-0.1736,0.9676,1.75,-1.22,-0.2,24.88,25.86,-10.98,0.778497,-0.061831,-0.047548,0.62273,0.0,0.0,0.0,0,0
2026-06-16 16:13:39.293,2432433,R_Hip,-0.1974,-0.6857,-0.1015,1.9,-1.32,1.03,-12.66,3.13,-32.74,0.163976,-0.078585,0.665609,-0.723777,0.0,0.0,0.0,0,0
2026-06-16 16:13:39.294,2432556,L_Shank,-0.0411,-0.1731,0.9782,1.76,-1.2,-0.19,24.52,26.87,-10.68,0.778375,-0.061769,-0.04767,0.622883,0.0,0.0,0.0,0,0
2026-06-16 16:13:39.297,2432453,R_Hip,-0.2039,-0.7389,-0.0799,2.11,-1.75,0.64,-12.11,1.85,-32.22,0.163701,-0.078616,0.664876,-0.724509,0.0,0.0,0.0,0,0
2026-06-16 16:13:39.299,2432576,L_Shank,-0.0357,-0.1765,0.9782,1.76,-1.2,-0.2,0.0,0.0,0.0,0.778283,-0.061678,-0.047792,0.623005,0.0,0.0,0.0,0,0
2026-06-16 16:13:39.300,2432473,R_Hip,-0.1609,-0.8546,-0.075,2.42,-2.61,0.06,0.0,0.0,0.0,0.163518,-0.079379,0.663778,-0.725455,0.0,0.0,0.0,0,0
2026-06-16 16:13:39.301,2432596,L_Shank,-0.0338,-0.1711,0.9714,1.76,-1.15,-0.22,24.52,28.23,-10.69,0.778191,-0.061586,-0.047914,0.623127,0.0,0.0,0.0,0,0
2026-06-16 16:13:39.303,2432425,R_Shank,-0.0459,-0.8164,0.5517,-0.84,-2.65,-8.72,-5.79,-25.62,-12.84,0.694632,-0.019684,0.019959,-0.718772,0.0,0.0,0.0,0,0
2026-06-16 16:13:39.305,2432566,L_Ankle,0.0771,-0.2201,0.9846,5.4,-0.86,-10.31,27.71,26.14,-7.64,-0.610187,0.017823,0.105716,-0.784936,0.0,0.0,0.0,0,0
2026-06-16 16:13:39.306,2432445,R_Shank,-0.0483,-2.6168,0.5569,0.0,-3.13,-8.32,0.0,0.0,0.0,0.69454,-0.020631,0.019684,-0.718833,0.0,0.0,0.0,0,0
2026-06-16 16:13:39.308,2432586,L_Ankle,0.0874,-0.2104,0.9712,5.39,-0.82,-10.29,0.0,0.0,0.0,-0.610187,0.017762,0.105808,-0.784936,0.0,0.0,0.0,0,0
2026-06-16 16:13:39.309,2432465,R_Shank,-0.042,-0.8232,0.5776,0.4,-3.22,-8.09,-5.81,-24.29,-13.13,0.694693,-0.021332,0.018799,-0.718711,0.0,0.0,0.0,0,0
2026-06-16 16:13:39.311,2432567,L_Ankle,0.0776,-0.2118,0.9678,5.42,-0.81,-10.3,27.72,25.43,-7.98,-0.610187,0.01767,0.10593,-0.784906,0.0,0.0,0.0,0,0
2026-06-16 16:13:39.312,2432485,R_Shank,0.0193,-2.6236,0.6559,1.1,-3.03,-7.56,-4.27,-25.15,-13.31,0.69512,-0.021577,0.017487,-0.718345,0.0,0.0,0.0,0,0
2026-06-16 16:13:39.313,2432587,L_Ankle,0.0786,-0.2157,0.975,5.42,-0.78,-10.29,28.03,27.55,-7.97,-0.610187,0.017548,0.106052,-0.784906,0.0,0.0,0.0,0,0
2026-06-16 16:13:39.316,2432576,L_Hip,-0.2551,0.8602,0.4381,-4.29,4.41,2.6,19.65,2.3,-35.2,0.842067,0.471816,0.210181,0.155187,0.0,0.0,0.0,0,0
2026-06-16 16:13:39.318,2432596,L_Hip,-0.2551,0.8675,0.4143,-4.28,4.39,2.61,19.8,2.14,-34.47,0.842006,0.471908,0.210181,0.155339,0.0,0.0,0.0,0,0
2026-06-16 16:13:39.320,2432616,L_Hip,-0.26,0.8651,0.4264,-4.26,4.39,2.64,19.28,1.97,-33.74,0.841914,0.471969,0.210181,0.155553,0.0,0.0,0.0,0,0
2026-06-16 16:13:39.321,2432636,L_Hip,-0.2507,0.8587,0.4255,-4.24,4.35,2.65,0.0,0.0,0.0,0.841853,0.471999,0.210211,0.155797,0.0,0.0,0.0,0,0
2026-06-16 16:13:39.330,2432461,R_Ankle,-0.0378,-0.1568,1.0948,-1.21,-1.02,-3.06,-17.6,-24.08,-20.51,0.980987,0.000153,-0.092532,0.170537,0.0,0.0,0.0,0,0
2026-06-16 16:13:39.333,2432481,R_Ankle,-0.0373,-0.1459,1.0388,-1.25,-0.9,-3.1,-15.72,-24.87,-19.71,0.981353,-0.001068,-0.091861,0.168798,0.0,0.0,0.0,0,0
2026-06-16 16:13:39.338,2432501,R_Ankle,-0.0545,-0.1399,1.0096,-1.19,-0.79,-3.03,0.0,0.0,0.0,0.981719,-0.002564,-0.09125,0.166906,0.0,0.0,0.0,0,0
2026-06-16 16:13:39.338,2432599,L_Hip,-0.2576,0.8587,0.4148,-4.23,4.32,2.72,18.63,1.96,-35.47,0.841762,0.47206,0.210181,0.156072,0.0,0.0,0.0,0,0
2026-06-16 16:13:39.341,2432521,R_Ankle,-0.0069,-0.1479,0.9052,-1.09,-0.64,-2.8,-16.89,-23.46,-18.66,0.982086,-0.003967,-0.090518,0.165105,0.0,0.0,0.0,0,0
2026-06-16 16:13:39.342,2432619,L_Hip,-0.2527,0.8543,0.4356,-4.2,4.32,2.77,19.48,1.82,-35.92,0.84167,0.472121,0.210181,0.156346,0.0,0.0,0.0,0,0
2026-06-16 16:13:39.345,2432639,L_Hip,-0.2532,0.8587,0.426,-4.19,4.32,2.8,19.82,2.14,-35.63,0.841609,0.472152,0.21015,0.156621,0.0,0.0,0.0,0,0
2026-06-16 16:13:39.345,2432462,R_Hip,-0.0934,-1.0729,-0.0158,2.6,-3.89,-0.22,-13.39,3.13,-32.74,0.163396,-0.080782,0.662496,-0.726524,0.0,0.0,0.0,0,0
2026-06-16 16:13:39.348,2432659,L_Hip,-0.2532,0.8582,0.4231,-4.19,4.32,2.82,19.96,2.3,-33.75,0.841517,0.472213,0.210211,0.156835,0.0,0.0,0.0,0,0
2026-06-16 16:13:39.349,2432482,R_Hip,-0.0771,-1.1998,0.0091,2.54,-4.06,0.02,-14.3,1.49,-32.23,0.163366,-0.082675,0.661,-0.727653,0.0,0.0,0.0,0,0
2026-06-16 16:13:39.352,2432502,R_Hip,-0.0667,-1.2515,0.0389,2.44,-4.18,0.32,0.0,0.0,0.0,0.16364,-0.084689,0.659505,-0.728721,0.0,0.0,0.0,0,0
2026-06-16 16:13:39.352,2432612,L_Shank,-0.0514,-0.1726,0.9671,1.75,-0.99,-0.38,24.18,27.22,-11.3,0.777917,-0.061129,-0.048799,0.623432,0.0,0.0,0.0,0,0
2026-06-16 16:13:39.355,2432632,L_Shank,-0.0548,-0.1687,0.9647,1.76,-0.98,-0.38,24.35,26.7,-10.52,0.777917,-0.061098,-0.04883,0.623432,0.0,0.0,0.0,0,0
2026-06-16 16:13:39.355,2432522,R_Hip,-0.0603,-1.3375,0.0562,2.07,-4.07,1.02,-14.12,4.59,-32.4,0.16419,-0.086489,0.658162,-0.729606,0.0,0.0,0.0,0,0
2026-06-16 16:13:39.358,2432652,L_Shank,-0.0538,-0.1662,0.9566,1.75,-0.97,-0.37,24.51,27.2,-9.75,0.777947,-0.061098,-0.04886,0.623402,0.0,0.0,0.0,0,0
2026-06-16 16:13:39.359,2432482,R_Ankle,0.0895,-0.0324,0.7495,-0.58,-1.02,-1.3,-17.41,-24.25,-19.12,0.982421,-0.00528,-0.089908,0.163488,0.0,0.0,0.0,0,0
2026-06-16 16:13:39.362,2432672,L_Shank,-0.0568,-0.1648,0.9705,1.75,-0.97,-0.36,0.0,0.0,0.0,0.777978,-0.061098,-0.04886,0.623371,0.0,0.0,0.0,0,0
2026-06-16 16:13:39.363,2432502,R_Ankle,0.1101,-0.0106,0.7169,-0.4,-1.2,-0.6,-15.87,-23.44,-19.27,0.982635,-0.006317,-0.089541,0.162267,0.0,0.0,0.0,0,0
2026-06-16 16:13:39.365,2432621,L_Hip,-0.2546,0.8567,0.4298,-4.1,4.35,2.93,20.98,1.04,-35.79,0.841456,0.472274,0.210242,0.157048,0.0,0.0,0.0,0,0
2026-06-16 16:13:39.366,2432522,R_Ankle,0.1321,0.0398,0.6882,-0.25,-1.35,0.03,0.0,0.0,0.0,0.982696,-0.006958,-0.089572,0.16184,0.0,0.0,0.0,0,0
2026-06-16 16:13:39.368,2432641,L_Hip,-0.2576,0.8626,0.4269,-4.07,4.41,2.97,0.0,0.0,0.0,0.841395,0.472335,0.210242,0.157262,0.0,0.0,0.0,0,0
2026-06-16 16:13:39.369,2432542,R_Ankle,0.1723,0.0948,0.6427,0.06,-1.58,0.99,-15.71,-24.24,-19.1,0.982604,-0.007111,-0.089908,0.162267,0.0,0.0,0.0,0,0
2026-06-16 16:13:39.371,2432661,L_Hip,-0.2463,0.8641,0.4269,-4.06,4.44,2.99,20.17,2.8,-35.64,0.841304,0.472365,0.210273,0.157414,0.0,0.0,0.0,0,0
2026-06-16 16:13:39.374,2432681,L_Hip,-0.2551,0.8636,0.4337,-4.06,4.5,3.02,20.0,1.99,-36.65,0.841273,0.472427,0.210303,0.157537,0.0,0.0,0.0,0,0
2026-06-16 16:13:39.377,2432636,L_Shank,-0.0695,-0.1824,0.9676,1.76,-1.07,-0.34,23.66,27.39,-11.45,0.778253,-0.061159,-0.048463,0.623066,0.0,0.0,0.0,0,0
2026-06-16 16:13:39.380,2432656,L_Shank,-0.0743,-0.1824,0.9676,1.77,-1.09,-0.32,23.83,27.55,-10.99,0.778314,-0.061251,-0.048341,0.622974,0.0,0.0,0.0,0,0
2026-06-16 16:13:39.382,2432676,L_Shank,-0.0773,-0.1775,0.9662,1.78,-1.11,-0.32,25.06,28.07,-11.79,0.778405,-0.061312,-0.04825,0.622883,0.0,0.0,0.0,0,0
2026-06-16 16:13:39.385,2432696,L_Shank,-0.0729,-0.1736,0.957,1.78,-1.12,-0.25,24.35,26.7,-10.83,0.778497,-0.061373,-0.048097,0.622761,0.0,0.0,0.0,0,0
2026-06-16 16:13:39.387,2432644,L_Hip,-0.2458,0.8636,0.4395,-4.03,4.61,3.06,18.5,3.73,-35.33,0.841212,0.472427,0.210334,0.157628,0.0,0.0,0.0,0,0
2026-06-16 16:13:39.390,2432664,L_Hip,-0.2473,0.868,0.4105,-4.03,4.69,3.05,0.0,0.0,0.0,0.841212,0.472457,0.210303,0.15775,0.0,0.0,0.0,0,0
2026-06-16 16:13:39.392,2432684,L_Hip,-0.2478,0.8671,0.4332,-4.03,4.73,3.06,19.63,1.66,-35.19,0.841182,0.472488,0.210273,0.157811,0.0,0.0,0.0,0,0
2026-06-16 16:13:39.394,2432704,L_Hip,-0.2502,0.8617,0.4327,-4.03,4.78,3.06,18.99,2.61,-35.77,0.841182,0.472488,0.210181,0.157872,0.0,0.0,0.0,0,0
2026-06-16 16:13:39.396,2432527,R_Ankle,0.2134,0.1939,0.5957,0.63,-2.05,1.73,-17.57,-22.5,-19.3,0.98236,-0.006836,-0.090548,0.163274,0.0,0.0,0.0,0,0
2026-06-16 16:13:39.399,2432547,R_Ankle,0.2076,0.1929,0.5986,0.83,-2.08,1.7,-17.6,-24.39,-20.82,0.982086,-0.006104,-0.091372,0.164617,0.0,0.0,0.0,0,0
2026-06-16 16:13:39.401,2432567,R_Ankle,0.1943,0.1954,0.6077,1.03,-2.15,1.54,0.0,0.0,0.0,0.98175,-0.004975,-0.092349,0.16599,0.0,0.0,0.0,0,0
2026-06-16 16:13:39.405,2432666,L_Hip,-0.2487,0.8675,0.4206,-4.04,4.83,3.09,19.6,0.68,-34.32,0.841212,0.472457,0.21012,0.157933,0.0,0.0,0.0,0,0
2026-06-16 16:13:39.406,2432587,R_Ankle,0.1497,0.1364,0.6527,1.56,-2.33,0.96,-17.58,-23.77,-19.59,0.981475,-0.00351,-0.093326,0.16718,0.0,0.0,0.0,0,0
2026-06-16 16:13:39.409,2432667,L_Hip,-0.2507,0.8617,0.4168,-4.04,4.84,3.09,0.0,0.0,0.0,0.841212,0.472488,0.210059,0.157933,0.0,0.0,0.0,0,0
2026-06-16 16:13:39.411,2432687,L_Hip,-0.2507,0.868,0.4061,-4.03,4.86,3.07,19.28,0.68,-35.48,0.841243,0.472488,0.209967,0.157933,0.0,0.0,0.0,0,0
2026-06-16 16:13:39.413,2432707,L_Hip,-0.2487,0.8715,0.4114,-4.08,4.8,3.09,18.81,2.13,-35.91,0.841273,0.472457,0.209967,0.157872,0.0,0.0,0.0,0,0
2026-06-16 16:13:39.419,2432550,R_Ankle,0.0709,-0.0052,0.8357,2.28,-2.38,-0.17,-17.42,-24.88,-19.42,0.981262,-0.001801,-0.094211,0.168035,0.0,0.0,0.0,0,0
2026-06-16 16:13:39.421,2432570,R_Ankle,0.0542,-0.073,0.8946,2.38,-2.31,-0.51,-16.89,-24.1,-18.35,0.981079,-3.1e-05,-0.094913,0.168615,0.0,0.0,0.0,0,0
2026-06-16 16:13:39.423,2432590,R_Ankle,0.0081,-0.131,0.9598,2.4,-2.21,-0.77,0.0,0.0,0.0,0.981017,0.001587,-0.09537,0.168767,0.0,0.0,0.0,0,0
2026-06-16 16:13:39.426,2432687,L_Shank,-0.0675,-0.1736,0.9556,1.8,-1.19,-0.21,23.82,26.86,-10.05,0.778558,-0.061464,-0.047975,0.622669,0.0,0.0,0.0,0,0
2026-06-16 16:13:39.427,2432610,R_Ankle,-0.0207,-0.2336,1.0532,2.41,-2.06,-0.74,-17.93,-23.45,-20.21,0.981017,0.002838,-0.095492,0.168645,0.0,0.0,0.0,0,0
2026-06-16 16:13:39.430,2432707,L_Shank,-0.0753,-0.1863,0.9556,1.8,-1.22,-0.2,0.0,0.0,0.0,0.778649,-0.061586,-0.047884,0.622547,0.0,0.0,0.0,0,0
2026-06-16 16:13:39.432,2432727,L_Shank,-0.0714,-0.1799,0.9815,1.8,-1.22,-0.18,25.05,27.38,-10.53,0.77871,-0.061678,-0.047761,0.622456,0.0,0.0,0.0,0,0
2026-06-16 16:13:39.434,2432747,L_Shank,-0.067,-0.1702,0.9594,1.8,-1.28,-0.11,24.35,26.7,-10.83,0.778771,-0.0618,-0.047639,0.622394,0.0,0.0,0.0,0,0
2026-06-16 16:13:39.440,2432702,L_Ankle,0.0766,-0.2172,0.9486,5.4,-0.63,-10.24,28.19,27.36,-9.16,-0.610126,0.016968,0.106632,-0.784875,0.0,0.0,0.0,0,0
2026-06-16 16:13:39.442,2432572,R_Ankle,-0.1079,-0.2935,1.2754,2.28,-1.65,0.46,-17.76,-23.61,-20.06,0.981017,0.003601,-0.095401,0.168706,0.0,0.0,0.0,0,0
2026-06-16 16:13:39.443,2432722,L_Ankle,0.0791,-0.2109,0.9645,5.4,-0.63,-10.22,0.0,0.0,0.0,-0.610126,0.016907,0.106693,-0.784875,0.0,0.0,0.0,0,0
2026-06-16 16:13:39.446,2432742,L_Ankle,0.0751,-0.2231,0.9669,5.38,-0.62,-10.22,27.66,27.55,-9.34,-0.610126,0.016816,0.106815,-0.784875,0.0,0.0,0.0,0,0
2026-06-16 16:13:39.447,2432592,R_Ankle,-0.1157,-0.2999,1.3157,2.18,-1.56,0.8,-17.05,-22.66,-18.83,0.980987,0.00412,-0.094943,0.169164,0.0,0.0,0.0,0,0
2026-06-16 16:13:39.449,2432762,L_Ankle,0.081,-0.2153,0.963,5.38,-0.6,-10.24,27.71,26.14,-7.98,-0.610126,0.016755,0.106906,-0.784845,0.0,0.0,0.0,0,0
2026-06-16 16:13:39.450,2432612,R_Ankle,-0.0991,-0.2935,1.3228,2.07,-1.49,1.12,-18.6,-23.47,-18.99,0.980895,0.004273,-0.094119,0.17011,0.0,0.0,0.0,0,0
2026-06-16 16:13:39.453,2432632,R_Ankle,-0.0873,-0.3004,1.3123,1.87,-1.35,1.51,0.0,0.0,0.0,0.980743,0.004212,-0.093142,0.171453,0.0,0.0,0.0,0,0
2026-06-16 16:13:39.457,2432582,R_Shank,0.0517,1.2364,0.7659,1.95,-2.69,-7.68,-4.95,-25.14,-13.3,0.695639,-0.021546,0.015839,-0.717887,0.0,0.0,0.0,0,0
2026-06-16 16:13:39.459,2432602,R_Shank,0.0316,0.336,0.8884,2.22,-2.39,-7.94,0.0,0.0,0.0,0.696005,-0.021271,0.014039,-0.717551,0.0,0.0,0.0,0,0
2026-06-16 16:13:39.462,2432622,R_Shank,0.0178,0.4656,0.9595,2.24,-2.22,-7.96,-6.13,-24.95,-13.14,0.69628,-0.020692,0.012299,-0.717338,0.0,0.0,0.0,0,0
2026-06-16 16:13:39.465,2432642,R_Shank,0.0208,-1.1984,1.1123,2.22,-2.05,-7.8,-6.28,-25.45,-13.89,0.696585,-0.019959,0.010712,-0.717063,0.0,0.0,0.0,0,0
2026-06-16 16:13:39.468,2432588,R_Hip,-0.1032,-1.3765,0.0871,0.9,-2.93,2.45,-14.66,2.58,-31.89,0.164922,-0.087802,0.657125,-0.730216,0.0,0.0,0.0,0,0
2026-06-16 16:13:39.471,2432608,R_Hip,-0.1205,-1.3404,0.0837,0.6,-2.55,2.82,-13.2,2.95,-30.86,0.165716,-0.088504,0.656484,-0.730522,0.0,0.0,0.0,0,0
2026-06-16 16:13:39.473,2432735,L_Hip,-0.2478,0.8646,0.4269,-4.09,4.39,3.12,18.78,1.8,-34.45,0.841365,0.472488,0.209876,0.157262,0.0,0.0,0.0,0,0
2026-06-16 16:13:39.474,2432628,R_Hip,-0.1506,-1.2921,0.0794,0.39,-2.19,3.18,-15.39,1.85,-31.54,0.16657,-0.088473,0.65627,-0.730552,0.0,0.0,0.0,0,0
2026-06-16 16:13:39.476,2432755,L_Hip,-0.2438,0.8636,0.4361,-4.1,4.35,3.14,0.0,0.0,0.0,0.841426,0.472457,0.209845,0.157109,0.0,0.0,0.0,0,0
2026-06-16 16:13:39.477,2432648,R_Hip,-0.1797,-1.1778,0.0625,0.13,-1.64,3.76,0.0,0.0,0.0,0.167608,-0.08771,0.656301,-0.730369,0.0,0.0,0.0,0,0
2026-06-16 16:13:39.479,2432775,L_Hip,-0.2429,0.871,0.4168,-4.09,4.33,3.16,21.15,1.52,-35.07,0.841517,0.472396,0.209845,0.156926,0.0,0.0,0.0,0,0
2026-06-16 16:13:39.480,2432595,R_Ankle,0.1022,0.0562,0.7275,1.07,-1.41,-1.38,-18.95,-23.78,-19.91,0.979492,0.003967,-0.089114,0.180486,0.0,0.0,0.0,0,0
2026-06-16 16:13:39.482,2432795,L_Hip,-0.238,0.868,0.4235,-4.09,4.32,3.14,20.33,3.28,-34.63,0.841609,0.472274,0.209876,0.156713,0.0,0.0,0.0,0,0
2026-06-16 16:13:39.483,2432615,R_Ankle,0.1194,-0.02,0.727,1.02,-1.45,-1.24,-17.6,-25.36,-19.88,0.979614,0.004975,-0.089022,0.179846,0.0,0.0,0.0,0,0
2026-06-16 16:13:39.485,2432736,L_Shank,-0.0665,-0.1716,0.9638,1.82,-1.3,-0.03,24.18,26.2,-11.29,0.778832,-0.061922,-0.047517,0.622303,0.0,0.0,0.0,0,0
2026-06-16 16:13:39.486,2432635,R_Ankle,0.1306,-0.0344,0.749,0.98,-1.54,-0.99,-16.22,-23.76,-19.27,0.979705,0.005799,-0.089145,0.179266,0.0,0.0,0.0,0,0
2026-06-16 16:13:39.487,2432756,L_Shank,-0.0675,-0.1609,0.9657,1.82,-1.3,-0.03,0.0,0.0,0.0,0.778893,-0.062014,-0.047426,0.622242,0.0,0.0,0.0,0,0
2026-06-16 16:13:39.489,2432655,R_Ankle,0.1404,-0.0532,0.773,1.04,-1.61,-0.54,0.0,0.0,0.0,0.979736,0.006287,-0.08948,0.178991,0.0,0.0,0.0,0,0
2026-06-16 16:13:39.491,2432776,L_Shank,-0.0582,-0.1628,0.9762,1.83,-1.32,0.0,24.16,28.21,-9.45,0.778954,-0.062136,-0.047304,0.622181,0.0,0.0,0.0,0,0
2026-06-16 16:13:39.492,2432612,R_Hip,-0.1743,-1.0138,0.0317,-0.09,-1.19,4.06,-14.48,3.13,-31.03,0.168706,-0.08652,0.656514,-0.730064,0.0,0.0,0.0,0,0
2026-06-16 16:13:39.495,2432796,L_Shank,-0.0572,-0.1682,0.9719,1.83,-1.32,0.0,25.05,28.06,-10.54,0.779015,-0.062227,-0.047243,0.622089,0.0,0.0,0.0,0,0
2026-06-16 16:13:39.496,2432632,R_Hip,-0.1659,-0.9435,0.0303,-0.09,-1.18,3.87,-14.11,3.49,-31.03,0.169774,-0.085208,0.65685,-0.729667,0.0,0.0,0.0,0,0
2026-06-16 16:13:39.498,2432746,L_Ankle,0.0835,-0.2148,0.9597,5.38,-0.64,-10.25,28.22,26.66,-8.14,-0.610157,0.016572,0.107303,-0.784783,0.0,0.0,0.0,0,0
2026-06-16 16:13:39.498,2432652,R_Hip,-0.1452,-0.901,0.0158,-0.06,-1.16,3.67,0.0,0.0,0.0,0.17066,-0.084048,0.657155,-0.729331,0.0,0.0,0.0,0,0
2026-06-16 16:13:39.501,2432766,L_Ankle,0.0737,-0.2133,0.9774,5.38,-0.66,-10.25,0.0,0.0,0.0,-0.610157,0.016572,0.107303,-0.784783,0.0,0.0,0.0,0,0
2026-06-16 16:13:39.501,2432672,R_Hip,-0.1407,-0.8341,-0.0009,0.09,-1.11,3.29,-15.03,2.95,-32.91,0.17127,-0.083071,0.657369,-0.729087,0.0,0.0,0.0,0,0
2026-06-16 16:13:39.503,2432747,L_Ankle,0.0722,-0.2118,0.9702,5.39,-0.66,-10.25,27.69,26.49,-8.66,-0.610157,0.016602,0.107273,-0.784783,0.0,0.0,0.0,0,0
2026-06-16 16:13:39.504,2432627,R_Shank,0.0227,0.8612,1.3256,1.77,-1.62,-7.12,-6.62,-25.77,-13.29,0.697104,-0.019257,0.0094,-0.716605,0.0,0.0,0.0,0,0
2026-06-16 16:13:39.506,2432767,L_Ankle,0.0663,-0.2123,0.9587,5.41,-0.68,-10.25,27.65,27.55,-9.68,-0.610157,0.016633,0.107212,-0.784783,0.0,0.0,0.0,0,0
2026-06-16 16:13:39.506,2432647,R_Shank,0.0237,-2.3508,1.4207,1.31,-1.16,-6.77,0.0,0.0,0.0,0.697836,-0.018555,0.008515,-0.715934,0.0,0.0,0.0,0,0
2026-06-16 16:13:39.509,2432667,R_Shank,0.0262,-2.992,1.4375,1.09,-0.95,-6.66,-5.95,-25.45,-13.59,0.698691,-0.017884,0.008057,-0.71511,0.0,0.0,0.0,0,0
2026-06-16 16:13:39.510,2432756,L_Hip,-0.2389,0.8823,0.4376,-4.09,4.37,3.18,19.33,3.26,-35.19,0.8417,0.472152,0.209937,0.156499,0.0,0.0,0.0,0,0
2026-06-16 16:13:39.512,2432687,R_Shank,-0.0056,1.502,1.4082,0.77,-0.56,-6.58,-5.96,-25.45,-12.69,0.699637,-0.017151,0.008026,-0.714225,0.0,0.0,0.0,0,0
2026-06-16 16:13:39.513,2432757,L_Hip,-0.2404,0.8759,0.4313,-4.09,4.42,3.19,18.66,2.93,-36.05,0.841792,0.47203,0.209998,0.156255,0.0,0.0,0.0,0,0
2026-06-16 16:13:39.514,2432638,R_Hip,-0.1338,-0.7258,-0.0144,0.72,-0.98,2.45,-14.66,2.59,-33.26,0.171606,-0.082247,0.657491,-0.728996,0.0,0.0,0.0,0,0
2026-06-16 16:13:39.515,2432777,L_Hip,-0.2424,0.8725,0.4303,-4.09,4.45,3.19,0.0,0.0,0.0,0.841945,0.471847,0.210028,0.156011,0.0,0.0,0.0,0,0
2026-06-16 16:13:39.517,2432658,R_Hip,-0.1461,-0.7004,-0.0404,0.96,-1.0,2.19,-13.75,2.77,-33.08,0.171758,-0.081515,0.65743,-0.729087,0.0,0.0,0.0,0,0
2026-06-16 16:13:39.518,2432797,L_Hip,-0.2399,0.8759,0.4255,-4.07,4.48,3.19,18.98,2.61,-35.48,0.842036,0.471694,0.210059,0.155797,0.0,0.0,0.0,0,0
2026-06-16 16:13:39.520,2432678,R_Hip,-0.1447,-0.7043,-0.0158,1.22,-1.04,1.93,-15.02,3.31,-30.18,0.171728,-0.080966,0.657125,-0.729423,0.0,0.0,0.0,0,0
2026-06-16 16:13:39.521,2432761,L_Shank,-0.0475,-0.1521,0.9594,1.81,-1.32,0.0,24.7,28.06,-10.85,0.779077,-0.062349,-0.047151,0.622028,0.0,0.0,0.0,0,0
2026-06-16 16:13:39.522,2432698,R_Hip,-0.1491,-0.7087,-0.0505,1.73,-1.19,1.32,0.0,0.0,0.0,0.171484,-0.08066,0.656514,-0.730064,0.0,0.0,0.0,0,0
2026-06-16 16:13:39.522,2432781,L_Shank,-0.0514,-0.1496,0.9628,1.8,-1.32,0.0,0.0,0.0,0.0,0.779107,-0.062441,-0.04706,0.621967,0.0,0.0,0.0,0,0
2026-06-16 16:13:39.525,2432801,L_Shank,-0.0558,-0.1579,0.9556,1.8,-1.32,-0.03,23.66,27.05,-11.14,0.779138,-0.062532,-0.046968,0.621937,0.0,0.0,0.0,0,0
2026-06-16 16:13:39.527,2432821,L_Shank,-0.0582,-0.1545,0.983,1.79,-1.32,-0.07,25.4,27.73,-11.16,0.779138,-0.062563,-0.046907,0.621937,0.0,0.0,0.0,0,0
2026-06-16 16:13:39.529,2432779,L_Hip,-0.235,0.8705,0.4313,-4.06,4.57,3.16,17.77,1.78,-34.73,0.842158,0.471572,0.21012,0.155553,0.0,0.0,0.0,0,0
2026-06-16 16:13:39.530,2432799,L_Hip,-0.2335,0.8754,0.4134,-4.07,4.64,3.14,19.48,2.78,-35.05,0.84225,0.47148,0.21012,0.155309,0.0,0.0,0.0,0,0
2026-06-16 16:13:39.532,2432819,L_Hip,-0.233,0.8779,0.4051,-4.08,4.68,3.09,18.8,2.77,-34.75,0.842341,0.471389,0.21012,0.155095,0.0,0.0,0.0,0,0
2026-06-16 16:13:39.534,2432839,L_Hip,-0.233,0.8769,0.4177,-4.07,4.7,3.09,19.3,2.61,-34.32,0.842433,0.471297,0.210089,0.154912,0.0,0.0,0.0,0,0
2026-06-16 16:13:39.536,2432791,L_Ankle,0.0658,-0.2157,0.9467,5.47,-0.87,-10.32,26.99,27.57,-7.65,-0.610126,0.016999,0.106906,-0.784845,0.0,0.0,0.0,0,0
2026-06-16 16:13:39.538,2432811,L_Ankle,0.0693,-0.2123,0.9592,5.48,-0.9,-10.33,27.67,27.55,-9.0,-0.610096,0.017121,0.106845,-0.784875,0.0,0.0,0.0,0,0
2026-06-16 16:13:39.540,2432831,L_Ankle,0.0678,-0.2177,0.9822,5.48,-0.93,-10.33,0.0,0.0,0.0,-0.610065,0.017273,0.106754,-0.784906,0.0,0.0,0.0,0,0
2026-06-16 16:13:39.542,2432851,L_Ankle,0.0702,-0.2201,0.9741,5.5,-0.96,-10.33,28.23,26.3,-8.14,-0.610065,0.017396,0.106693,-0.784906,0.0,0.0,0.0,0,0
2026-06-16 16:13:39.543,2432801,L_Hip,-0.2326,0.8656,0.4158,-4.13,4.69,3.05,19.84,2.47,-36.51,0.842524,0.471236,0.210028,0.154729,0.0,0.0,0.0,0,0
2026-06-16 16:13:39.545,2432821,L_Hip,-0.233,0.869,0.4177,-4.16,4.7,3.01,0.0,0.0,0.0,0.842586,0.471206,0.209967,0.154607,0.0,0.0,0.0,0,0
2026-06-16 16:13:39.547,2432841,L_Hip,-0.2433,0.869,0.4216,-4.16,4.7,3.0,18.13,2.75,-34.74,0.842616,0.471175,0.209906,0.154546,0.0,0.0,0.0,0,0
2026-06-16 16:13:39.548,2432861,L_Hip,-0.237,0.8734,0.4066,-4.15,4.69,3.0,19.49,2.78,-35.34,0.842616,0.471175,0.209906,0.154485,0.0,0.0,0.0,0,0
2026-06-16 16:13:39.554,2432686,R_Ankle,0.0498,-0.1087,0.9344,1.43,-1.74,-0.61,-17.59,-25.37,-18.96,0.979705,0.006806,-0.089908,0.178961,0.0,0.0,0.0,0,0
2026-06-16 16:13:39.557,2432706,R_Ankle,-0.7121,-0.401,1.7228,1.28,-1.26,-0.93,-17.08,-24.56,-19.42,0.979675,0.007355,-0.090304,0.17893,0.0,0.0,0.0,0,0
2026-06-16 16:13:39.559,2432726,R_Ankle,-0.4911,-0.5536,1.9359,0.61,0.69,-0.93,-17.93,-23.12,-20.83,0.979766,0.007202,-0.089419,0.178808,0.0,0.0,0.0,0,0
2026-06-16 16:13:39.561,2432746,R_Ankle,-0.0746,-0.5249,1.3736,1.96,0.41,-0.97,0.0,0.0,0.0,0.980193,0.00531,-0.085055,0.178716,0.0,0.0,0.0,0,0
2026-06-16 16:13:39.565,2432695,R_Shank,-0.038,-2.876,1.2799,0.41,-0.43,-6.56,-6.45,-25.61,-13.74,0.700552,-0.016358,0.00824,-0.71334,0.0,0.0,0.0,0,0
2026-06-16 16:13:39.569,2432715,R_Shank,-0.0297,3.03,1.1752,0.09,-0.6,-6.73,-5.98,-24.78,-12.08,0.701468,-0.015534,0.008606,-0.712424,0.0,0.0,0.0,0,0
2026-06-16 16:13:39.572,2432735,R_Shank,-0.0444,-2.7528,1.1243,-0.03,-0.69,-6.93,-6.79,-25.28,-14.03,0.702261,-0.014985,0.008972,-0.711661,0.0,0.0,0.0,0,0
2026-06-16 16:13:39.575,2432755,R_Shank,-0.0439,0.8408,1.0383,-0.24,-0.9,-7.51,0.0,0.0,0.0,0.702811,-0.014588,0.009308,-0.711142,0.0,0.0,0.0,0,0
2026-06-16 16:13:39.576,2432707,R_Ankle,0.4673,-0.4694,1.0929,2.0,-2.09,1.84,-18.28,-25.04,-20.2,0.980346,0.004181,-0.08298,0.178777,0.0,0.0,0.0,0,0
2026-06-16 16:13:39.578,2432727,R_Ankle,0.1385,-0.6472,1.1044,1.64,-1.57,1.9,-16.22,-23.44,-19.89,0.980071,0.00354,-0.083926,0.179846,0.0,0.0,0.0,0,0
2026-06-16 16:13:39.581,2432747,R_Ankle,0.1174,-0.4892,1.2285,1.23,-1.57,2.15,-17.76,-24.57,-19.12,0.979614,0.003082,-0.085665,0.181585,0.0,0.0,0.0,0,0
2026-06-16 16:13:39.582,2432767,R_Ankle,-0.1045,-0.1805,1.2333,1.54,-1.29,2.83,0.0,0.0,0.0,0.979186,0.001617,-0.086062,0.183691,0.0,0.0,0.0,0,0
2026-06-16 16:13:39.584,2432712,R_Hip,-0.1609,-0.7565,-0.0341,2.52,-1.9,0.23,-13.38,1.3,-31.37,0.171087,-0.080691,0.655629,-0.730949,0.0,0.0,0.0,0,0
2026-06-16 16:13:39.586,2432732,R_Hip,-0.1609,-0.8263,-0.0192,2.64,-2.08,0.07,-13.75,3.13,-30.35,0.170598,-0.081149,0.65453,-0.732017,0.0,0.0,0.0,0,0
2026-06-16 16:13:39.588,2432752,R_Hip,-0.1649,-0.8761,-0.0216,2.71,-2.22,0.0,0.0,0.0,0.0,0.170171,-0.081881,0.653188,-0.733238,0.0,0.0,0.0,0,0
2026-06-16 16:13:39.590,2432772,R_Hip,-0.1999,-1.0743,-0.0471,2.79,-2.42,0.2,-13.93,3.31,-31.55,0.169836,-0.082675,0.651845,-0.734428,0.0,0.0,0.0,0,0
2026-06-16 16:13:39.592,2432717,R_Shank,-0.0336,-2.6368,0.9124,-0.33,-1.06,-8.46,-6.8,-24.94,-13.73,0.702994,-0.014313,0.009583,-0.710929,0.0,0.0,0.0,0,0
2026-06-16 16:13:39.594,2432737,R_Shank,-0.0336,1.9868,0.8726,-0.2,-0.94,-9.01,-6.8,-24.94,-13.43,0.702933,-0.014039,0.009796,-0.71102,0.0,0.0,0.0,0,0
2026-06-16 16:13:39.595,2432757,R_Shank,-0.0464,-2.2548,0.7957,-0.09,-0.88,-9.29,0.0,0.0,0.0,0.702567,-0.01355,0.009949,-0.711386,0.0,0.0,0.0,0,0
2026-06-16 16:13:39.598,2432777,R_Shank,-0.068,1.728,0.7304,0.31,-1.09,-9.84,-5.47,-24.63,-12.84,0.701926,-0.012909,0.009919,-0.712027,0.0,0.0,0.0,0,0
2026-06-16 16:13:39.607,2432738,R_Hip,-0.1294,-1.6338,0.0794,1.33,-4.33,0.3,-15.57,4.59,-31.38,0.169836,-0.08359,0.650716,-0.735313,0.0,0.0,0.0,0,0
2026-06-16 16:13:39.608,2432758,R_Hip,-0.087,-1.7104,0.1982,0.17,-4.73,0.53,-14.66,2.95,-33.26,0.170202,-0.085269,0.649953,-0.73571,0.0,0.0,0.0,0,0
2026-06-16 16:13:39.611,2432778,R_Hip,-0.1057,-1.7236,0.268,-1.02,-4.37,1.09,-15.39,4.04,-30.87,0.170782,-0.087588,0.649831,-0.735405,0.0,0.0,0.0,0,0
2026-06-16 16:13:39.612,2432798,R_Hip,-0.2788,-1.4449,0.2521,-2.27,-1.82,2.44,0.0,0.0,0.0,0.171178,-0.08829,0.650502,-0.734672,0.0,0.0,0.0,0,0
2026-06-16 16:13:39.619,2432881,L_Ankle,0.0624,-0.2104,0.9674,5.52,-0.99,-10.32,27.71,25.78,-7.98,-0.610034,0.017548,0.106571,-0.784936,0.0,0.0,0.0,0,0
2026-06-16 16:13:39.621,2432901,L_Ankle,0.0702,-0.2177,0.9621,5.5,-1.0,-10.31,28.08,24.71,-7.98,-0.610034,0.01767,0.106479,-0.784967,0.0,0.0,0.0,0,0
2026-06-16 16:13:39.622,2432921,L_Ankle,0.0771,-0.2162,0.9654,5.49,-1.01,-10.3,0.0,0.0,0.0,-0.610004,0.017792,0.106388,-0.784997,0.0,0.0,0.0,0,0
2026-06-16 16:13:39.624,2432941,L_Ankle,0.0742,-0.2138,0.9678,5.48,-1.01,-10.31,28.53,27.71,-9.15,-0.610004,0.017884,0.106296,-0.784997,0.0,0.0,0.0,0,0
2026-06-16 16:13:39.626,2432886,L_Shank,-0.0519,-0.1746,0.9681,1.71,-1.32,-0.23,24.36,27.06,-11.77,0.778924,-0.062624,-0.046815,0.622181,0.0,0.0,0.0,0,0
2026-06-16 16:13:39.628,2432906,L_Shank,-0.0582,-0.1775,0.9662,1.74,-1.31,-0.24,0.0,0.0,0.0,0.778832,-0.062563,-0.046785,0.622303,0.0,0.0,0.0,0,0
2026-06-16 16:13:39.630,2432926,L_Shank,-0.0597,-0.1702,0.9738,1.73,-1.33,-0.24,24.17,25.85,-10.66,0.778741,-0.062471,-0.046815,0.622425,0.0,0.0,0.0,0,0
2026-06-16 16:13:39.631,2432946,L_Shank,-0.0499,-0.1741,0.9772,1.73,-1.32,-0.22,25.23,26.88,-11.62,0.778649,-0.06238,-0.046815,0.622578,0.0,0.0,0.0,0,0
2026-06-16 16:13:39.633,2432892,L_Hip,-0.2438,0.8779,0.4201,-4.19,4.6,2.99,20.34,3.28,-34.92,0.842616,0.471206,0.209876,0.154485,0.0,0.0,0.0,0,0
2026-06-16 16:13:39.635,2432912,L_Hip,-0.2409,0.8764,0.4414,-4.19,4.55,3.0,0.0,0.0,0.0,0.842586,0.471236,0.209876,0.154515,0.0,0.0,0.0,0,0
2026-06-16 16:13:39.637,2432932,L_Hip,-0.2375,0.8774,0.4284,-4.19,4.51,2.98,18.96,2.93,-34.03,0.842555,0.471236,0.209906,0.154607,0.0,0.0,0.0,0,0
2026-06-16 16:13:39.639,2432952,L_Hip,-0.2409,0.8705,0.4221,-4.18,4.48,2.98,19.96,1.98,-34.04,0.842494,0.471297,0.210028,0.154698,0.0,0.0,0.0,0,0
2026-06-16 16:13:39.643,2432775,R_Ankle,-0.1015,0.0215,1.2361,0.99,-1.25,-0.56,-17.05,-23.31,-17.89,0.97882,0.001373,-0.085269,0.186071,0.0,0.0,0.0,0,0
2026-06-16 16:13:39.645,2432795,R_Ankle,-0.08,-0.0299,1.1485,0.58,-1.19,-1.45,-18.44,-24.26,-19.44,0.978637,0.001984,-0.084078,0.187536,0.0,0.0,0.0,0,0
2026-06-16 16:13:39.647,2432815,R_Ankle,-0.0765,-0.083,1.0613,0.05,-1.13,-1.8,-17.57,-24.42,-18.04,0.97879,0.00238,-0.083041,0.18714,0.0,0.0,0.0,0,0
2026-06-16 16:13:39.649,2432835,R_Ankle,-0.0604,-0.0849,0.9363,-0.62,-1.0,-1.67,-18.43,-23.94,-19.44,0.979034,0.001862,-0.082278,0.186193,0.0,0.0,0.0,0,0
2026-06-16 16:13:39.656,2432787,R_Hip,-0.3543,-1.0621,0.0047,-1.75,-0.93,6.62,-14.12,4.6,-32.75,0.172002,-0.086428,0.651692,-0.733604,0.0,0.0,0.0,0,0
2026-06-16 16:13:39.658,2432807,R_Hip,-0.19,-0.9933,-0.0173,-1.7,-1.87,7.18,-12.66,3.5,-32.74,0.174169,-0.08356,0.653218,-0.732078,0.0,0.0,0.0,0,0
2026-06-16 16:13:39.661,2432827,R_Hip,-0.0894,-0.9835,0.0033,-1.63,-2.71,7.31,0.0,0.0,0.0,0.177343,-0.081454,0.654592,-0.730338,0.0,0.0,0.0,0,0
2026-06-16 16:13:39.664,2432847,R_Hip,0.0397,-0.9894,0.051,-1.46,-3.38,6.07,-15.21,5.33,-32.75,0.180151,-0.080721,0.655507,-0.728904,0.0,0.0,0.0,0,0
2026-06-16 16:13:39.665,2432926,L_Ankle,0.0737,-0.206,0.9731,5.39,-0.97,-10.34,27.2,24.9,-8.17,-0.609943,0.018433,0.105899,-0.785089,0.0,0.0,0.0,0,0
2026-06-16 16:13:39.668,2432797,R_Ankle,-0.0084,0.018,0.8094,-0.53,-0.98,-1.16,-16.39,-24.25,-18.8,0.979247,0.000855,-0.081668,0.185369,0.0,0.0,0.0,0,0
2026-06-16 16:13:39.669,2432927,L_Ankle,0.08,-0.2157,0.9746,5.37,-0.94,-10.34,27.15,26.67,-9.18,-0.609943,0.018525,0.105838,-0.785089,0.0,0.0,0.0,0,0
2026-06-16 16:13:39.671,2432817,R_Ankle,0.0326,0.0056,0.8084,-0.38,-1.0,-1.0,-17.07,-24.25,-18.81,0.979431,0.0,-0.081118,0.184668,0.0,0.0,0.0,0,0
2026-06-16 16:13:39.672,2432947,L_Ankle,0.0805,-0.2148,0.9674,5.36,-0.95,-10.34,28.55,26.65,-9.15,-0.609943,0.018555,0.105747,-0.785089,0.0,0.0,0.0,0,0
2026-06-16 16:13:39.673,2432837,R_Ankle,0.0625,0.015,0.7806,-0.22,-1.02,-0.87,-16.53,-23.15,-17.74,0.979553,-0.000458,-0.080721,0.184149,0.0,0.0,0.0,0,0
2026-06-16 16:13:39.674,2432967,L_Ankle,0.0737,-0.2138,0.964,5.33,-0.95,-10.34,0.0,0.0,0.0,-0.609943,0.018586,0.105686,-0.785119,0.0,0.0,0.0,0,0
2026-06-16 16:13:39.676,2432857,R_Ankle,0.135,0.0274,0.7284,0.09,-1.24,-0.46,-16.22,-24.08,-18.96,0.979614,-0.000641,-0.080569,0.183844,0.0,0.0,0.0,0,0
2026-06-16 16:13:39.689,2432820,R_Ankle,0.1091,-0.022,0.7414,0.64,-1.45,0.25,-18.09,-23.62,-19.13,0.979614,-0.000549,-0.080844,0.183874,0.0,0.0,0.0,0,0
2026-06-16 16:13:39.690,2432840,R_Ankle,0.1022,-0.0319,0.7969,0.7,-1.55,0.32,0.0,0.0,0.0,0.979492,-0.000275,-0.081301,0.184179,0.0,0.0,0.0,0,0
2026-06-16 16:13:39.692,2432860,R_Ankle,0.1145,-0.0225,0.8185,0.77,-1.69,0.32,-18.41,-23.64,-17.6,0.979369,0.0,-0.081698,0.184668,0.0,0.0,0.0,0,0
2026-06-16 16:13:39.694,2432880,R_Ankle,0.1189,-0.0413,0.9368,0.96,-1.8,-0.23,-17.93,-24.41,-19.89,0.979247,0.000366,-0.082095,0.185125,0.0,0.0,0.0,0,0
2026-06-16 16:13:39.721,2432852,R_Shank,-0.0307,-2.3776,0.6785,1.38,-2.12,-10.87,-7.0,-24.75,-11.47,0.701041,-0.012299,0.009339,-0.712943,0.0,0.0,0.0,0,0
2026-06-16 16:13:39.723,2432872,R_Shank,-0.0238,0.7116,0.6838,1.6,-2.29,-11.04,-5.96,-25.44,-12.39,0.699881,-0.011811,0.008209,-0.714072,0.0,0.0,0.0,0,0
2026-06-16 16:13:39.725,2432892,R_Shank,-0.0253,-1.8528,0.7342,1.86,-2.65,-10.97,-6.13,-25.28,-12.54,0.698599,-0.011322,0.006775,-0.715354,0.0,0.0,0.0,0,0
2026-06-16 16:13:39.727,2432912,R_Shank,-0.0528,-0.1752,0.7496,1.92,-2.83,-10.8,0.0,0.0,0.0,0.697378,-0.010987,0.005127,-0.716544,0.0,0.0,0.0,0,0
2026-06-16 16:13:39.730,2432994,L_Ankle,0.081,-0.2157,0.9702,5.38,-0.99,-10.33,27.71,26.14,-7.98,-0.610004,0.018281,0.105625,-0.785089,0.0,0.0,0.0,0,0
2026-06-16 16:13:39.732,2433014,L_Ankle,0.0776,-0.2245,0.9803,5.4,-0.98,-10.33,27.51,26.31,-9.17,-0.610004,0.018159,0.105625,-0.785089,0.0,0.0,0.0,0,0
2026-06-16 16:13:39.734,2432865,R_Ankle,0.0013,-0.1374,1.0374,0.91,-1.64,-1.43,-16.9,-23.45,-19.59,0.979217,0.000885,-0.082522,0.185125,0.0,0.0,0.0,0,0
2026-06-16 16:13:39.735,2433034,L_Ankle,0.082,-0.2109,0.9539,5.39,-0.97,-10.33,26.48,26.69,-7.83,-0.610004,0.018006,0.105655,-0.785089,0.0,0.0,0.0,0,0
2026-06-16 16:13:39.736,2432885,R_Ankle,-0.0128,-0.1419,1.0378,0.93,-1.62,-1.42,0.0,0.0,0.0,0.979308,0.001221,-0.082705,0.184606,0.0,0.0,0.0,0,0
2026-06-16 16:13:39.737,2433054,L_Ankle,0.0776,-0.2153,0.9578,5.41,-0.98,-10.32,0.0,0.0,0.0,-0.609973,0.017884,0.105686,-0.785089,0.0,0.0,0.0,0,0
2026-06-16 16:13:39.739,2432905,R_Ankle,-0.0182,-0.1419,1.0781,0.94,-1.59,-1.39,-16.23,-23.75,-20.81,0.979431,0.001343,-0.082614,0.183996,0.0,0.0,0.0,0,0
2026-06-16 16:13:39.741,2432925,R_Ankle,-0.0368,-0.1469,1.0872,0.94,-1.56,-1.25,-18.1,-25.21,-19.12,0.979553,0.001373,-0.082369,0.183416,0.0,0.0,0.0,0,0
2026-06-16 16:13:39.741,2433004,L_Hip,-0.2389,0.868,0.4095,-4.17,4.39,2.91,20.3,0.7,-36.07,0.842433,0.471297,0.21015,0.15482,0.0,0.0,0.0,0,0
2026-06-16 16:13:39.743,2433024,L_Hip,-0.2384,0.8725,0.4279,-4.16,4.38,2.9,0.0,0.0,0.0,0.842341,0.471328,0.210273,0.154973,0.0,0.0,0.0,0,0
2026-06-16 16:13:39.744,2433044,L_Hip,-0.2257,0.8764,0.4279,-4.13,4.35,2.88,18.81,3.09,-34.46,0.84228,0.471358,0.210456,0.155126,0.0,0.0,0.0,0,0
2026-06-16 16:13:39.746,2433064,L_Hip,-0.2277,0.8705,0.4109,-4.13,4.35,2.87,19.97,1.34,-35.78,0.842158,0.471389,0.210639,0.155278,0.0,0.0,0.0,0,0
2026-06-16 16:13:39.748,2433011,L_Shank,-0.0568,-0.1839,0.9575,1.75,-1.34,-0.16,23.83,26.87,-10.67,0.778558,-0.062258,-0.046815,0.6227,0.0,0.0,0.0,0,0
2026-06-16 16:13:39.750,2433012,L_Shank,-0.0514,-0.1755,0.9609,1.76,-1.32,-0.14,0.0,0.0,0.0,0.778497,-0.062136,-0.046846,0.622791,0.0,0.0,0.0,0,0
2026-06-16 16:13:39.752,2433032,L_Shank,-0.047,-0.1775,0.9551,1.77,-1.34,-0.12,24.86,27.88,-9.76,0.778436,-0.062044,-0.046846,0.622852,0.0,0.0,0.0,0,0
2026-06-16 16:13:39.753,2433052,L_Shank,-0.0475,-0.1765,0.9618,1.75,-1.33,-0.16,24.17,26.86,-9.74,0.778405,-0.061953,-0.046907,0.622883,0.0,0.0,0.0,0,0
2026-06-16 16:13:39.756,2432887,R_Hip,-0.2275,-0.7399,-0.0337,-0.46,-0.25,2.28,-15.02,3.31,-31.55,0.179449,-0.079073,0.659566,-0.725578,0.0,0.0,0.0,0,0
2026-06-16 16:13:39.757,2432907,R_Hip,-0.2482,-0.7297,-0.0293,-0.26,-0.38,2.27,-14.11,2.77,-32.06,0.179174,-0.078066,0.660237,-0.72515,0.0,0.0,0.0,0,0
2026-06-16 16:13:39.759,2432927,R_Hip,-0.2591,-0.7204,-0.0404,-0.08,-0.57,2.14,0.0,0.0,0.0,0.179083,-0.077059,0.660695,-0.724876,0.0,0.0,0.0,0,0
2026-06-16 16:13:39.761,2432947,R_Hip,-0.2512,-0.7751,-0.0803,0.28,-1.2,1.69,-14.48,2.4,-32.74,0.179113,-0.076449,0.660939,-0.724723,0.0,0.0,0.0,0,0
2026-06-16 16:13:39.763,2433027,L_Hip,-0.2311,0.868,0.4187,-4.08,4.35,2.9,21.29,1.04,-34.34,0.842067,0.47145,0.210822,0.155431,0.0,0.0,0.0,0,0
2026-06-16 16:13:39.765,2433047,L_Hip,-0.2272,0.8764,0.44,-4.09,4.36,2.92,0.0,0.0,0.0,0.842006,0.47148,0.210944,0.155553,0.0,0.0,0.0,0,0
2026-06-16 16:13:39.767,2432897,R_Shank,0.0605,2.7176,1.1642,-1.96,-2.29,-3.74,-6.29,-25.77,-12.69,0.70809,-0.006745,0.01352,-0.705924,0.0,0.0,0.0,0,0
2026-06-16 16:13:39.768,2433067,L_Hip,-0.2306,0.8734,0.4153,-4.07,4.38,2.93,20.3,1.67,-34.91,0.841914,0.471541,0.211066,0.155644,0.0,0.0,0.0,0,0
2026-06-16 16:13:39.769,2432917,R_Shank,-0.0223,-1.9332,1.1233,-2.3,-1.28,-6.56,0.0,0.0,0.0,0.710074,-0.007782,0.013489,-0.70394,0.0,0.0,0.0,0,0
2026-06-16 16:13:39.770,2433087,L_Hip,-0.2326,0.871,0.4235,-4.05,4.4,2.96,18.14,2.44,-35.61,0.841853,0.471603,0.211158,0.155736,0.0,0.0,0.0,0,0
2026-06-16 16:13:39.772,2432937,R_Shank,-0.0572,-2.7036,1.0614,-2.26,-0.77,-8.05,-6.99,-24.44,-12.97,0.710623,-0.007965,0.013886,-0.70336,0.0,0.0,0.0,0,0
2026-06-16 16:13:39.774,2432957,R_Shank,-0.1058,1.3056,0.9422,-2.0,-0.04,-10.3,-6.98,-24.44,-13.57,0.709922,-0.007447,0.014801,-0.704062,0.0,0.0,0.0,0,0
2026-06-16 16:13:39.779,2432911,R_Ankle,-0.0378,-0.1776,1.0752,0.65,-1.54,-0.58,-17.4,-22.02,-19.45,0.979675,0.001343,-0.082034,0.182958,0.0,0.0,0.0,0,0
2026-06-16 16:13:39.781,2432931,R_Ankle,-0.03,-0.1662,1.0575,0.61,-1.57,-0.35,0.0,0.0,0.0,0.979736,0.00116,-0.081729,0.182684,0.0,0.0,0.0,0,0
2026-06-16 16:13:39.783,2432951,R_Ankle,-0.0104,-0.1568,1.0378,0.61,-1.58,-0.16,-17.75,-23.3,-19.44,0.979766,0.000793,-0.081454,0.182714,0.0,0.0,0.0,0,0
2026-06-16 16:13:39.785,2432971,R_Ankle,0.0228,-0.1419,0.9981,0.61,-1.63,0.05,-17.41,-22.97,-19.75,0.979736,0.000458,-0.081271,0.182989,0.0,0.0,0.0,0,0
