python_time,esp32_hw_time,sensor_name,ax,ay,az,gx,gy,gz,mx,my,mz,q0,q1,q2,q3,quat_roll,quat_pitch,quat_yaw,is_paused_flag,t_pose_flag
2026-06-16 16:25:28.578,138675,L_Ankle,0.0967,0.028,0.9894,-0.66,-0.36,-1.92,-18.96,23.8,-28.04,0.98703,0.029389,-0.056337,0.147252,0.0,0.0,0.0,0,1
2026-06-16 16:25:28.581,138695,L_Ankle,0.0938,0.0222,0.9851,-0.67,-0.36,-1.91,-18.09,23.25,-29.22,0.98703,0.029389,-0.056307,0.147252,0.0,0.0,0.0,0,1
2026-06-16 16:25:28.588,138715,L_Ankle,0.0972,0.0139,0.9914,-0.67,-0.37,-1.9,-18.99,23.8,-29.75,0.98703,0.029389,-0.056337,0.147252,0.0,0.0,0.0,0,1
2026-06-16 16:25:28.591,138735,L_Ankle,0.0972,0.0197,0.9861,-0.67,-0.36,-1.91,0.0,0.0,0.0,0.98703,0.029389,-0.056307,0.147282,0.0,0.0,0.0,0,1
2026-06-16 16:25:28.595,138680,L_Shank,0.0306,-0.0141,0.983,1.68,-0.73,-0.38,-0.9,11.74,-33.73,0.999298,-0.002167,-0.035493,0.010987,0.0,0.0,0.0,0,1
2026-06-16 16:25:28.598,138700,L_Shank,0.0189,-0.0082,0.9791,1.69,-0.74,-0.41,1.02,9.55,-34.5,0.999298,-0.002167,-0.035524,0.010987,0.0,0.0,0.0,0,1
2026-06-16 16:25:28.601,138720,L_Shank,0.0345,-0.0063,0.9743,1.68,-0.75,-0.41,0.0,0.0,0.0,0.999298,-0.002167,-0.035524,0.010987,0.0,0.0,0.0,0,1
2026-06-16 16:25:28.606,138740,L_Shank,0.0228,-0.0102,0.9729,1.69,-0.74,-0.4,0.49,10.39,-33.73,0.999298,-0.002167,-0.035524,0.010987,0.0,0.0,0.0,0,1
2026-06-16 16:25:28.609,138682,L_Hip,0.1146,-0.0793,0.9904,0.19,-0.25,0.77,-28.22,21.72,-34.54,0.990753,-0.033265,-0.063265,-0.115116,0.0,0.0,0.0,0,1
2026-06-16 16:25:28.612,138702,L_Hip,0.1063,-0.0705,0.9909,0.19,-0.25,0.78,0.0,0.0,0.0,0.990753,-0.033265,-0.063265,-0.115116,0.0,0.0,0.0,0,1
2026-06-16 16:25:28.614,138722,L_Hip,0.1156,-0.0622,0.9832,0.19,-0.25,0.77,-28.05,21.24,-34.97,0.990753,-0.033265,-0.063265,-0.115116,0.0,0.0,0.0,0,1
2026-06-16 16:25:28.616,138742,L_Hip,0.1117,-0.0715,0.9958,0.19,-0.25,0.77,-28.22,21.4,-34.83,0.990753,-0.033265,-0.063265,-0.115085,0.0,0.0,0.0,0,1
2026-06-16 16:25:28.621,138720,L_Ankle,0.0977,0.0144,0.9856,-0.67,-0.35,-1.92,-20.22,25.06,-29.25,0.98703,0.029389,-0.056307,0.147252,0.0,0.0,0.0,0,1
2026-06-16 16:25:28.624,138740,L_Ankle,0.0918,0.0188,0.9899,-0.67,-0.36,-1.93,-18.78,23.27,-28.21,0.98703,0.02942,-0.056307,0.147282,0.0,0.0,0.0,0,1
2026-06-16 16:25:28.626,138760,L_Ankle,0.0869,0.0149,1.0,-0.66,-0.35,-1.92,0.0,0.0,0.0,0.98703,0.02945,-0.056307,0.147282,0.0,0.0,0.0,0,1
2026-06-16 16:25:28.628,138780,L_Ankle,0.0991,0.0236,0.9856,-0.67,-0.35,-1.9,-17.94,23.78,-30.07,0.98703,0.02945,-0.056337,0.147282,0.0,0.0,0.0,0,1
2026-06-16 16:25:28.631,138725,L_Shank,0.0194,-0.0028,0.994,1.7,-0.75,-0.4,0.84,10.39,-34.35,0.999298,-0.002167,-0.035524,0.010987,0.0,0.0,0.0,0,1
2026-06-16 16:25:28.633,138745,L_Shank,0.0287,-0.0023,0.994,1.7,-0.74,-0.41,0.67,10.56,-34.2,0.999298,-0.002167,-0.035524,0.010987,0.0,0.0,0.0,0,1
2026-06-16 16:25:28.636,138765,L_Shank,0.0218,-0.0063,0.9734,1.69,-0.73,-0.41,0.0,0.0,0.0,0.999298,-0.002167,-0.035524,0.010987,0.0,0.0,0.0,0,1
2026-06-16 16:25:28.638,138785,L_Shank,0.0277,-0.0146,0.9772,1.69,-0.74,-0.39,-0.54,9.38,-34.64,0.999298,-0.002167,-0.035524,0.010956,0.0,0.0,0.0,0,1
2026-06-16 16:25:28.640,138731,L_Hip,0.1195,-0.0666,0.9967,0.21,-0.24,0.78,-28.91,20.74,-35.11,0.990753,-0.033265,-0.063265,-0.115085,0.0,0.0,0.0,0,1
2026-06-16 16:25:28.643,138751,L_Hip,0.1009,-0.0676,0.9851,0.19,-0.25,0.77,-28.39,21.56,-34.68,0.990753,-0.033265,-0.063234,-0.115085,0.0,0.0,0.0,0,1
2026-06-16 16:25:28.645,138732,L_Hip,0.1122,-0.0661,0.9895,0.19,-0.25,0.78,0.0,0.0,0.0,0.990753,-0.033296,-0.063234,-0.115085,0.0,0.0,0.0,0,1
2026-06-16 16:25:28.646,138752,L_Hip,0.1043,-0.0784,0.9817,0.19,-0.25,0.77,-28.93,20.1,-34.52,0.990753,-0.033296,-0.063204,-0.115085,0.0,0.0,0.0,0,1
2026-06-16 16:25:28.659,138757,L_Hip,0.1146,-0.0666,0.9764,0.2,-0.25,0.77,-29.25,20.41,-35.1,0.990753,-0.033326,-0.063204,-0.115085,0.0,0.0,0.0,0,1
2026-06-16 16:25:28.661,138777,L_Hip,0.0999,-0.0656,0.989,0.19,-0.25,0.77,-29.26,20.41,-34.52,0.990753,-0.033326,-0.063204,-0.115085,0.0,0.0,0.0,0,1
2026-06-16 16:25:28.663,138797,L_Hip,0.1087,-0.07,0.9919,0.17,-0.25,0.77,0.0,0.0,0.0,0.990753,-0.033326,-0.063204,-0.115085,0.0,0.0,0.0,0,1
2026-06-16 16:25:28.666,138817,L_Hip,0.1136,-0.0739,0.9798,0.21,-0.25,0.77,-28.56,20.75,-35.4,0.990753,-0.033326,-0.063204,-0.115085,0.0,0.0,0.0,0,1
2026-06-16 16:25:28.669,138765,L_Ankle,0.0923,0.0178,0.9798,-0.66,-0.35,-1.91,-18.81,23.62,-29.57,0.98703,0.02945,-0.056337,0.147282,0.0,0.0,0.0,0,1
2026-06-16 16:25:28.671,138785,L_Ankle,0.0972,0.0261,0.9856,-0.66,-0.36,-1.91,-18.62,24.15,-28.38,0.98703,0.02942,-0.056337,0.147282,0.0,0.0,0.0,0,1
2026-06-16 16:25:28.673,138805,L_Ankle,0.0947,0.0109,0.9938,-0.65,-0.36,-1.92,0.0,0.0,0.0,0.98703,0.02942,-0.056337,0.147282,0.0,0.0,0.0,0,1
2026-06-16 16:25:28.675,138825,L_Ankle,0.0928,0.0266,0.9938,-0.66,-0.36,-1.91,-17.89,24.14,-27.0,0.98703,0.029389,-0.056307,0.147282,0.0,0.0,0.0,0,1
2026-06-16 16:25:28.678,138769,L_Shank,0.0277,-0.0077,0.9959,1.69,-0.74,-0.38,0.15,10.06,-34.65,0.999298,-0.002167,-0.035524,0.010956,0.0,0.0,0.0,0,1
2026-06-16 16:25:28.681,138789,L_Shank,0.0233,-0.0038,0.9777,1.69,-0.74,-0.4,0.14,10.73,-34.35,0.999298,-0.002167,-0.035524,0.010956,0.0,0.0,0.0,0,1
2026-06-16 16:25:28.683,138809,L_Shank,0.0287,-0.0009,0.9935,1.67,-0.74,-0.41,-0.37,9.21,-34.48,0.999298,-0.002197,-0.035524,0.010956,0.0,0.0,0.0,0,1
2026-06-16 16:25:28.686,138829,L_Shank,0.0233,-0.0102,0.9878,1.69,-0.74,-0.38,0.0,0.0,0.0,0.999298,-0.002197,-0.035554,0.010956,0.0,0.0,0.0,0,1
2026-06-16 16:25:28.688,138782,L_Hip,0.1107,-0.0617,0.9788,0.19,-0.23,0.77,-28.9,21.71,-34.24,0.990753,-0.033326,-0.063204,-0.115085,0.0,0.0,0.0,0,1
2026-06-16 16:25:28.691,138802,L_Hip,0.1063,-0.0739,0.989,0.19,-0.24,0.79,-28.6,20.1,-34.24,0.990753,-0.033326,-0.063204,-0.115085,0.0,0.0,0.0,0,1
2026-06-16 16:25:28.693,138822,L_Hip,0.1225,-0.0661,0.9638,0.19,-0.25,0.77,0.0,0.0,0.0,0.990753,-0.033357,-0.063204,-0.115085,0.0,0.0,0.0,0,1
2026-06-16 16:25:28.696,138842,L_Hip,0.1117,-0.0646,0.9803,0.18,-0.25,0.78,-29.07,21.87,-34.09,0.990753,-0.033357,-0.063204,-0.115085,0.0,0.0,0.0,0,1
2026-06-16 16:25:28.698,138787,L_Ankle,0.0972,0.0261,0.9986,-0.67,-0.37,-1.93,-18.27,23.43,-29.05,0.98703,0.029389,-0.056307,0.147282,0.0,0.0,0.0,0,1
2026-06-16 16:25:28.700,138807,L_Ankle,0.0903,0.0202,0.9875,-0.67,-0.37,-1.92,-18.98,23.09,-29.75,0.98703,0.02942,-0.056307,0.147282,0.0,0.0,0.0,0,1
2026-06-16 16:25:28.703,138827,L_Ankle,0.0864,0.0192,1.0034,-0.66,-0.36,-1.9,0.0,0.0,0.0,0.98703,0.02942,-0.056307,0.147282,0.0,0.0,0.0,0,1
2026-06-16 16:25:28.705,138847,L_Ankle,0.0884,0.0188,0.9923,-0.67,-0.35,-1.92,-18.08,22.9,-28.88,0.98703,0.02942,-0.056307,0.147282,0.0,0.0,0.0,0,1
2026-06-16 16:25:28.707,138792,L_Shank,0.0277,-0.0067,0.9868,1.69,-0.74,-0.41,1.19,11.07,-34.36,0.999298,-0.002197,-0.035524,0.010956,0.0,0.0,0.0,0,1
2026-06-16 16:25:28.709,138812,L_Shank,0.0292,-0.0038,0.9791,1.68,-0.73,-0.4,0.67,10.22,-34.19,0.999298,-0.002167,-0.035524,0.010956,0.0,0.0,0.0,0,1
2026-06-16 16:25:28.712,138832,L_Shank,0.0248,-0.0072,0.995,1.68,-0.74,-0.39,0.0,0.0,0.0,0.999298,-0.002167,-0.035524,0.010956,0.0,0.0,0.0,0,1
2026-06-16 16:25:28.714,138852,L_Shank,0.0296,-0.0092,1.0036,1.69,-0.74,-0.39,1.19,10.4,-34.67,0.999298,-0.002136,-0.035524,0.010956,0.0,0.0,0.0,0,1
2026-06-16 16:25:28.734,138832,L_Hip,0.1092,-0.0631,0.989,0.19,-0.25,0.77,-28.25,20.43,-34.53,0.990753,-0.033326,-0.063204,-0.115085,0.0,0.0,0.0,0,1
2026-06-16 16:25:28.736,138852,L_Hip,0.1063,-0.0646,0.9691,0.2,-0.25,0.77,-28.74,20.91,-34.67,0.990753,-0.033326,-0.063173,-0.115085,0.0,0.0,0.0,0,1
2026-06-16 16:25:28.738,138872,L_Hip,0.1068,-0.0705,0.972,0.19,-0.26,0.77,0.0,0.0,0.0,0.990753,-0.033326,-0.063173,-0.115116,0.0,0.0,0.0,0,1
2026-06-16 16:25:28.740,138892,L_Hip,0.1117,-0.0656,0.9914,0.19,-0.24,0.77,-28.35,23.17,-35.27,0.990753,-0.033357,-0.063173,-0.115085,0.0,0.0,0.0,0,1
2026-06-16 16:25:28.742,138837,L_Shank,0.0262,-0.0092,0.9911,1.68,-0.75,-0.39,0.49,11.4,-33.74,0.999298,-0.002167,-0.035524,0.010956,0.0,0.0,0.0,0,1
2026-06-16 16:25:28.745,138857,L_Shank,0.0199,-0.0072,0.9767,1.68,-0.73,-0.4,0.66,11.24,-33.89,0.999298,-0.002167,-0.035524,0.010956,0.0,0.0,0.0,0,1
2026-06-16 16:25:28.747,138877,L_Shank,0.0145,-0.0048,0.9782,1.69,-0.74,-0.39,0.0,0.0,0.0,0.999298,-0.002167,-0.035524,0.010956,0.0,0.0,0.0,0,1
2026-06-16 16:25:28.749,138897,L_Shank,0.034,-0.0087,0.9906,1.69,-0.74,-0.4,0.84,9.38,-34.65,0.999298,-0.002136,-0.035524,0.010956,0.0,0.0,0.0,0,1
2026-06-16 16:25:28.757,138856,L_Ankle,0.0898,0.0251,1.0014,-0.67,-0.35,-1.91,-19.72,24.87,-30.43,0.98703,0.02942,-0.056307,0.147313,0.0,0.0,0.0,0,1
2026-06-16 16:25:28.759,138876,L_Ankle,0.0942,0.0227,0.9846,-0.65,-0.35,-1.91,-17.07,25.01,-29.2,0.98703,0.02942,-0.056307,0.147313,0.0,0.0,0.0,0,1
2026-06-16 16:25:28.761,138896,L_Ankle,0.0957,0.0251,0.9846,-0.65,-0.35,-1.91,0.0,0.0,0.0,0.98703,0.02945,-0.056307,0.147313,0.0,0.0,0.0,0,1
2026-06-16 16:25:28.763,138916,L_Ankle,0.0987,0.0109,0.9966,-0.66,-0.35,-1.93,-19.16,24.69,-28.9,0.98703,0.02945,-0.056307,0.147313,0.0,0.0,0.0,0,1
2026-06-16 16:25:28.779,138877,L_Ankle,0.0977,0.0197,0.9918,-0.67,-0.35,-1.91,-17.94,24.14,-29.39,0.98703,0.02942,-0.056276,0.147313,0.0,0.0,0.0,0,1
2026-06-16 16:25:28.781,138897,L_Ankle,0.0918,0.0134,0.9904,-0.66,-0.36,-1.91,-18.79,23.62,-28.89,0.98703,0.02942,-0.056246,0.147313,0.0,0.0,0.0,0,1
2026-06-16 16:25:28.783,138917,L_Ankle,0.0869,0.0134,0.9914,-0.67,-0.36,-1.93,-18.61,23.09,-28.72,0.98703,0.02945,-0.056246,0.147313,0.0,0.0,0.0,0,1
2026-06-16 16:25:28.785,138937,L_Ankle,0.0967,0.0236,0.9803,-0.67,-0.37,-1.91,0.0,0.0,0.0,0.98703,0.02945,-0.056246,0.147313,0.0,0.0,0.0,0,1
2026-06-16 16:25:28.787,138882,L_Hip,0.1092,-0.0631,1.004,0.19,-0.25,0.76,-29.07,20.58,-35.83,0.990753,-0.033357,-0.063173,-0.115116,0.0,0.0,0.0,0,1
2026-06-16 16:25:28.789,138902,L_Hip,0.1126,-0.0661,0.9735,0.19,-0.25,0.78,-27.91,21.08,-33.67,0.990753,-0.033357,-0.063173,-0.115116,0.0,0.0,0.0,0,1
2026-06-16 16:25:28.791,138922,L_Hip,0.1058,-0.0681,0.9803,0.19,-0.25,0.79,0.0,0.0,0.0,0.990753,-0.033357,-0.063173,-0.115116,0.0,0.0,0.0,0,1
2026-06-16 16:25:28.793,138942,L_Hip,0.1107,-0.0681,0.9904,0.19,-0.25,0.78,-29.77,20.24,-34.65,0.990753,-0.033326,-0.063204,-0.115116,0.0,0.0,0.0,0,1
2026-06-16 16:25:28.808,138906,L_Shank,0.0184,-0.0087,0.9762,1.7,-0.74,-0.4,-1.25,9.71,-33.7,0.999298,-0.002167,-0.035524,0.010956,0.0,0.0,0.0,0,1
2026-06-16 16:25:28.809,138926,L_Shank,0.0243,-0.0146,0.9863,1.7,-0.74,-0.4,0.84,11.41,-34.05,0.999298,-0.002167,-0.035524,0.010956,0.0,0.0,0.0,0,1
2026-06-16 16:25:28.811,138946,L_Shank,0.0228,-0.0107,0.9844,1.7,-0.74,-0.4,0.0,0.0,0.0,0.999298,-0.002167,-0.035554,0.010956,0.0,0.0,0.0,0,1
2026-06-16 16:25:28.813,138966,L_Shank,0.0306,-0.0116,0.9724,1.69,-0.74,-0.4,0.85,10.4,-34.66,0.999298,-0.002167,-0.035524,0.010956,0.0,0.0,0.0,0,1
2026-06-16 16:25:28.815,138907,L_Hip,0.1068,-0.0626,0.9827,0.2,-0.25,0.79,-29.4,20.25,-36.11,0.990753,-0.033326,-0.063204,-0.115116,0.0,0.0,0.0,0,1
2026-06-16 16:25:28.817,138927,L_Hip,0.1122,-0.0646,0.9846,0.2,-0.25,0.78,-27.89,22.05,-33.67,0.990753,-0.033326,-0.063204,-0.115116,0.0,0.0,0.0,0,1
2026-06-16 16:25:28.819,138947,L_Hip,0.1043,-0.0715,0.9793,0.19,-0.25,0.8,-28.72,21.55,-35.26,0.990753,-0.033326,-0.063204,-0.115116,0.0,0.0,0.0,0,1
2026-06-16 16:25:28.821,138967,L_Hip,0.1205,-0.0754,0.9687,0.19,-0.24,0.79,0.0,0.0,0.0,0.990753,-0.033326,-0.063234,-0.115116,0.0,0.0,0.0,0,1
2026-06-16 16:25:28.824,138922,L_Ankle,0.1006,0.0163,0.9962,-0.65,-0.36,-1.93,-18.46,23.97,-29.23,0.98703,0.02942,-0.056276,0.147313,0.0,0.0,0.0,0,1
2026-06-16 16:25:28.826,138942,L_Ankle,0.1021,0.0276,0.9923,-0.66,-0.36,-1.91,-17.98,25.55,-30.4,0.98703,0.02945,-0.056276,0.147313,0.0,0.0,0.0,0,1
2026-06-16 16:25:28.827,138962,L_Ankle,0.0928,0.0144,0.9827,-0.67,-0.36,-1.9,0.0,0.0,0.0,0.98703,0.02942,-0.056246,0.147313,0.0,0.0,0.0,0,1
2026-06-16 16:25:28.829,138982,L_Ankle,0.1016,0.031,0.9904,-0.67,-0.36,-1.92,-18.95,23.09,-28.39,0.98703,0.02942,-0.056246,0.147313,0.0,0.0,0.0,0,1
2026-06-16 16:25:28.831,138927,L_Shank,0.0277,-0.0082,0.9834,1.69,-0.75,-0.4,0.32,11.92,-34.21,0.999298,-0.002167,-0.035524,0.010956,0.0,0.0,0.0,0,1
2026-06-16 16:25:28.833,138947,L_Shank,0.0243,-0.0077,0.9729,1.69,-0.74,-0.41,-0.03,10.55,-33.26,0.999298,-0.002197,-0.035554,0.010956,0.0,0.0,0.0,0,1
2026-06-16 16:25:28.835,138967,L_Shank,0.0257,-0.0146,0.9777,1.7,-0.74,-0.41,-0.02,10.22,-34.19,0.999298,-0.002197,-0.035554,0.010987,0.0,0.0,0.0,0,1
2026-06-16 16:25:28.837,138987,L_Shank,0.0243,-0.0092,0.969,1.68,-0.75,-0.41,0.0,0.0,0.0,0.999298,-0.002167,-0.035554,0.010987,0.0,0.0,0.0,0,1
2026-06-16 16:25:28.846,138945,L_Ankle,0.0933,0.0207,0.9717,-0.67,-0.35,-1.9,-17.62,25.19,-30.4,0.98703,0.02945,-0.056246,0.147313,0.0,0.0,0.0,0,1
2026-06-16 16:25:28.849,138965,L_Ankle,0.1001,0.0207,0.988,-0.67,-0.36,-1.91,-16.86,22.7,-29.03,0.98703,0.02945,-0.056246,0.147313,0.0,0.0,0.0,0,1
2026-06-16 16:25:28.850,138985,L_Ankle,0.0972,0.0173,0.9755,-0.67,-0.35,-1.93,-19.71,25.94,-29.41,0.98703,0.029481,-0.056276,0.147313,0.0,0.0,0.0,0,1
2026-06-16 16:25:28.853,139005,L_Ankle,0.0991,0.0256,0.9827,-0.65,-0.35,-1.92,0.0,0.0,0.0,0.98703,0.029481,-0.056276,0.147313,0.0,0.0,0.0,0,1
2026-06-16 16:25:28.855,138950,L_Shank,0.0184,-0.0092,0.9772,1.68,-0.73,-0.4,0.49,9.72,-34.34,0.999298,-0.002197,-0.035554,0.010987,0.0,0.0,0.0,0,1
2026-06-16 16:25:28.857,138970,L_Shank,0.0238,-0.0097,0.9844,1.7,-0.74,-0.4,0.31,10.9,-33.89,0.999298,-0.002197,-0.035554,0.010987,0.0,0.0,0.0,0,1
2026-06-16 16:25:28.859,138990,L_Shank,0.0238,-0.0028,0.983,1.7,-0.72,-0.39,0.31,11.23,-33.27,0.999298,-0.002197,-0.035524,0.010987,0.0,0.0,0.0,0,1
2026-06-16 16:25:28.861,3141981,R_Hip,0.0288,-0.0062,0.9751,0.38,-0.3,9.36,-24.16,12.47,-38.09,0.99707,0.005463,-0.038301,-0.065737,0.0,0.0,0.0,0,1
2026-06-16 16:25:28.861,139010,L_Shank,0.0174,-0.0038,0.9858,1.69,-0.75,-0.41,0.0,0.0,0.0,0.999298,-0.002197,-0.035524,0.010987,0.0,0.0,0.0,0,1
2026-06-16 16:25:28.863,3142001,R_Hip,0.0377,0.004,0.9948,0.37,-0.31,9.37,-24.16,13.21,-38.43,0.99707,0.005432,-0.038301,-0.065737,0.0,0.0,0.0,0,1
2026-06-16 16:25:28.864,138957,L_Hip,0.1092,-0.0543,0.9778,0.19,-0.24,0.78,-29.09,19.61,-35.24,0.990753,-0.033296,-0.063234,-0.115116,0.0,0.0,0.0,0,1
2026-06-16 16:25:28.866,3142021,R_Hip,0.0348,-0.0018,0.9885,0.38,-0.29,9.37,-24.52,12.84,-37.07,0.99707,0.005463,-0.03827,-0.065737,0.0,0.0,0.0,0,1
2026-06-16 16:25:28.867,138977,L_Hip,0.1126,-0.0749,0.9948,0.19,-0.25,0.78,-28.4,20.91,-34.97,0.990753,-0.033296,-0.063234,-0.115116,0.0,0.0,0.0,0,1
2026-06-16 16:25:28.869,3142041,R_Hip,0.0402,0.0079,0.9789,0.37,-0.32,9.35,-23.79,14.67,-37.75,0.99707,0.005463,-0.03827,-0.065737,0.0,0.0,0.0,0,1
2026-06-16 16:25:28.869,138997,L_Hip,0.1073,-0.0661,0.9808,0.2,-0.25,0.78,-27.05,21.58,-34.12,0.990753,-0.033296,-0.063234,-0.115116,0.0,0.0,0.0,0,1
2026-06-16 16:25:28.871,3141981,R_Shank,-0.0896,2.3756,1.0152,-0.01,-0.87,-1.55,-15.42,5.71,-46.86,0.91934,0.024079,0.020569,-0.392102,0.0,0.0,0.0,0,1
2026-06-16 16:25:28.872,139017,L_Hip,0.1117,-0.0725,0.99,0.19,-0.26,0.77,0.0,0.0,0.0,0.990753,-0.033296,-0.063234,-0.115116,0.0,0.0,0.0,0,1
2026-06-16 16:25:28.873,3142001,R_Shank,-0.0896,2.1164,0.998,-0.01,-0.89,-1.56,-14.05,4.69,-46.89,0.91934,0.024079,0.020569,-0.392102,0.0,0.0,0.0,0,1
2026-06-16 16:25:28.875,3142021,R_Shank,-0.0881,-0.3248,1.0138,-0.02,-0.88,-1.56,0.0,0.0,0.0,0.91934,0.024079,0.020569,-0.392102,0.0,0.0,0.0,0,1
2026-06-16 16:25:28.877,3142041,R_Shank,-0.0896,-2.6368,1.009,-0.03,-0.88,-1.57,-13.22,5.18,-46.74,0.91934,0.02411,0.020539,-0.392102,0.0,0.0,0.0,0,1
2026-06-16 16:25:28.878,3141982,R_Ankle,0.0111,-0.0106,1.0134,0.77,-1.74,-0.49,-10.82,10.62,-50.42,0.32844,0.0918,0.00766,0.940001,0.0,0.0,0.0,0,1
2026-06-16 16:25:28.880,3142002,R_Ankle,0.0233,-0.0131,1.0105,0.76,-1.74,-0.5,-10.98,13.01,-51.53,0.32844,0.091769,0.00763,0.940001,0.0,0.0,0.0,0,1
2026-06-16 16:25:28.882,3142022,R_Ankle,0.0233,-0.0101,0.9852,0.77,-1.74,-0.49,0.0,0.0,0.0,0.32844,0.091769,0.00766,0.940001,0.0,0.0,0.0,0,1
2026-06-16 16:25:28.884,138982,L_Hip,0.1136,-0.0681,0.9764,0.19,-0.24,0.77,-29.09,20.9,-33.8,0.990753,-0.033326,-0.063265,-0.115116,0.0,0.0,0.0,0,1
2026-06-16 16:25:28.885,3142042,R_Ankle,0.0184,-0.0235,1.0048,0.77,-1.74,-0.5,-10.64,12.37,-50.59,0.32844,0.0918,0.00766,0.940001,0.0,0.0,0.0,0,1
2026-06-16 16:25:28.887,3141982,R_Hip,0.0274,0.0006,0.9919,0.36,-0.3,9.37,-23.06,15.4,-37.41,0.99707,0.005463,-0.038301,-0.065737,0.0,0.0,0.0,0,1
2026-06-16 16:25:28.887,139002,L_Hip,0.1136,-0.0715,0.9866,0.19,-0.23,0.78,-28.08,19.95,-34.68,0.990753,-0.033296,-0.063265,-0.115085,0.0,0.0,0.0,0,1
2026-06-16 16:25:28.890,3142002,R_Hip,0.0402,0.0118,0.9938,0.38,-0.3,9.37,-22.88,13.02,-37.23,0.99707,0.005463,-0.03827,-0.065737,0.0,0.0,0.0,0,1
2026-06-16 16:25:28.890,139022,L_Hip,0.1087,-0.0681,0.9788,0.18,-0.22,0.78,-28.4,21.23,-34.39,0.990753,-0.033296,-0.063204,-0.115085,0.0,0.0,0.0,0,1
2026-06-16 16:25:28.892,3142022,R_Hip,0.0417,0.003,0.9938,0.37,-0.3,9.36,-23.06,12.11,-38.09,0.99707,0.005493,-0.03827,-0.065737,0.0,0.0,0.0,0,1
2026-06-16 16:25:28.893,139042,L_Hip,0.1156,-0.0676,0.9798,0.21,-0.25,0.77,-27.38,21.25,-34.69,0.990753,-0.033326,-0.063234,-0.115085,0.0,0.0,0.0,0,1
2026-06-16 16:25:28.895,3142042,R_Hip,0.0486,0.0001,0.9856,0.37,-0.3,9.36,-23.24,12.65,-37.23,0.99707,0.005493,-0.03827,-0.065737,0.0,0.0,0.0,0,1
2026-06-16 16:25:28.896,138990,L_Ankle,0.0928,0.0222,0.9813,-0.67,-0.37,-1.92,-16.71,23.94,-29.53,0.98703,0.029511,-0.056307,0.147313,0.0,0.0,0.0,0,1
2026-06-16 16:25:28.898,3141987,R_Hip,0.0382,0.0069,0.9722,0.38,-0.29,9.35,-22.15,13.02,-37.57,0.99707,0.005493,-0.038301,-0.065737,0.0,0.0,0.0,0,1
2026-06-16 16:25:28.899,139010,L_Ankle,0.0947,0.0163,0.9971,-0.67,-0.35,-1.93,-18.1,23.96,-28.88,0.98703,0.029511,-0.056307,0.147313,0.0,0.0,0.0,0,1
2026-06-16 16:25:28.900,3141988,R_Hip,0.0264,0.003,0.9914,0.38,-0.29,9.38,-25.25,11.38,-38.77,0.99707,0.005524,-0.038301,-0.065767,0.0,0.0,0.0,0,1
2026-06-16 16:25:28.901,139030,L_Ankle,0.0918,0.0202,0.9741,-0.67,-0.35,-1.91,-18.45,23.26,-29.57,0.98703,0.029511,-0.056307,0.147313,0.0,0.0,0.0,0,1
2026-06-16 16:25:28.903,3142008,R_Hip,0.0397,-0.0013,0.9919,0.37,-0.29,9.36,-23.06,13.57,-38.09,0.99707,0.005524,-0.03827,-0.065737,0.0,0.0,0.0,0,1
2026-06-16 16:25:28.904,139050,L_Ankle,0.0962,0.0251,0.9938,-0.65,-0.35,-1.93,-18.62,23.08,-29.4,0.98703,0.029511,-0.056307,0.147313,0.0,0.0,0.0,0,1
2026-06-16 16:25:28.905,3142028,R_Hip,0.0422,0.0064,0.9876,0.37,-0.3,9.37,-23.06,15.03,-37.41,0.99707,0.005524,-0.03827,-0.065737,0.0,0.0,0.0,0,1
2026-06-16 16:25:28.906,138995,L_Shank,0.0248,-0.0043,0.9892,1.69,-0.74,-0.4,-0.03,10.55,-33.57,0.999298,-0.002228,-0.035554,0.010987,0.0,0.0,0.0,0,1
2026-06-16 16:25:28.908,3141992,R_Shank,-0.0832,0.7048,0.9956,-0.02,-0.89,-1.55,-13.89,5.19,-46.73,0.91934,0.024079,0.020569,-0.392102,0.0,0.0,0.0,0,1
2026-06-16 16:25:28.909,139015,L_Shank,0.0135,-0.0092,0.983,1.7,-0.74,-0.39,1.55,9.05,-35.59,0.999298,-0.002228,-0.035554,0.010987,0.0,0.0,0.0,0,1
2026-06-16 16:25:28.911,3142012,R_Shank,-0.0871,-0.1956,1.0032,-0.03,-0.88,-1.57,-14.55,5.19,-48.23,0.91934,0.024079,0.020569,-0.392102,0.0,0.0,0.0,0,1
2026-06-16 16:25:28.912,139035,L_Shank,0.0311,-0.0033,0.9724,1.68,-0.74,-0.4,0.33,10.92,-35.44,0.999298,-0.002228,-0.035554,0.010956,0.0,0.0,0.0,0,1
2026-06-16 16:25:28.913,3142032,R_Shank,-0.0891,2.5052,0.9975,-0.01,-0.87,-1.57,0.0,0.0,0.0,0.91934,0.024079,0.020569,-0.392102,0.0,0.0,0.0,0,1
2026-06-16 16:25:28.914,139055,L_Shank,0.0321,-0.0028,0.9887,1.7,-0.73,-0.39,-0.72,10.23,-34.49,0.999298,-0.002228,-0.035554,0.010956,0.0,0.0,0.0,0,1
2026-06-16 16:25:28.916,3142052,R_Shank,-0.0861,-0.066,1.01,-0.02,-0.87,-1.55,-15.25,5.54,-46.72,0.91934,0.024079,0.020569,-0.392102,0.0,0.0,0.0,0,1
2026-06-16 16:25:28.917,3141997,R_Ankle,0.0233,-0.02,1.0048,0.77,-1.77,-0.49,-10.31,11.74,-51.2,0.32844,0.0918,0.00763,0.940001,0.0,0.0,0.0,0,1
2026-06-16 16:25:28.919,3142017,R_Ankle,0.0189,-0.0106,0.9904,0.77,-1.75,-0.48,-10.66,11.75,-51.82,0.32844,0.09183,0.007599,0.940001,0.0,0.0,0.0,0,1
2026-06-16 16:25:28.921,3142037,R_Ankle,0.0165,-0.0101,1.0153,0.77,-1.74,-0.49,0.0,0.0,0.0,0.32844,0.09183,0.007599,0.940001,0.0,0.0,0.0,0,1
2026-06-16 16:25:28.922,3142057,R_Ankle,0.0194,-0.0101,1.0081,0.77,-1.74,-0.5,-11.85,9.97,-50.42,0.32844,0.091861,0.007599,0.940001,0.0,0.0,0.0,0,1
2026-06-16 16:25:28.924,3142010,R_Hip,0.0333,0.003,0.9953,0.37,-0.29,9.35,-22.15,12.29,-38.26,0.99707,0.005524,-0.038301,-0.065737,0.0,0.0,0.0,0,1
2026-06-16 16:25:28.925,3142030,R_Hip,0.0362,-0.0028,0.9962,0.38,-0.29,9.38,0.0,0.0,0.0,0.99707,0.005524,-0.038301,-0.065737,0.0,0.0,0.0,0,1
2026-06-16 16:25:28.927,3142050,R_Hip,0.0367,-0.0003,0.9914,0.36,-0.3,9.36,-23.24,12.65,-37.23,0.99707,0.005524,-0.03827,-0.065737,0.0,0.0,0.0,0,1
2026-06-16 16:25:28.929,3142070,R_Hip,0.0328,0.0098,0.9982,0.35,-0.3,9.36,-23.24,12.65,-37.23,0.99707,0.005493,-0.03827,-0.065737,0.0,0.0,0.0,0,1
2026-06-16 16:25:28.930,3142015,R_Shank,-0.0881,-2.7664,1.0128,-0.01,-0.87,-1.56,-13.4,6.0,-47.19,0.91934,0.024079,0.020569,-0.392102,0.0,0.0,0.0,0,1
2026-06-16 16:25:28.932,3142035,R_Shank,-0.0915,0.8344,1.0095,-0.01,-0.87,-1.56,-13.07,5.68,-45.99,0.91934,0.024079,0.020539,-0.392132,0.0,0.0,0.0,0,1
2026-06-16 16:25:28.934,139032,L_Hip,0.1077,-0.0735,0.9774,0.19,-0.25,0.77,-27.88,22.05,-34.54,0.990753,-0.033296,-0.063234,-0.115085,0.0,0.0,0.0,0,1
2026-06-16 16:25:28.935,3142055,R_Shank,-0.0876,-1.9956,1.0176,-0.01,-0.88,-1.55,0.0,0.0,0.0,0.91934,0.02411,0.020569,-0.392132,0.0,0.0,0.0,0,1
2026-06-16 16:25:28.937,139052,L_Hip,0.1117,-0.0676,0.9769,0.19,-0.25,0.77,0.0,0.0,0.0,0.990753,-0.033296,-0.063234,-0.115085,0.0,0.0,0.0,0,1
2026-06-16 16:25:28.938,3142075,R_Shank,-0.0925,2.246,1.0018,-0.02,-0.88,-1.56,-14.24,5.85,-47.33,0.91934,0.02411,0.020569,-0.392102,0.0,0.0,0.0,0,1
2026-06-16 16:25:28.940,139072,L_Hip,0.1136,-0.0744,0.989,0.19,-0.26,0.78,-28.56,22.04,-33.95,0.990753,-0.033296,-0.063234,-0.115085,0.0,0.0,0.0,0,1
2026-06-16 16:25:28.941,3142020,R_Ankle,0.0263,-0.0146,1.0139,0.76,-1.74,-0.49,-11.66,12.04,-49.98,0.32844,0.091861,0.007599,0.940001,0.0,0.0,0.0,0,1
2026-06-16 16:25:28.942,139092,L_Hip,0.1102,-0.0681,0.9851,0.19,-0.24,0.77,-30.06,21.53,-35.53,0.990753,-0.033296,-0.063234,-0.115085,0.0,0.0,0.0,0,1
2026-06-16 16:25:28.943,3142040,R_Ankle,0.0145,-0.0131,1.0034,0.76,-1.74,-0.49,-10.65,13.03,-52.45,0.32844,0.091891,0.007599,0.940001,0.0,0.0,0.0,0,1
2026-06-16 16:25:28.945,139040,L_Shank,0.0238,-0.0023,0.9868,1.69,-0.74,-0.39,0.15,9.04,-34.95,0.999298,-0.002228,-0.035585,0.010956,0.0,0.0,0.0,0,1
2026-06-16 16:25:28.946,3142060,R_Ankle,0.0175,-0.0116,1.0105,0.77,-1.75,-0.49,0.0,0.0,0.0,0.32841,0.091891,0.007569,0.940001,0.0,0.0,0.0,0,1
2026-06-16 16:25:28.947,139060,L_Shank,0.0248,-0.0102,0.982,1.7,-0.72,-0.41,0.14,10.05,-34.34,0.999298,-0.002228,-0.035585,0.010956,0.0,0.0,0.0,0,1
2026-06-16 16:25:28.949,3142080,R_Ankle,0.0219,-0.0101,1.0014,0.77,-1.76,-0.48,-10.3,11.74,-50.58,0.32841,0.091891,0.007569,0.940001,0.0,0.0,0.0,0,1
2026-06-16 16:25:28.949,139080,L_Shank,0.0287,-0.0116,0.9854,1.69,-0.74,-0.38,-0.19,10.4,-34.96,0.999298,-0.002228,-0.035554,0.010956,0.0,0.0,0.0,0,1
2026-06-16 16:25:28.951,3142032,R_Hip,0.0358,0.0064,0.9881,0.36,-0.3,9.36,-24.52,13.57,-37.75,0.99707,0.005524,-0.03824,-0.065737,0.0,0.0,0.0,0,1
2026-06-16 16:25:28.952,139100,L_Shank,0.0233,-0.0058,0.9748,1.7,-0.75,-0.39,1.55,10.74,-34.99,0.999298,-0.002228,-0.035554,0.010956,0.0,0.0,0.0,0,1
2026-06-16 16:25:28.953,3142052,R_Hip,0.0402,0.0001,0.9881,0.36,-0.32,9.36,-24.34,13.39,-37.58,0.99707,0.005524,-0.03824,-0.065737,0.0,0.0,0.0,0,1
2026-06-16 16:25:28.955,3142072,R_Hip,0.0382,0.0015,0.976,0.37,-0.3,9.37,-23.25,12.66,-38.94,0.99707,0.005524,-0.03824,-0.065737,0.0,0.0,0.0,0,1
2026-06-16 16:25:28.956,3142092,R_Hip,0.0431,-0.0096,1.0006,0.38,-0.31,9.37,-22.88,13.02,-37.23,0.99707,0.005524,-0.03824,-0.065737,0.0,0.0,0.0,0,1
2026-06-16 16:25:28.958,3142042,R_Ankle,0.0199,-0.0161,1.0058,0.76,-1.74,-0.5,-10.82,11.25,-50.43,0.32841,0.091891,0.007569,0.940001,0.0,0.0,0.0,0,1
2026-06-16 16:25:28.960,3142043,R_Ankle,0.0219,-0.0057,0.9837,0.77,-1.74,-0.49,-12.19,11.25,-51.06,0.32841,0.091891,0.007538,0.940001,0.0,0.0,0.0,0,1
2026-06-16 16:25:28.962,3142063,R_Ankle,0.0179,-0.0161,1.0096,0.78,-1.74,-0.49,0.0,0.0,0.0,0.32841,0.091922,0.007569,0.940001,0.0,0.0,0.0,0,1
2026-06-16 16:25:28.964,3142083,R_Ankle,0.0057,-0.0141,1.0134,0.77,-1.75,-0.5,-10.81,11.57,-50.12,0.32841,0.091922,0.007569,0.940001,0.0,0.0,0.0,0,1
2026-06-16 16:25:28.966,3142060,R_Shank,-0.0768,1.346,1.0023,-0.02,-0.9,-1.57,-13.42,7.0,-47.18,0.91934,0.02411,0.020569,-0.392102,0.0,0.0,0.0,0,1
2026-06-16 16:25:28.968,3142080,R_Shank,-0.094,2.246,0.9994,-0.03,-0.88,-1.56,-14.91,5.86,-47.32,0.91934,0.02414,0.020569,-0.392132,0.0,0.0,0.0,0,1
2026-06-16 16:25:28.970,3142100,R_Shank,-0.094,2.3756,0.9989,-0.03,-0.87,-1.56,-13.89,5.18,-47.34,0.91934,0.02414,0.020539,-0.392132,0.0,0.0,0.0,0,1
2026-06-16 16:25:28.971,3142120,R_Shank,-0.0891,-0.066,0.9994,-0.03,-0.89,-1.56,0.0,0.0,0.0,0.91934,0.02414,0.020539,-0.392132,0.0,0.0,0.0,0,1
2026-06-16 16:25:28.973,3142065,R_Ankle,0.0268,-0.0156,1.0038,0.77,-1.75,-0.49,-10.28,12.36,-49.36,0.32841,0.091922,0.007569,0.940001,0.0,0.0,0.0,0,1
2026-06-16 16:25:28.975,3142085,R_Ankle,0.0214,-0.0116,0.9938,0.77,-1.74,-0.49,-10.82,11.25,-50.43,0.32841,0.091922,0.007569,0.940001,0.0,0.0,0.0,0,1
2026-06-16 16:25:28.977,3142105,R_Ankle,0.014,-0.0181,0.9933,0.77,-1.74,-0.48,0.0,0.0,0.0,0.32841,0.091922,0.007569,0.940001,0.0,0.0,0.0,0,1
2026-06-16 16:25:28.979,3142125,R_Ankle,0.0189,-0.0181,1.0077,0.77,-1.76,-0.51,-11.67,12.05,-50.91,0.32841,0.091922,0.007538,0.940001,0.0,0.0,0.0,0,1
2026-06-16 16:25:28.981,3142078,R_Hip,0.0372,0.0045,0.9751,0.38,-0.29,9.36,-23.25,12.29,-38.94,0.99707,0.005493,-0.03824,-0.065737,0.0,0.0,0.0,0,1
2026-06-16 16:25:28.983,139081,L_Ankle,0.1045,0.0227,0.9803,-0.67,-0.35,-1.91,-18.6,22.73,-28.72,0.98703,0.029511,-0.056337,0.147313,0.0,0.0,0.0,0,1
2026-06-16 16:25:28.983,3142098,R_Hip,0.0431,0.0001,1.001,0.38,-0.3,9.36,-23.61,12.66,-37.58,0.99707,0.005524,-0.03824,-0.065737,0.0,0.0,0.0,0,1
2026-06-16 16:25:28.985,139101,L_Ankle,0.0864,0.0246,0.9842,-0.68,-0.35,-1.93,0.0,0.0,0.0,0.98703,0.029511,-0.056337,0.147313,0.0,0.0,0.0,0,1
2026-06-16 16:25:28.985,3142118,R_Hip,0.0451,0.0079,0.9924,0.38,-0.29,9.37,-23.25,14.48,-37.58,0.99707,0.005524,-0.03824,-0.065737,0.0,0.0,0.0,0,1
2026-06-16 16:25:28.988,3142138,R_Hip,0.0362,-0.0067,0.9905,0.37,-0.29,9.36,-21.79,11.93,-38.6,0.99707,0.005554,-0.03824,-0.065737,0.0,0.0,0.0,0,1
2026-06-16 16:25:28.988,139121,L_Ankle,0.0928,0.0168,0.9976,-0.66,-0.36,-1.91,-18.25,22.73,-28.38,0.98703,0.029511,-0.056307,0.147313,0.0,0.0,0.0,0,1
2026-06-16 16:25:28.990,3142082,R_Shank,-0.0861,-1.0956,0.9994,-0.02,-0.86,-1.57,-14.58,5.21,-46.12,0.91934,0.02411,0.020569,-0.392132,0.0,0.0,0.0,0,1
2026-06-16 16:25:28.991,139141,L_Ankle,0.0898,0.0217,0.9909,-0.66,-0.37,-1.92,-18.28,24.5,-28.71,0.98703,0.029511,-0.056307,0.147313,0.0,0.0,0.0,0,1
2026-06-16 16:25:28.993,3142102,R_Shank,-0.0881,-1.7368,1.0023,-0.01,-0.87,-1.56,-14.41,6.02,-47.17,0.91934,0.02411,0.020569,-0.392132,0.0,0.0,0.0,0,1
2026-06-16 16:25:28.994,139161,L_Ankle,0.0996,0.0139,0.9962,-0.67,-0.36,-1.92,-18.64,23.79,-29.74,0.98703,0.029511,-0.056307,0.147313,0.0,0.0,0.0,0,1
2026-06-16 16:25:28.995,3142122,R_Shank,-0.0822,2.246,0.9999,-0.02,-0.88,-1.56,0.0,0.0,0.0,0.91934,0.02414,0.020569,-0.392132,0.0,0.0,0.0,0,1
2026-06-16 16:25:28.996,139181,L_Ankle,0.0982,0.0227,0.9798,-0.67,-0.35,-1.91,0.0,0.0,0.0,0.98703,0.029511,-0.056337,0.147313,0.0,0.0,0.0,0,1
2026-06-16 16:25:28.998,3142083,R_Shank,-0.0866,-1.7368,0.9907,-0.03,-0.88,-1.55,-13.22,5.5,-47.04,0.91934,0.02414,0.020569,-0.392132,0.0,0.0,0.0,0,1
2026-06-16 16:25:28.999,139201,L_Ankle,0.0884,0.0227,0.976,-0.67,-0.35,-1.93,-17.54,23.43,-27.68,0.98703,0.029542,-0.056307,0.147313,0.0,0.0,0.0,0,1
2026-06-16 16:25:29.001,3142087,R_Ankle,0.0238,-0.0146,0.9904,0.77,-1.74,-0.5,-10.81,11.57,-50.43,0.32841,0.091922,0.007538,0.940001,0.0,0.0,0.0,0,1
2026-06-16 16:25:29.001,139221,L_Ankle,0.0977,0.0251,0.9842,-0.67,-0.35,-1.92,-18.97,24.16,-28.38,0.98703,0.029542,-0.056307,0.147313,0.0,0.0,0.0,0,1
2026-06-16 16:25:29.003,3142107,R_Ankle,0.0135,-0.0067,1.0096,0.77,-1.74,-0.5,-11.67,11.41,-50.9,0.32841,0.091922,0.007538,0.940001,0.0,0.0,0.0,0,1
2026-06-16 16:25:29.004,139082,L_Hip,0.1122,-0.0631,0.9822,0.2,-0.24,0.78,-29.57,21.38,-35.1,0.990753,-0.033296,-0.063234,-0.115085,0.0,0.0,0.0,0,1
2026-06-16 16:25:29.006,3142127,R_Ankle,0.0179,-0.0111,1.0105,0.77,-1.75,-0.49,0.0,0.0,0.0,0.32841,0.091922,0.007538,0.940001,0.0,0.0,0.0,0,1
2026-06-16 16:25:29.008,139102,L_Hip,0.1161,-0.07,0.9861,0.19,-0.24,0.78,0.0,0.0,0.0,0.990753,-0.033296,-0.063204,-0.115085,0.0,0.0,0.0,0,1
2026-06-16 16:25:29.009,3142088,R_Ankle,0.0135,-0.0131,1.0144,0.77,-1.74,-0.51,-9.78,12.85,-50.44,0.32841,0.091922,0.007569,0.940001,0.0,0.0,0.0,0,1
2026-06-16 16:25:29.010,139122,L_Hip,0.1097,-0.072,0.9832,0.19,-0.25,0.77,-28.58,20.43,-34.53,0.990753,-0.033296,-0.063204,-0.115085,0.0,0.0,0.0,0,1
2026-06-16 16:25:29.012,3142100,R_Hip,0.0367,0.002,0.9982,0.37,-0.29,9.36,-21.97,13.94,-38.43,0.99707,0.005524,-0.03824,-0.065737,0.0,0.0,0.0,0,1
2026-06-16 16:25:29.013,139142,L_Hip,0.1087,-0.0631,0.9866,0.19,-0.25,0.77,-28.23,20.76,-35.41,0.990753,-0.033265,-0.063234,-0.115055,0.0,0.0,0.0,0,1
2026-06-16 16:25:29.014,3142120,R_Hip,0.0387,0.0035,0.9847,0.35,-0.31,9.37,-21.6,12.84,-37.4,0.99707,0.005524,-0.038209,-0.065737,0.0,0.0,0.0,0,1
2026-06-16 16:25:29.015,139085,L_Shank,0.0365,-0.0063,0.9806,1.67,-0.74,-0.39,0.49,9.38,-34.34,0.999298,-0.002197,-0.035554,0.010956,0.0,0.0,0.0,0,1
2026-06-16 16:25:29.016,3142140,R_Hip,0.0372,-0.0023,0.9905,0.36,-0.3,9.35,-23.97,12.65,-36.89,0.99707,0.005524,-0.038209,-0.065737,0.0,0.0,0.0,0,1
2026-06-16 16:25:29.017,139105,L_Shank,0.0228,-0.0033,0.9825,1.68,-0.72,-0.41,0.0,0.0,0.0,0.999298,-0.002228,-0.035554,0.010956,0.0,0.0,0.0,0,1
2026-06-16 16:25:29.019,3142160,R_Hip,0.0397,0.001,0.9832,0.35,-0.29,9.37,0.0,0.0,0.0,0.99707,0.005493,-0.038209,-0.065737,0.0,0.0,0.0,0,1
2026-06-16 16:25:29.020,139125,L_Shank,0.0292,0.0039,0.9762,1.7,-0.74,-0.4,0.31,10.21,-33.57,0.999298,-0.002228,-0.035524,0.010956,0.0,0.0,0.0,0,1
2026-06-16 16:25:29.022,3142110,R_Ankle,0.0233,-0.0141,1.0053,0.77,-1.74,-0.5,-12.0,12.68,-50.61,0.328379,0.0918,0.007569,0.940031,0.0,0.0,0.0,0,1
2026-06-16 16:25:29.023,139145,L_Shank,0.0272,-0.0043,0.9858,1.68,-0.74,-0.4,-0.55,10.38,-33.41,0.999298,-0.002197,-0.035554,0.010956,0.0,0.0,0.0,0,1
2026-06-16 16:25:29.025,3142130,R_Ankle,0.017,-0.0106,1.0163,0.76,-1.74,-0.5,0.0,0.0,0.0,0.328379,0.0918,0.007569,0.940031,0.0,0.0,0.0,0,1
2026-06-16 16:25:29.025,139102,L_Ankle,0.1026,0.0134,0.9894,-0.66,-0.35,-1.92,-18.79,23.26,-29.23,0.98703,0.029542,-0.056307,0.147313,0.0,0.0,0.0,0,1
2026-06-16 16:25:29.027,3142150,R_Ankle,0.015,-0.0062,0.9995,0.77,-1.74,-0.49,-10.31,11.1,-50.88,0.328379,0.0918,0.007569,0.940031,0.0,0.0,0.0,0,1
2026-06-16 16:25:29.028,139122,L_Ankle,0.0854,0.0285,0.9846,-0.66,-0.35,-1.93,0.0,0.0,0.0,0.98703,0.029511,-0.056307,0.147313,0.0,0.0,0.0,0,1
2026-06-16 16:25:29.030,139142,L_Ankle,0.0903,0.028,0.9755,-0.66,-0.36,-1.93,-18.27,23.08,-29.39,0.98703,0.029511,-0.056307,0.147313,0.0,0.0,0.0,0,1
2026-06-16 16:25:29.031,3142170,R_Ankle,0.0189,-0.0126,1.0158,0.77,-1.75,-0.51,-10.48,10.62,-50.73,0.328379,0.0918,0.007569,0.940031,0.0,0.0,0.0,0,1
2026-06-16 16:25:29.033,139162,L_Ankle,0.105,0.0173,0.9851,-0.66,-0.35,-1.91,-18.79,23.98,-28.55,0.98703,0.029511,-0.056307,0.147313,0.0,0.0,0.0,0,1
2026-06-16 16:25:29.033,3142122,R_Hip,0.0353,-0.0023,1.0107,0.38,-0.29,9.37,-22.88,14.12,-36.9,0.99707,0.005341,-0.03827,-0.065676,0.0,0.0,0.0,0,1
2026-06-16 16:25:29.035,3142142,R_Hip,0.0417,0.0059,0.9866,0.37,-0.29,9.35,-24.7,13.02,-37.24,0.99707,0.005341,-0.03824,-0.065676,0.0,0.0,0.0,0,1
2026-06-16 16:25:29.036,139107,L_Hip,0.1053,-0.0651,0.989,0.2,-0.25,0.78,-27.73,21.25,-34.11,0.990753,-0.033265,-0.063204,-0.115085,0.0,0.0,0.0,0,1
2026-06-16 16:25:29.038,139127,L_Hip,0.1112,-0.0695,0.9817,0.19,-0.25,0.79,0.0,0.0,0.0,0.990753,-0.033296,-0.063204,-0.115085,0.0,0.0,0.0,0,1
2026-06-16 16:25:29.038,3142162,R_Hip,0.0377,0.0001,0.9909,0.38,-0.29,9.35,-22.52,12.66,-38.6,0.99707,0.005341,-0.03824,-0.065706,0.0,0.0,0.0,0,1
2026-06-16 16:25:29.040,139147,L_Hip,0.1136,-0.0666,0.9875,0.2,-0.25,0.77,-28.92,20.42,-34.81,0.990753,-0.033326,-0.063234,-0.115085,0.0,0.0,0.0,0,1
2026-06-16 16:25:29.041,3142123,R_Hip,0.0362,-0.0008,0.9799,0.37,-0.3,9.38,0.0,0.0,0.0,0.99707,0.005341,-0.03824,-0.065676,0.0,0.0,0.0,0,1
2026-06-16 16:25:29.043,139167,L_Hip,0.1122,-0.0715,0.9924,0.2,-0.24,0.77,-28.56,21.39,-34.82,0.990753,-0.033296,-0.063234,-0.115085,0.0,0.0,0.0,0,1
2026-06-16 16:25:29.044,3142128,R_Shank,-0.0881,-0.1956,1.0071,-0.03,-0.89,-1.55,-12.87,5.49,-47.95,0.91934,0.02414,0.020569,-0.392132,0.0,0.0,0.0,0,1
2026-06-16 16:25:29.045,139130,L_Shank,0.0238,-0.0023,0.9902,1.69,-0.73,-0.4,-0.37,10.57,-34.5,0.999298,-0.002228,-0.035585,0.010956,0.0,0.0,0.0,0,1
2026-06-16 16:25:29.047,139150,L_Shank,0.0208,-0.0019,0.9868,1.69,-0.74,-0.4,0.0,0.0,0.0,0.999298,-0.002197,-0.035554,0.010956,0.0,0.0,0.0,0,1
2026-06-16 16:25:29.047,3142148,R_Shank,-0.092,1.346,1.0148,-0.02,-0.89,-1.56,0.0,0.0,0.0,0.91934,0.02414,0.020569,-0.392132,0.0,0.0,0.0,0,1
2026-06-16 16:25:29.049,139170,L_Shank,0.0233,-0.0131,0.9767,1.69,-0.74,-0.39,0.67,9.89,-34.81,0.999298,-0.002197,-0.035554,0.010956,0.0,0.0,0.0,0,1
2026-06-16 16:25:29.050,3142168,R_Shank,-0.093,-2.7664,1.0061,-0.03,-0.88,-1.55,-14.26,6.52,-46.42,0.91934,0.02411,0.020569,-0.392132,0.0,0.0,0.0,0,1
2026-06-16 16:25:29.052,139190,L_Shank,0.0194,-0.0121,0.9945,1.7,-0.75,-0.39,0.5,10.75,-35.29,0.999298,-0.002197,-0.035554,0.010956,0.0,0.0,0.0,0,1
2026-06-16 16:25:29.053,3142188,R_Shank,-0.0798,0.5752,1.0056,-0.02,-0.88,-1.56,-14.24,5.85,-47.03,0.91934,0.02414,0.020569,-0.392102,0.0,0.0,0.0,0,1
2026-06-16 16:25:29.054,139147,L_Ankle,0.1011,0.0134,0.9784,-0.67,-0.37,-1.92,-17.06,24.66,-28.86,0.98703,0.029542,-0.056307,0.147313,0.0,0.0,0.0,0,1
2026-06-16 16:25:29.056,3142132,R_Ankle,0.0273,-0.0086,0.9952,0.77,-1.75,-0.51,-12.01,10.76,-49.97,0.328379,0.091769,0.007599,0.940031,0.0,0.0,0.0,0,1
2026-06-16 16:25:29.057,139167,L_Ankle,0.0942,0.0192,0.9693,-0.67,-0.37,-1.91,0.0,0.0,0.0,0.98703,0.029542,-0.056307,0.147313,0.0,0.0,0.0,0,1
2026-06-16 16:25:29.058,3142152,R_Ankle,0.0155,-0.0121,1.0081,0.77,-1.74,-0.5,0.0,0.0,0.0,0.328379,0.09183,0.007599,0.940031,0.0,0.0,0.0,0,1
2026-06-16 16:25:29.060,139187,L_Ankle,0.0933,0.0188,0.9755,-0.67,-0.38,-1.9,-18.61,23.8,-28.38,0.98703,0.029572,-0.056276,0.147313,0.0,0.0,0.0,0,1
2026-06-16 16:25:29.061,3142172,R_Ankle,0.0179,-0.0057,1.0172,0.77,-1.74,-0.49,-9.43,12.84,-49.51,0.328379,0.09183,0.007599,0.940031,0.0,0.0,0.0,0,1
2026-06-16 16:25:29.062,139207,L_Ankle,0.0962,0.0168,0.9702,-0.67,-0.36,-1.92,-18.98,25.22,-28.38,0.98703,0.029572,-0.056246,0.147313,0.0,0.0,0.0,0,1
2026-06-16 16:25:29.063,3142133,R_Ankle,0.017,-0.0111,1.0072,0.77,-1.74,-0.51,-10.31,11.74,-50.89,0.328379,0.09183,0.00763,0.940001,0.0,0.0,0.0,0,1
2026-06-16 16:25:29.064,139152,L_Shank,0.0199,-0.0043,0.9863,1.69,-0.72,-0.39,-0.2,10.04,-33.4,0.999298,-0.002197,-0.035585,0.010987,0.0,0.0,0.0,0,1
2026-06-16 16:25:29.066,3142145,R_Hip,0.0323,-0.0018,0.9972,0.37,-0.3,9.36,-24.16,13.57,-38.09,0.99707,0.00531,-0.038209,-0.065676,0.0,0.0,0.0,0,1
2026-06-16 16:25:29.066,139172,L_Shank,0.0262,-0.0067,0.9892,1.69,-0.74,-0.39,0.0,0.0,0.0,0.999298,-0.002228,-0.035585,0.010987,0.0,0.0,0.0,0,1
2026-06-16 16:25:29.069,3142165,R_Hip,0.0298,0.0001,0.9881,0.36,-0.29,9.36,-23.98,12.66,-37.92,0.99707,0.00531,-0.038179,-0.065676,0.0,0.0,0.0,0,1
2026-06-16 16:25:29.069,139192,L_Shank,0.0101,-0.0038,0.982,1.7,-0.74,-0.38,-0.55,10.39,-33.72,0.999298,-0.002228,-0.035585,0.010987,0.0,0.0,0.0,0,1
2026-06-16 16:25:29.071,3142185,R_Hip,0.0343,0.0064,0.9876,0.36,-0.29,9.36,0.0,0.0,0.0,0.99707,0.00531,-0.038148,-0.065676,0.0,0.0,0.0,0,1
2026-06-16 16:25:29.072,139212,L_Shank,0.0204,-0.0058,0.9806,1.68,-0.73,-0.4,-0.36,11.59,-35.13,0.999298,-0.002197,-0.035585,0.010956,0.0,0.0,0.0,0,1
2026-06-16 16:25:29.073,3142205,R_Hip,0.0397,0.0069,0.9876,0.36,-0.29,9.35,-23.24,13.75,-36.9,0.99707,0.00531,-0.038148,-0.065706,0.0,0.0,0.0,0,1
2026-06-16 16:25:29.075,3142151,R_Shank,-0.0896,3.0168,1.0114,-0.03,-0.87,-1.56,-15.43,5.72,-45.66,0.91934,0.024323,0.0206,-0.392132,0.0,0.0,0.0,0,1
2026-06-16 16:25:29.076,3142171,R_Shank,-0.0906,-1.7368,1.0143,-0.03,-0.88,-1.56,-14.91,5.21,-46.42,0.91934,0.024323,0.020569,-0.392132,0.0,0.0,0.0,0,1
2026-06-16 16:25:29.078,3142191,R_Shank,-0.0871,-1.6072,1.0133,-0.03,-0.89,-1.56,0.0,0.0,0.0,0.91934,0.024323,0.0206,-0.392132,0.0,0.0,0.0,0,1
2026-06-16 16:25:29.080,3142211,R_Shank,-0.094,2.3756,0.9936,-0.03,-0.87,-1.55,-14.08,6.34,-47.48,0.91934,0.024293,0.0206,-0.392132,0.0,0.0,0.0,0,1
2026-06-16 16:25:29.081,3142173,R_Shank,-0.0832,0.7048,1.009,-0.01,-0.87,-1.58,-13.92,6.51,-46.72,0.91934,0.024293,0.0206,-0.392132,0.0,0.0,0.0,0,1
2026-06-16 16:25:29.084,3142193,R_Shank,-0.0891,0.7048,1.0167,-0.03,-0.89,-1.57,0.0,0.0,0.0,0.91934,0.024293,0.020631,-0.392132,0.0,0.0,0.0,0,1
2026-06-16 16:25:29.085,139183,L_Hip,0.1146,-0.0744,0.9904,0.19,-0.25,0.77,-29.07,20.58,-35.83,0.990753,-0.033326,-0.063204,-0.115055,0.0,0.0,0.0,0,1
2026-06-16 16:25:29.086,3142213,R_Shank,-0.0945,1.6048,1.0119,-0.03,-0.89,-1.56,-13.89,5.19,-47.04,0.91934,0.024323,0.020631,-0.392163,0.0,0.0,0.0,0,1
2026-06-16 16:25:29.087,139203,L_Hip,0.1082,-0.0735,0.9817,0.19,-0.24,0.77,0.0,0.0,0.0,0.990753,-0.033326,-0.063234,-0.115055,0.0,0.0,0.0,0,1
2026-06-16 16:25:29.089,3142233,R_Shank,-0.092,2.1164,1.009,-0.03,-0.89,-1.56,-13.41,6.01,-46.28,0.91934,0.024293,0.020631,-0.392163,0.0,0.0,0.0,0,1
2026-06-16 16:25:29.090,139223,L_Hip,0.1097,-0.0656,0.9764,0.21,-0.25,0.79,-27.58,19.8,-34.54,0.990753,-0.033326,-0.063234,-0.115055,0.0,0.0,0.0,0,1
2026-06-16 16:25:29.092,3142178,R_Ankle,0.0184,-0.0052,1.0244,0.77,-1.74,-0.51,-10.48,11.58,-50.74,0.328379,0.09183,0.00763,0.940031,0.0,0.0,0.0,0,1
2026-06-16 16:25:29.092,139243,L_Hip,0.1161,-0.0612,0.99,0.19,-0.24,0.77,-29.28,20.09,-33.64,0.990753,-0.033326,-0.063234,-0.115085,0.0,0.0,0.0,0,1
2026-06-16 16:25:29.094,3142198,R_Ankle,0.0248,-0.0126,1.0134,0.77,-1.74,-0.49,0.0,0.0,0.0,0.32841,0.0918,0.00763,0.940001,0.0,0.0,0.0,0,1
2026-06-16 16:25:29.095,139192,L_Ankle,0.0962,0.0197,0.9851,-0.66,-0.37,-1.9,-18.14,23.96,-30.92,0.98703,0.029572,-0.056276,0.147313,0.0,0.0,0.0,0,1
2026-06-16 16:25:29.097,139212,L_Ankle,0.1026,0.0134,0.9789,-0.67,-0.37,-1.9,0.0,0.0,0.0,0.98703,0.029572,-0.056276,0.147313,0.0,0.0,0.0,0,1
2026-06-16 16:25:29.098,3142218,R_Ankle,0.0263,-0.0176,1.0144,0.77,-1.74,-0.48,-9.46,11.91,-51.35,0.328379,0.0918,0.00763,0.940031,0.0,0.0,0.0,0,1
2026-06-16 16:25:29.100,139232,L_Ankle,0.0987,0.0212,0.977,-0.67,-0.37,-1.9,-18.8,23.97,-28.89,0.98703,0.029572,-0.056307,0.147313,0.0,0.0,0.0,0,1
2026-06-16 16:25:29.101,3142238,R_Ankle,0.0184,-0.0076,0.999,0.77,-1.75,-0.49,-11.49,11.88,-50.13,0.328379,0.09183,0.007599,0.940001,0.0,0.0,0.0,0,1
2026-06-16 16:25:29.103,139252,L_Ankle,0.0918,0.0227,1.0082,-0.67,-0.37,-1.91,-18.79,23.26,-29.23,0.98703,0.029603,-0.056307,0.147313,0.0,0.0,0.0,0,1
2026-06-16 16:25:29.104,3142190,R_Hip,0.0313,-0.0003,0.9885,0.38,-0.3,9.35,-22.52,13.39,-37.23,0.99707,0.005341,-0.038179,-0.065706,0.0,0.0,0.0,0,1
2026-06-16 16:25:29.106,3142210,R_Hip,0.0353,-0.0052,0.9972,0.36,-0.3,9.37,-22.7,12.84,-36.72,0.99707,0.00531,-0.038179,-0.065706,0.0,0.0,0.0,0,1
2026-06-16 16:25:29.108,3142230,R_Hip,0.0436,-0.0052,0.9861,0.35,-0.3,9.37,0.0,0.0,0.0,0.99707,0.00528,-0.038179,-0.065706,0.0,0.0,0.0,0,1
2026-06-16 16:25:29.110,139207,L_Hip,0.1122,-0.0636,0.9851,0.2,-0.25,0.78,-28.04,21.89,-35.27,0.990753,-0.033326,-0.063265,-0.115055,0.0,0.0,0.0,0,1
2026-06-16 16:25:29.111,3142250,R_Hip,0.0372,-0.0018,0.9885,0.37,-0.3,9.36,-24.7,13.38,-36.55,0.99707,0.00528,-0.038209,-0.065706,0.0,0.0,0.0,0,1
2026-06-16 16:25:29.114,139227,L_Hip,0.1166,-0.07,0.9919,0.19,-0.25,0.78,0.0,0.0,0.0,0.990753,-0.033326,-0.063234,-0.115055,0.0,0.0,0.0,0,1
2026-06-16 16:25:29.116,3142195,R_Shank,-0.0876,-1.866,0.9951,-0.02,-0.89,-1.56,-13.72,5.02,-46.89,0.919309,0.024323,0.020631,-0.392163,0.0,0.0,0.0,0,1
2026-06-16 16:25:29.117,139247,L_Hip,0.1146,-0.0631,0.9774,0.21,-0.25,0.77,-28.58,20.11,-35.4,0.990753,-0.033296,-0.063234,-0.115085,0.0,0.0,0.0,0,1
2026-06-16 16:25:29.119,3142215,R_Shank,-0.0847,-0.966,0.9989,-0.01,-0.88,-1.55,0.0,0.0,0.0,0.919309,0.024323,0.020631,-0.392163,0.0,0.0,0.0,0,1
2026-06-16 16:25:29.119,139267,L_Hip,0.1156,-0.0651,0.9846,0.2,-0.25,0.77,-29.09,20.9,-34.09,0.990753,-0.033326,-0.063265,-0.115055,0.0,0.0,0.0,0,1
2026-06-16 16:25:29.122,3142235,R_Shank,-0.0945,-1.0956,1.0052,-0.02,-0.88,-1.58,-12.71,5.33,-46.9,0.91934,0.024323,0.020631,-0.392163,0.0,0.0,0.0,0,1
2026-06-16 16:25:29.123,139220,L_Shank,0.0311,-0.0038,0.9705,1.7,-0.74,-0.39,-1.07,9.89,-34.48,0.999298,-0.002197,-0.035615,0.010956,0.0,0.0,0.0,0,1
2026-06-16 16:25:29.125,3142255,R_Shank,-0.0881,-1.2252,1.0114,-0.03,-0.87,-1.57,-14.43,6.69,-46.57,0.919309,0.024354,0.020631,-0.392163,0.0,0.0,0.0,0,1
2026-06-16 16:25:29.126,139240,L_Shank,0.0321,-0.0116,0.9734,1.7,-0.73,-0.41,0.0,0.0,0.0,0.999298,-0.002167,-0.035585,0.010987,0.0,0.0,0.0,0,1
2026-06-16 16:25:29.128,3142200,R_Ankle,0.015,-0.0121,1.0091,0.77,-1.75,-0.5,-11.33,11.41,-50.59,0.328379,0.09183,0.00763,0.940031,0.0,0.0,0.0,0,1
2026-06-16 16:25:29.129,139260,L_Shank,0.0218,-0.0038,0.9858,1.7,-0.74,-0.4,0.15,10.74,-34.97,0.999298,-0.002167,-0.035585,0.010987,0.0,0.0,0.0,0,1
2026-06-16 16:25:29.131,3142220,R_Ankle,0.0228,-0.0166,1.0034,0.76,-1.74,-0.51,0.0,0.0,0.0,0.328379,0.09183,0.00763,0.940031,0.0,0.0,0.0,0,1
2026-06-16 16:25:29.133,139280,L_Shank,0.0223,0.0015,0.983,1.69,-0.74,-0.38,0.83,11.06,-33.43,0.999298,-0.002167,-0.035554,0.010987,0.0,0.0,0.0,0,1
2026-06-16 16:25:29.134,3142240,R_Ankle,0.0224,-0.0146,1.0053,0.76,-1.75,-0.49,-11.67,11.41,-50.9,0.328379,0.09183,0.00763,0.940001,0.0,0.0,0.0,0,1
2026-06-16 16:25:29.136,139232,L_Hip,0.1048,-0.0676,0.9929,0.19,-0.23,0.77,-28.4,20.91,-34.97,0.990753,-0.033326,-0.063234,-0.115055,0.0,0.0,0.0,0,1
2026-06-16 16:25:29.137,3142260,R_Ankle,0.0204,-0.0195,1.0101,0.77,-1.75,-0.5,-10.29,12.04,-49.66,0.328379,0.09183,0.00763,0.940031,0.0,0.0,0.0,0,1
2026-06-16 16:25:29.139,139252,L_Hip,0.1058,-0.0671,0.9793,0.19,-0.24,0.77,-29.25,21.38,-33.94,0.990753,-0.033326,-0.063234,-0.115055,0.0,0.0,0.0,0,1
2026-06-16 16:25:29.140,3142213,R_Hip,0.0387,0.004,0.9919,0.36,-0.31,9.35,-22.7,12.1,-36.72,0.99707,0.005249,-0.038209,-0.065706,0.0,0.0,0.0,0,1
2026-06-16 16:25:29.141,139272,L_Hip,0.1171,-0.0661,0.9948,0.19,-0.25,0.78,0.0,0.0,0.0,0.990753,-0.033357,-0.063234,-0.115055,0.0,0.0,0.0,0,1
2026-06-16 16:25:29.142,3142233,R_Hip,0.0382,0.003,0.9914,0.38,-0.3,9.35,-23.07,13.94,-38.09,0.99707,0.00528,-0.03824,-0.065706,0.0,0.0,0.0,0,1
2026-06-16 16:25:29.145,139292,L_Hip,0.1092,-0.0646,0.9783,0.2,-0.24,0.78,-29.25,21.06,-34.52,0.990753,-0.033326,-0.063204,-0.115055,0.0,0.0,0.0,0,1
2026-06-16 16:25:29.146,3142253,R_Hip,0.0372,-0.0028,0.9948,0.38,-0.3,9.35,0.0,0.0,0.0,0.99707,0.00528,-0.038209,-0.065706,0.0,0.0,0.0,0,1
2026-06-16 16:25:29.149,139237,L_Ankle,0.0898,0.0163,0.9894,-0.67,-0.35,-1.91,-18.28,23.79,-29.39,0.98703,0.029572,-0.056307,0.147313,0.0,0.0,0.0,0,1
2026-06-16 16:25:29.149,3142273,R_Hip,0.0308,0.004,0.9905,0.38,-0.31,9.38,-23.79,13.94,-38.09,0.99707,0.00528,-0.03824,-0.065706,0.0,0.0,0.0,0,1
2026-06-16 16:25:29.152,139257,L_Ankle,0.0898,0.0241,0.977,-0.67,-0.36,-1.91,-18.08,24.32,-27.52,0.98703,0.029572,-0.056337,0.147343,0.0,0.0,0.0,0,1
2026-06-16 16:25:29.153,3142217,R_Shank,-0.0847,0.0636,1.0143,-0.02,-0.88,-1.55,-15.07,5.37,-47.47,0.919309,0.024354,0.020631,-0.392163,0.0,0.0,0.0,0,1
2026-06-16 16:25:29.154,3142237,R_Shank,-0.0945,0.4456,0.9989,-0.03,-0.88,-1.55,0.0,0.0,0.0,0.919309,0.024354,0.0206,-0.392163,0.0,0.0,0.0,0,1
2026-06-16 16:25:29.155,139277,L_Ankle,0.0972,0.0178,0.9755,-0.67,-0.37,-1.93,0.0,0.0,0.0,0.98703,0.029572,-0.056368,0.147343,0.0,0.0,0.0,0,1
2026-06-16 16:25:29.158,139297,L_Ankle,0.0938,0.0183,0.9837,-0.67,-0.37,-1.93,-18.95,23.09,-28.39,0.986999,0.029572,-0.056368,0.147343,0.0,0.0,0.0,0,1
2026-06-16 16:25:29.158,3142257,R_Shank,-0.0901,-1.6072,1.0157,-0.03,-0.89,-1.54,-14.21,4.53,-47.64,0.91934,0.024354,0.0206,-0.392163,0.0,0.0,0.0,0,1
2026-06-16 16:25:29.160,139242,L_Shank,0.0272,-0.0126,0.9863,1.69,-0.74,-0.38,-0.02,10.56,-34.19,0.999298,-0.002197,-0.035554,0.010987,0.0,0.0,0.0,0,1
2026-06-16 16:25:29.161,3142218,R_Shank,-0.0979,-1.9956,1.0095,-0.03,-0.88,-1.56,-13.73,5.68,-46.88,0.91934,0.024354,0.020631,-0.392132,0.0,0.0,0.0,0,1
2026-06-16 16:25:29.164,139262,L_Shank,0.0243,-0.0038,0.9825,1.67,-0.75,-0.39,0.0,0.0,0.0,0.999298,-0.002197,-0.035524,0.010987,0.0,0.0,0.0,0,1
2026-06-16 16:25:29.164,3142222,R_Ankle,0.014,-0.0106,1.0072,0.76,-1.74,-0.49,-11.66,12.36,-50.6,0.328379,0.09183,0.007599,0.940031,0.0,0.0,0.0,0,1
2026-06-16 16:25:29.166,3142242,R_Ankle,0.0165,-0.0047,1.0105,0.77,-1.76,-0.49,0.0,0.0,0.0,0.328379,0.09183,0.00763,0.940031,0.0,0.0,0.0,0,1
2026-06-16 16:25:29.166,139282,L_Shank,0.0257,-0.0082,0.9743,1.68,-0.74,-0.4,-1.42,10.91,-34.49,0.999298,-0.002197,-0.035524,0.010987,0.0,0.0,0.0,0,1
2026-06-16 16:25:29.169,3142262,R_Ankle,0.0175,-0.0156,1.0235,0.78,-1.76,-0.49,-11.16,11.89,-50.75,0.328379,0.09183,0.00763,0.940031,0.0,0.0,0.0,0,1
2026-06-16 16:25:29.170,139302,L_Shank,0.0252,-0.0136,0.9777,1.68,-0.74,-0.39,0.84,10.05,-33.72,0.999298,-0.002197,-0.035493,0.010987,0.0,0.0,0.0,0,1
2026-06-16 16:25:29.172,3142223,R_Ankle,0.0228,-0.0067,1.0019,0.75,-1.75,-0.51,-11.16,10.93,-50.43,0.328379,0.09183,0.007599,0.940031,0.0,0.0,0.0,0,1
2026-06-16 16:25:29.172,139265,L_Shank,0.0179,-0.0126,0.9791,1.67,-0.74,-0.38,-0.03,10.55,-33.57,0.999298,-0.002197,-0.035463,0.010987,0.0,0.0,0.0,0,1
2026-06-16 16:25:29.175,3142235,R_Hip,0.0367,0.0064,0.9924,0.38,-0.29,9.36,-23.61,11.93,-38.26,0.99707,0.00528,-0.038209,-0.065706,0.0,0.0,0.0,0,1
2026-06-16 16:25:29.175,139285,L_Shank,0.0184,-0.0043,0.9801,1.69,-0.74,-0.38,0.0,0.0,0.0,0.999298,-0.002167,-0.035493,0.010987,0.0,0.0,0.0,0,1
2026-06-16 16:25:29.178,3142255,R_Hip,0.0407,-0.0018,0.9996,0.38,-0.29,9.35,-23.06,12.47,-37.4,0.99707,0.005341,-0.03824,-0.065706,0.0,0.0,0.0,0,1
2026-06-16 16:25:29.179,139305,L_Shank,0.0223,0.0015,0.981,1.7,-0.74,-0.39,0.15,10.74,-34.97,0.999298,-0.002167,-0.035493,0.010987,0.0,0.0,0.0,0,1
2026-06-16 16:25:29.182,3142275,R_Hip,0.0353,0.0108,0.9799,0.38,-0.31,9.36,-22.88,13.75,-37.92,0.99707,0.005341,-0.038209,-0.065706,0.0,0.0,0.0,0,1
2026-06-16 16:25:29.182,139325,L_Shank,0.0223,-0.0151,0.9887,1.69,-0.74,-0.4,-0.72,10.57,-34.5,0.999298,-0.002167,-0.035493,0.010987,0.0,0.0,0.0,0,1
2026-06-16 16:25:29.184,3142295,R_Hip,0.0362,-0.0101,0.9789,0.38,-0.3,9.37,0.0,0.0,0.0,0.99707,0.005341,-0.038209,-0.065706,0.0,0.0,0.0,0,1
2026-06-16 16:25:29.185,139282,L_Hip,0.1126,-0.071,0.9933,0.19,-0.25,0.78,-28.43,19.94,-34.09,0.990753,-0.033357,-0.063234,-0.115055,0.0,0.0,0.0,0,1
2026-06-16 16:25:29.187,3142240,R_Shank,-0.0852,-3.1484,1.0028,-0.01,-0.87,-1.57,-13.89,4.86,-46.74,0.91934,0.024354,0.020631,-0.392132,0.0,0.0,0.0,0,1
2026-06-16 16:25:29.189,139302,L_Hip,0.1136,-0.0661,0.9735,0.19,-0.25,0.77,-29.43,20.57,-34.08,0.990753,-0.033326,-0.063234,-0.115055,0.0,0.0,0.0,0,1
2026-06-16 16:25:29.190,3142260,R_Shank,-0.0886,-2.7664,1.0133,-0.02,-0.87,-1.57,0.0,0.0,0.0,0.91934,0.024384,0.020631,-0.392132,0.0,0.0,0.0,0,1
2026-06-16 16:25:29.191,139322,L_Hip,0.1073,-0.0602,0.9764,0.19,-0.24,0.78,0.0,0.0,0.0,0.990753,-0.033326,-0.063265,-0.115055,0.0,0.0,0.0,0,1
2026-06-16 16:25:29.193,3142280,R_Shank,-0.0861,-2.6368,1.0128,0.0,-0.88,-1.56,-15.42,6.37,-47.46,0.91934,0.024384,0.020631,-0.392163,0.0,0.0,0.0,0,1
2026-06-16 16:25:29.194,139342,L_Hip,0.1151,-0.072,0.9866,0.19,-0.24,0.78,-26.72,20.3,-35.28,0.990753,-0.033326,-0.063265,-0.115055,0.0,0.0,0.0,0,1
2026-06-16 16:25:29.196,3142300,R_Shank,-0.0886,-2.6368,0.9922,-0.04,-0.88,-1.57,-13.9,5.52,-47.03,0.91934,0.024415,0.0206,-0.392132,0.0,0.0,0.0,0,1
2026-06-16 16:25:29.197,3142245,R_Ankle,0.0214,-0.0096,0.9866,0.77,-1.75,-0.49,-10.32,11.75,-52.12,0.328379,0.091861,0.007599,0.940031,0.0,0.0,0.0,0,1
2026-06-16 16:25:29.199,3142265,R_Ankle,0.0204,-0.0032,0.9995,0.75,-1.74,-0.51,0.0,0.0,0.0,0.328379,0.091861,0.007599,0.940001,0.0,0.0,0.0,0,1
2026-06-16 16:25:29.201,3142285,R_Ankle,0.0199,-0.019,1.0058,0.76,-1.74,-0.51,-12.35,10.44,-49.97,0.328379,0.091861,0.007599,0.940001,0.0,0.0,0.0,0,1
2026-06-16 16:25:29.202,3142305,R_Ankle,0.014,-0.0141,1.0034,0.76,-1.75,-0.48,-10.13,11.89,-50.43,0.328379,0.091861,0.007599,0.940031,0.0,0.0,0.0,0,1
2026-06-16 16:25:29.204,3142263,R_Shank,-0.0871,-1.0956,1.0023,-0.02,-0.87,-1.57,-14.88,4.54,-47.93,0.91934,0.024384,0.0206,-0.392163,0.0,0.0,0.0,0,1
2026-06-16 16:25:29.207,3142283,R_Shank,-0.0906,-1.866,1.0071,-0.02,-0.87,-1.56,0.0,0.0,0.0,0.91934,0.024384,0.020631,-0.392163,0.0,0.0,0.0,0,1
2026-06-16 16:25:29.208,139306,L_Ankle,0.0972,0.03,0.9866,-0.66,-0.34,-1.92,-18.45,24.68,-28.54,0.986999,0.029572,-0.056368,0.147343,0.0,0.0,0.0,0,1
2026-06-16 16:25:29.210,3142303,R_Shank,-0.0891,1.7344,1.0148,-0.05,-0.9,-1.58,-14.76,6.36,-46.87,0.919309,0.024384,0.020631,-0.392163,0.0,0.0,0.0,0,1
2026-06-16 16:25:29.211,139326,L_Ankle,0.0991,0.0173,0.9837,-0.67,-0.36,-1.93,-19.49,23.99,-28.56,0.98703,0.029542,-0.056368,0.147343,0.0,0.0,0.0,0,1
2026-06-16 16:25:29.213,3142323,R_Shank,-0.0901,2.8872,1.0076,-0.03,-0.88,-1.56,0.0,0.0,0.0,0.919309,0.024384,0.020631,-0.392163,0.0,0.0,0.0,0,1
2026-06-16 16:25:29.214,139346,L_Ankle,0.0918,0.0207,0.9957,-0.66,-0.36,-1.93,0.0,0.0,0.0,0.98703,0.029542,-0.056368,0.147343,0.0,0.0,0.0,0,1
2026-06-16 16:25:29.216,3142280,R_Hip,0.0441,0.002,0.9958,0.38,-0.29,9.35,-23.06,13.57,-37.07,0.99707,0.005341,-0.038209,-0.065706,0.0,0.0,0.0,0,1
2026-06-16 16:25:29.217,139366,L_Ankle,0.0874,0.0241,0.9928,-0.66,-0.35,-1.92,-19.19,25.75,-29.57,0.98703,0.029542,-0.056368,0.147343,0.0,0.0,0.0,0,1
2026-06-16 16:25:29.219,3142300,R_Hip,0.0362,-0.0028,0.9789,0.37,-0.31,9.37,-23.43,13.2,-37.41,0.99707,0.005341,-0.03824,-0.065706,0.0,0.0,0.0,0,1
2026-06-16 16:25:29.221,139307,L_Hip,0.1097,-0.0666,0.9846,0.19,-0.25,0.77,-27.72,21.25,-34.98,0.990753,-0.033326,-0.063234,-0.115055,0.0,0.0,0.0,0,1
2026-06-16 16:25:29.221,3142320,R_Hip,0.0362,-0.0052,1.0001,0.36,-0.3,9.37,0.0,0.0,0.0,0.99707,0.00531,-0.03824,-0.065706,0.0,0.0,0.0,0,1
2026-06-16 16:25:29.224,3142340,R_Hip,0.0358,0.0049,0.9856,0.37,-0.31,9.35,-21.06,13.02,-38.26,0.99707,0.00528,-0.03824,-0.065706,0.0,0.0,0.0,0,1
2026-06-16 16:25:29.224,139327,L_Hip,0.1087,-0.0685,0.9972,0.19,-0.23,0.77,-29.4,20.58,-35.82,0.990753,-0.033326,-0.063234,-0.115055,0.0,0.0,0.0,0,1
2026-06-16 16:25:29.226,3142302,R_Hip,0.0362,0.0035,0.9914,0.36,-0.29,9.36,-23.61,14.12,-36.9,0.99707,0.00528,-0.038209,-0.065706,0.0,0.0,0.0,0,1
2026-06-16 16:25:29.227,139347,L_Hip,0.1019,-0.0671,0.9837,0.19,-0.25,0.78,0.0,0.0,0.0,0.990753,-0.033296,-0.063234,-0.115055,0.0,0.0,0.0,0,1
2026-06-16 16:25:29.229,3142322,R_Hip,0.0382,0.0069,0.9832,0.37,-0.31,9.36,-24.15,12.47,-36.38,0.99707,0.00528,-0.038179,-0.065706,0.0,0.0,0.0,0,1
2026-06-16 16:25:29.230,139367,L_Hip,0.1136,-0.0641,0.9929,0.2,-0.25,0.79,-28.53,21.4,-36.57,0.990753,-0.033296,-0.063234,-0.115055,0.0,0.0,0.0,0,1
2026-06-16 16:25:29.232,3142342,R_Hip,0.0372,0.0059,0.9712,0.36,-0.3,9.37,0.0,0.0,0.0,0.99707,0.00528,-0.038179,-0.065706,0.0,0.0,0.0,0,1
2026-06-16 16:25:29.233,139310,L_Shank,0.0252,-0.0087,0.9887,1.7,-0.72,-0.38,0.49,9.03,-33.71,0.999298,-0.002136,-0.035493,0.010987,0.0,0.0,0.0,0,1
2026-06-16 16:25:29.234,3142303,R_Hip,0.0377,0.0035,0.9967,0.38,-0.3,9.37,-22.7,13.2,-36.38,0.99707,0.00531,-0.038179,-0.065706,0.0,0.0,0.0,0,1
2026-06-16 16:25:29.235,139330,L_Shank,0.0282,-0.0004,0.9758,1.7,-0.74,-0.4,0.0,0.0,0.0,0.999298,-0.002136,-0.035493,0.010987,0.0,0.0,0.0,0,1
2026-06-16 16:25:29.237,3142307,R_Shank,-0.0906,1.2164,0.9893,-0.01,-0.9,-1.57,-14.72,5.03,-47.48,0.919309,0.024384,0.020661,-0.392163,0.0,0.0,0.0,0,1
2026-06-16 16:25:29.238,139350,L_Shank,0.0238,-0.0004,0.983,1.67,-0.74,-0.39,0.49,10.05,-34.34,0.999298,-0.002167,-0.035493,0.010987,0.0,0.0,0.0,0,1
2026-06-16 16:25:29.240,3142327,R_Shank,-0.0901,-1.6072,1.0037,-0.01,-0.88,-1.57,-13.38,5.01,-46.89,0.919309,0.024384,0.020631,-0.392163,0.0,0.0,0.0,0,1
2026-06-16 16:25:29.240,139370,L_Shank,0.0199,-0.0048,0.9806,1.7,-0.74,-0.38,0.67,11.25,-34.52,0.999298,-0.002167,-0.035493,0.010987,0.0,0.0,0.0,0,1
2026-06-16 16:25:29.243,3142347,R_Shank,-0.0871,2.246,1.0028,-0.02,-0.89,-1.56,0.0,0.0,0.0,0.919309,0.024384,0.020631,-0.392163,0.0,0.0,0.0,0,1
2026-06-16 16:25:29.244,139327,L_Ankle,0.0987,0.0188,1.001,-0.66,-0.36,-1.91,-18.1,23.61,-29.22,0.98703,0.029542,-0.056368,0.147343,0.0,0.0,0.0,0,1
2026-06-16 16:25:29.245,3142308,R_Shank,-0.095,0.7048,1.0109,-0.03,-0.87,-1.56,-13.91,5.52,-46.13,0.919309,0.024384,0.020631,-0.392163,0.0,0.0,0.0,0,1
2026-06-16 16:25:29.246,139347,L_Ankle,0.0938,0.0153,0.9957,-0.67,-0.35,-1.91,-19.48,23.28,-28.57,0.98703,0.029511,-0.056337,0.147343,0.0,0.0,0.0,0,1
2026-06-16 16:25:29.248,3142312,R_Ankle,0.0253,-0.0126,1.0101,0.76,-1.75,-0.5,-10.47,11.9,-50.74,0.328379,0.09183,0.007599,0.940031,0.0,0.0,0.0,0,1
2026-06-16 16:25:29.249,139367,L_Ankle,0.0908,0.0236,0.9885,-0.67,-0.35,-1.92,0.0,0.0,0.0,0.98703,0.029542,-0.056368,0.147343,0.0,0.0,0.0,0,1
2026-06-16 16:25:29.251,3142332,R_Ankle,0.0204,-0.0116,0.9909,0.76,-1.76,-0.48,0.0,0.0,0.0,0.328379,0.09183,0.007599,0.940031,0.0,0.0,0.0,0,1
2026-06-16 16:25:29.252,139387,L_Ankle,0.0933,0.0139,0.9885,-0.66,-0.35,-1.91,-18.45,23.97,-28.88,0.98703,0.029542,-0.056368,0.147343,0.0,0.0,0.0,0,1
2026-06-16 16:25:29.254,3142352,R_Ankle,0.016,-0.0121,1.0081,0.75,-1.75,-0.5,-10.3,12.05,-50.28,0.328379,0.091861,0.007569,0.940031,0.0,0.0,0.0,0,1
2026-06-16 16:25:29.256,139350,L_Ankle,0.0933,0.0246,0.9962,-0.67,-0.38,-1.9,-20.54,24.0,-28.24,0.98703,0.029542,-0.056368,0.147343,0.0,0.0,0.0,0,1
2026-06-16 16:25:29.257,3142313,R_Ankle,0.0111,-0.0181,1.0053,0.78,-1.74,-0.49,-10.81,11.89,-50.74,0.328379,0.091861,0.007599,0.940031,0.0,0.0,0.0,0,1
2026-06-16 16:25:29.258,139370,L_Ankle,0.0844,0.0178,0.9861,-0.67,-0.37,-1.91,-17.76,23.96,-29.55,0.98703,0.029542,-0.056368,0.147343,0.0,0.0,0.0,0,1
2026-06-16 16:25:29.260,3142330,R_Shank,-0.0984,0.4456,1.0028,-0.02,-0.88,-1.57,-14.24,4.88,-45.23,0.919309,0.024384,0.020631,-0.392163,0.0,0.0,0.0,0,1
2026-06-16 16:25:29.261,139390,L_Ankle,0.0933,0.0168,0.9851,-0.66,-0.35,-1.91,0.0,0.0,0.0,0.98703,0.029542,-0.056368,0.147343,0.0,0.0,0.0,0,1
2026-06-16 16:25:29.262,3142350,R_Shank,-0.0891,1.2164,1.0028,-0.03,-0.88,-1.57,-14.92,5.55,-45.82,0.919309,0.024384,0.020692,-0.392163,0.0,0.0,0.0,0,1
2026-06-16 16:25:29.264,139410,L_Ankle,0.0947,0.0173,0.9986,-0.66,-0.36,-1.93,-19.13,24.34,-27.54,0.98703,0.029542,-0.056368,0.147343,0.0,0.0,0.0,0,1
2026-06-16 16:25:29.265,3142370,R_Shank,-0.0915,-2.6368,1.0114,-0.04,-0.88,-1.56,0.0,0.0,0.0,0.919309,0.024415,0.020692,-0.392163,0.0,0.0,0.0,0,1
2026-06-16 16:25:29.268,139355,L_Shank,0.0272,-0.0092,0.9878,1.7,-0.74,-0.41,-1.24,11.42,-34.97,0.999298,-0.002167,-0.035493,0.010987,0.0,0.0,0.0,0,1
2026-06-16 16:25:29.269,3142390,R_Shank,-0.0847,-2.3776,1.0148,-0.02,-0.9,-1.56,-13.53,3.86,-46.45,0.919309,0.024415,0.020692,-0.392163,0.0,0.0,0.0,0,1
2026-06-16 16:25:29.270,139375,L_Shank,0.0223,-0.0077,0.9878,1.69,-0.74,-0.4,0.67,10.9,-34.2,0.999298,-0.002197,-0.035493,0.011017,0.0,0.0,0.0,0,1
2026-06-16 16:25:29.271,3142347,R_Hip,0.0422,0.002,0.9799,0.38,-0.3,9.37,-23.79,12.47,-36.72,0.99707,0.005341,-0.038179,-0.065706,0.0,0.0,0.0,0,1
2026-06-16 16:25:29.273,139395,L_Shank,0.0292,-0.0097,0.9906,1.68,-0.74,-0.41,0.0,0.0,0.0,0.999298,-0.002197,-0.035463,0.011017,0.0,0.0,0.0,0,1
2026-06-16 16:25:29.274,3142348,R_Hip,0.0362,-0.0057,0.9982,0.38,-0.29,9.37,-22.88,14.11,-36.21,0.99707,0.005341,-0.038179,-0.065706,0.0,0.0,0.0,0,1
2026-06-16 16:25:29.276,139415,L_Shank,0.0252,-0.0136,0.9887,1.68,-0.74,-0.41,0.49,11.07,-34.36,0.999298,-0.002197,-0.035463,0.011017,0.0,0.0,0.0,0,1
2026-06-16 16:25:29.276,3142368,R_Hip,0.0372,-0.0003,0.9823,0.37,-0.29,9.37,0.0,0.0,0.0,0.99707,0.00531,-0.038148,-0.065706,0.0,0.0,0.0,0,1
2026-06-16 16:25:29.278,3142388,R_Hip,0.0362,0.0049,0.9693,0.38,-0.29,9.36,-23.07,13.57,-38.43,0.99707,0.00531,-0.038148,-0.065706,0.0,0.0,0.0,0,1
2026-06-16 16:25:29.280,3142370,R_Hip,0.0491,-0.0037,0.9982,0.38,-0.3,9.37,-23.06,12.84,-38.09,0.99707,0.00531,-0.038118,-0.065706,0.0,0.0,0.0,0,1
2026-06-16 16:25:29.282,3142390,R_Hip,0.0412,-0.0023,0.9823,0.38,-0.31,9.35,-23.97,11.56,-37.23,0.99707,0.00531,-0.038148,-0.065676,0.0,0.0,0.0,0,1
2026-06-16 16:25:29.284,3142410,R_Hip,0.0471,0.0079,0.9861,0.37,-0.31,9.35,0.0,0.0,0.0,0.99707,0.00531,-0.038148,-0.065706,0.0,0.0,0.0,0,1
2026-06-16 16:25:29.286,139383,L_Hip,0.1141,-0.0685,0.9856,0.19,-0.23,0.78,-29.58,21.05,-34.81,0.990753,-0.033296,-0.063234,-0.115055,0.0,0.0,0.0,0,1
2026-06-16 16:25:29.287,3142430,R_Hip,0.0328,0.0001,0.9929,0.38,-0.3,9.37,-23.25,13.39,-37.24,0.99707,0.00531,-0.038148,-0.065706,0.0,0.0,0.0,0,1
2026-06-16 16:25:29.288,139403,L_Hip,0.1063,-0.0631,0.9803,0.19,-0.24,0.79,-28.22,21.4,-35.12,0.990753,-0.033296,-0.063234,-0.115055,0.0,0.0,0.0,0,1
2026-06-16 16:25:29.290,3142403,R_Ankle,0.0204,-0.0151,0.9952,0.77,-1.75,-0.48,-12.17,11.88,-50.45,0.328379,0.09183,0.007599,0.940031,0.0,0.0,0.0,0,1
2026-06-16 16:25:29.292,139423,L_Hip,0.1068,-0.07,0.9856,0.19,-0.25,0.78,0.0,0.0,0.0,0.990753,-0.033296,-0.063234,-0.115055,0.0,0.0,0.0,0,1
2026-06-16 16:25:29.293,3142423,R_Ankle,0.0233,-0.0116,1.0096,0.76,-1.75,-0.5,0.0,0.0,0.0,0.328379,0.091861,0.007599,0.940031,0.0,0.0,0.0,0,1
2026-06-16 16:25:29.294,139443,L_Hip,0.1107,-0.0651,0.9837,0.19,-0.25,0.79,-28.23,21.08,-34.83,0.990753,-0.033296,-0.063234,-0.115055,0.0,0.0,0.0,0,1
2026-06-16 16:25:29.296,3142443,R_Ankle,0.015,-0.0166,0.9914,0.77,-1.74,-0.49,-10.63,13.0,-49.98,0.328379,0.091891,0.007599,0.940031,0.0,0.0,0.0,0,1
2026-06-16 16:25:29.298,139395,L_Ankle,0.0947,0.0163,0.987,-0.67,-0.35,-1.92,-18.27,24.85,-28.03,0.98703,0.029511,-0.056337,0.147374,0.0,0.0,0.0,0,1
2026-06-16 16:25:29.299,3142463,R_Ankle,0.0219,-0.0111,1.0139,0.77,-1.74,-0.48,-11.32,11.09,-49.97,0.328349,0.091891,0.007599,0.940031,0.0,0.0,0.0,0,1
2026-06-16 16:25:29.301,139415,L_Ankle,0.0962,0.0173,0.9678,-0.67,-0.36,-1.92,-18.78,23.98,-27.87,0.98703,0.029511,-0.056337,0.147374,0.0,0.0,0.0,0,1
2026-06-16 16:25:29.304,139435,L_Ankle,0.0928,0.0139,0.9822,-0.67,-0.36,-1.92,-19.49,23.99,-28.56,0.98703,0.029511,-0.056307,0.147374,0.0,0.0,0.0,0,1
2026-06-16 16:25:29.305,3142425,R_Ankle,0.0189,-0.0176,1.0072,0.76,-1.74,-0.5,-11.5,11.57,-51.06,0.328379,0.091891,0.007599,0.940031,0.0,0.0,0.0,0,1
2026-06-16 16:25:29.306,139455,L_Ankle,0.0982,0.0236,0.9942,-0.66,-0.35,-1.92,0.0,0.0,0.0,0.98703,0.029511,-0.056307,0.147374,0.0,0.0,0.0,0,1
2026-06-16 16:25:29.307,3142445,R_Ankle,0.0116,-0.0215,1.0024,0.77,-1.75,-0.5,0.0,0.0,0.0,0.328379,0.091891,0.007599,0.940031,0.0,0.0,0.0,0,1
2026-06-16 16:25:29.310,139407,L_Hip,0.1166,-0.0681,0.9754,0.19,-0.24,0.77,-27.88,21.73,-34.83,0.990753,-0.033296,-0.063234,-0.115055,0.0,0.0,0.0,0,1
2026-06-16 16:25:29.311,3142465,R_Ankle,0.0194,-0.0126,1.0101,0.77,-1.74,-0.51,-9.8,11.27,-51.03,0.328379,0.091861,0.007599,0.940031,0.0,0.0,0.0,0,1
2026-06-16 16:25:29.313,3142485,R_Ankle,0.013,-0.0076,1.0058,0.77,-1.76,-0.49,-12.0,11.71,-49.68,0.328379,0.091891,0.007599,0.940031,0.0,0.0,0.0,0,1
2026-06-16 16:25:29.313,139427,L_Hip,0.1156,-0.0636,0.9856,0.19,-0.25,0.77,-28.72,20.91,-35.84,0.990753,-0.033296,-0.063234,-0.115085,0.0,0.0,0.0,0,1
2026-06-16 16:25:29.317,139447,L_Hip,0.1112,-0.0622,0.9769,0.19,-0.24,0.77,-27.03,21.91,-34.99,0.990753,-0.033296,-0.063204,-0.115055,0.0,0.0,0.0,0,1
2026-06-16 16:25:29.318,139467,L_Hip,0.1185,-0.0695,0.9822,0.19,-0.25,0.77,0.0,0.0,0.0,0.990753,-0.033265,-0.063204,-0.115055,0.0,0.0,0.0,0,1
2026-06-16 16:25:29.322,3142442,R_Shank,-0.0896,0.4456,0.9989,-0.02,-0.86,-1.56,-13.73,5.35,-46.58,0.919309,0.024384,0.020661,-0.392163,0.0,0.0,0.0,0,1
2026-06-16 16:25:29.323,139421,L_Shank,0.0335,-0.0102,0.9863,1.68,-0.75,-0.38,0.66,11.23,-33.58,0.999298,-0.002197,-0.035463,0.011017,0.0,0.0,0.0,0,1
2026-06-16 16:25:29.325,3142462,R_Shank,-0.0847,2.1164,1.0018,-0.04,-0.87,-1.56,-14.41,5.37,-46.28,0.919309,0.024415,0.020692,-0.392163,0.0,0.0,0.0,0,1
2026-06-16 16:25:29.327,139441,L_Shank,0.0248,-0.0141,0.9786,1.69,-0.74,-0.38,0.84,10.73,-34.36,0.999298,-0.002228,-0.035463,0.011017,0.0,0.0,0.0,0,1
2026-06-16 16:25:29.329,3142443,R_Shank,-0.0891,1.346,1.0023,-0.03,-0.88,-1.57,0.0,0.0,0.0,0.919309,0.024415,0.020692,-0.392163,0.0,0.0,0.0,0,1
2026-06-16 16:25:29.329,139422,L_Shank,0.0243,-0.0048,0.9849,1.69,-0.74,-0.4,0.0,0.0,0.0,0.999298,-0.002228,-0.035463,0.011017,0.0,0.0,0.0,0,1
2026-06-16 16:25:29.331,3142463,R_Shank,-0.0901,0.4456,1.0023,-0.01,-0.87,-1.56,-14.25,5.2,-45.52,0.919309,0.024415,0.020692,-0.392163,0.0,0.0,0.0,0,1
2026-06-16 16:25:29.332,139442,L_Shank,0.014,-0.0072,0.9849,1.68,-0.74,-0.39,0.14,10.73,-34.35,0.999298,-0.002228,-0.035463,0.011017,0.0,0.0,0.0,0,1
2026-06-16 16:25:29.334,3142448,R_Ankle,0.0184,-0.0057,0.9986,0.77,-1.75,-0.51,-10.97,12.67,-49.68,0.328379,0.091891,0.007599,0.940031,0.0,0.0,0.0,0,1
2026-06-16 16:25:29.336,3142468,R_Ankle,0.017,-0.0131,1.011,0.77,-1.76,-0.51,-11.68,11.74,-51.52,0.328379,0.091891,0.007599,0.940001,0.0,0.0,0.0,0,1
2026-06-16 16:25:29.337,3142488,R_Ankle,0.0214,-0.0156,1.011,0.77,-1.74,-0.48,0.0,0.0,0.0,0.328379,0.091891,0.00763,0.940001,0.0,0.0,0.0,0,1
2026-06-16 16:25:29.341,3142508,R_Ankle,0.0233,-0.0106,1.0091,0.77,-1.74,-0.51,-10.31,11.42,-50.58,0.328379,0.091891,0.00763,0.940001,0.0,0.0,0.0,0,1
2026-06-16 16:25:29.342,139440,L_Ankle,0.0972,0.0212,0.9966,-0.67,-0.36,-1.93,-18.8,25.04,-28.21,0.98703,0.029511,-0.056276,0.147374,0.0,0.0,0.0,0,1
2026-06-16 16:25:29.343,3142460,R_Hip,0.0402,0.003,0.9808,0.37,-0.3,9.36,-24.15,13.93,-36.04,0.99707,0.00531,-0.038118,-0.065676,0.0,0.0,0.0,0,1
2026-06-16 16:25:29.346,139460,L_Ankle,0.0923,0.0158,0.9846,-0.67,-0.37,-1.92,-19.3,23.1,-28.05,0.98703,0.029511,-0.056307,0.147374,0.0,0.0,0.0,0,1
2026-06-16 16:25:29.347,3142480,R_Hip,0.0348,-0.0028,0.9967,0.36,-0.29,9.35,-23.25,11.92,-37.57,0.99707,0.00531,-0.038148,-0.065676,0.0,0.0,0.0,0,1
2026-06-16 16:25:29.348,139480,L_Ankle,0.1031,0.0192,0.9698,-0.67,-0.36,-1.93,-18.08,23.26,-28.54,0.98703,0.029511,-0.056307,0.147374,0.0,0.0,0.0,0,1
2026-06-16 16:25:29.349,3142500,R_Hip,0.0402,0.0045,0.9972,0.36,-0.29,9.35,0.0,0.0,0.0,0.99707,0.00528,-0.038118,-0.065706,0.0,0.0,0.0,0,1
2026-06-16 16:25:29.350,139500,L_Ankle,0.0957,0.0261,0.9837,-0.66,-0.35,-1.92,0.0,0.0,0.0,0.98703,0.029481,-0.056307,0.147374,0.0,0.0,0.0,0,1
2026-06-16 16:25:29.352,3142520,R_Hip,0.0431,0.002,0.9842,0.35,-0.29,9.36,-23.98,14.12,-37.58,0.99707,0.00528,-0.038118,-0.065706,0.0,0.0,0.0,0,1
2026-06-16 16:25:29.354,139445,L_Shank,0.0218,-0.0121,0.9844,1.68,-0.74,-0.39,-0.37,11.24,-34.51,0.999298,-0.002197,-0.035432,0.011017,0.0,0.0,0.0,0,1
2026-06-16 16:25:29.355,3142465,R_Shank,-0.0876,-0.1956,1.0176,-0.03,-0.88,-1.55,-14.56,5.2,-47.33,0.919309,0.024445,0.020661,-0.392163,0.0,0.0,0.0,0,1
2026-06-16 16:25:29.356,139465,L_Shank,0.0238,-0.0019,0.9873,1.69,-0.74,-0.38,1.02,9.88,-34.19,0.999298,-0.002197,-0.035463,0.011017,0.0,0.0,0.0,0,1
2026-06-16 16:25:29.358,3142485,R_Shank,-0.096,2.246,1.0133,-0.02,-0.88,-1.56,-13.73,5.68,-47.18,0.919309,0.024445,0.020692,-0.392163,0.0,0.0,0.0,0,1
2026-06-16 16:25:29.360,139485,L_Shank,0.014,-0.0067,0.9858,1.69,-0.72,-0.41,0.0,0.0,0.0,0.999298,-0.002197,-0.035463,0.011017,0.0,0.0,0.0,0,1
2026-06-16 16:25:29.361,3142505,R_Shank,-0.0842,-1.866,0.997,-0.02,-0.87,-1.57,0.0,0.0,0.0,0.919309,0.024445,0.020692,-0.392163,0.0,0.0,0.0,0,1
2026-06-16 16:25:29.362,139505,L_Shank,0.0223,-0.0087,0.9743,1.69,-0.75,-0.39,-1.08,10.89,-33.56,0.999298,-0.002197,-0.035463,0.011017,0.0,0.0,0.0,0,1
2026-06-16 16:25:29.364,3142525,R_Shank,-0.0964,2.5052,1.0071,-0.02,-0.87,-1.55,-12.89,5.5,-46.44,0.919309,0.024445,0.020692,-0.392163,0.0,0.0,0.0,0,1
2026-06-16 16:25:29.366,139457,L_Hip,0.1141,-0.0828,0.9895,0.19,-0.24,0.8,-28.76,20.26,-34.38,0.990783,-0.033265,-0.063204,-0.115055,0.0,0.0,0.0,0,1
2026-06-16 16:25:29.367,3142482,R_Hip,0.0422,0.0069,0.9794,0.37,-0.3,9.38,-24.16,11.74,-37.75,0.99707,0.00528,-0.038148,-0.065706,0.0,0.0,0.0,0,1
2026-06-16 16:25:29.369,139477,L_Hip,0.1087,-0.0685,0.9924,0.2,-0.24,0.79,-29.09,20.25,-34.67,0.990783,-0.033265,-0.063204,-0.115055,0.0,0.0,0.0,0,1
2026-06-16 16:25:29.369,3142502,R_Hip,0.0362,-0.0003,0.9861,0.37,-0.29,9.37,-22.34,12.47,-38.09,0.99707,0.00528,-0.038179,-0.065706,0.0,0.0,0.0,0,1
2026-06-16 16:25:29.372,3142522,R_Hip,0.0353,-0.0003,0.9818,0.37,-0.3,9.36,0.0,0.0,0.0,0.99707,0.00528,-0.038148,-0.065706,0.0,0.0,0.0,0,1
2026-06-16 16:25:29.373,139497,L_Hip,0.1038,-0.0577,0.9759,0.21,-0.26,0.77,-27.9,20.76,-34.54,0.990783,-0.033265,-0.063204,-0.115055,0.0,0.0,0.0,0,1
2026-06-16 16:25:29.375,3142483,R_Hip,0.0333,0.0103,0.9929,0.37,-0.3,9.37,-21.42,12.65,-37.23,0.99707,0.00528,-0.038148,-0.065706,0.0,0.0,0.0,0,1
2026-06-16 16:25:29.376,139517,L_Hip,0.1112,-0.0715,0.9769,0.19,-0.25,0.78,0.0,0.0,0.0,0.990783,-0.033265,-0.063204,-0.115055,0.0,0.0,0.0,0,1
2026-06-16 16:25:29.378,3142492,R_Ankle,0.015,-0.0245,1.0101,0.77,-1.74,-0.49,-11.16,9.66,-49.8,0.328379,0.091891,0.00766,0.940001,0.0,0.0,0.0,0,1
2026-06-16 16:25:29.379,139467,L_Shank,0.0252,-0.0067,0.9782,1.7,-0.74,-0.39,1.02,10.56,-34.2,0.999298,-0.002228,-0.035463,0.011017,0.0,0.0,0.0,0,1
2026-06-16 16:25:29.381,3142512,R_Ankle,0.0233,-0.0116,1.0101,0.77,-1.75,-0.49,-11.34,10.14,-50.57,0.328379,0.091861,0.00763,0.940031,0.0,0.0,0.0,0,1
2026-06-16 16:25:29.382,139487,L_Shank,0.0174,-0.0048,0.9762,1.7,-0.74,-0.4,-0.19,10.4,-34.65,0.999298,-0.002228,-0.035463,0.011017,0.0,0.0,0.0,0,1
2026-06-16 16:25:29.384,3142532,R_Ankle,0.0111,-0.0126,1.0024,0.76,-1.75,-0.48,0.0,0.0,0.0,0.328379,0.091861,0.00763,0.940031,0.0,0.0,0.0,0,1
2026-06-16 16:25:29.384,139507,L_Shank,0.0189,-0.0097,0.9911,1.68,-0.72,-0.4,0.0,0.0,0.0,0.999298,-0.002258,-0.035493,0.011017,0.0,0.0,0.0,0,1
2026-06-16 16:25:29.388,139468,L_Shank,0.0199,-0.0097,0.9892,1.7,-0.74,-0.4,0.84,9.04,-34.65,0.999298,-0.002228,-0.035493,0.011017,0.0,0.0,0.0,0,1
2026-06-16 16:25:29.389,3142493,R_Ankle,0.0302,-0.0161,1.0034,0.77,-1.74,-0.5,-11.51,9.98,-50.73,0.328379,0.091861,0.007599,0.940031,0.0,0.0,0.0,0,1
2026-06-16 16:25:29.391,139482,L_Hip,0.1048,-0.0651,0.9904,0.19,-0.26,0.79,-29.43,20.57,-34.37,0.990753,-0.033296,-0.063204,-0.115055,0.0,0.0,0.0,0,1
2026-06-16 16:25:29.391,3142505,R_Hip,0.0343,-0.0047,1.0006,0.38,-0.3,9.37,-22.88,13.39,-38.6,0.99707,0.00531,-0.038118,-0.065706,0.0,0.0,0.0,0,1
2026-06-16 16:25:29.395,3142525,R_Hip,0.0333,-0.0042,0.9818,0.38,-0.3,9.37,-25.07,13.75,-37.58,0.99707,0.00531,-0.038118,-0.065706,0.0,0.0,0.0,0,1
2026-06-16 16:25:29.395,139502,L_Hip,0.1161,-0.0715,0.9812,0.21,-0.24,0.78,-29.92,20.08,-35.96,0.990753,-0.033296,-0.063234,-0.115055,0.0,0.0,0.0,0,1
2026-06-16 16:25:29.397,3142545,R_Hip,0.0431,0.003,0.9924,0.36,-0.29,9.35,0.0,0.0,0.0,0.99707,0.00531,-0.038118,-0.065706,0.0,0.0,0.0,0,1
2026-06-16 16:25:29.398,139522,L_Hip,0.1077,-0.0764,0.9701,0.2,-0.25,0.78,-27.38,21.58,-34.7,0.990753,-0.033296,-0.063265,-0.115055,0.0,0.0,0.0,0,1
2026-06-16 16:25:29.401,3142565,R_Hip,0.0441,0.0064,0.9842,0.38,-0.31,9.36,-22.34,13.94,-38.09,0.99707,0.00531,-0.038148,-0.065706,0.0,0.0,0.0,0,1
2026-06-16 16:25:29.403,139542,L_Hip,0.1102,-0.0685,0.9764,0.19,-0.25,0.77,-28.91,21.71,-33.66,0.990753,-0.033296,-0.063265,-0.115055,0.0,0.0,0.0,0,1
2026-06-16 16:25:29.406,3142515,R_Ankle,0.0189,-0.0116,0.9976,0.77,-1.74,-0.51,-9.96,11.74,-50.58,0.328379,0.091891,0.00763,0.940001,0.0,0.0,0.0,0,1
2026-06-16 16:25:29.407,139484,L_Ankle,0.0987,0.0207,0.9909,-0.68,-0.35,-1.93,-18.96,23.45,-28.73,0.98703,0.029481,-0.056337,0.147374,0.0,0.0,0.0,0,1
2026-06-16 16:25:29.409,3142535,R_Ankle,0.0165,-0.0156,1.0182,0.77,-1.74,-0.49,-10.48,11.26,-50.73,0.328379,0.091891,0.00763,0.940001,0.0,0.0,0.0,0,1
2026-06-16 16:25:29.411,139504,L_Ankle,0.0947,0.0207,0.9952,-0.67,-0.35,-1.92,-18.47,25.03,-29.22,0.98703,0.029511,-0.056337,0.147374,0.0,0.0,0.0,0,1
2026-06-16 16:25:29.412,3142555,R_Ankle,0.0184,-0.0141,1.0225,0.77,-1.73,-0.49,0.0,0.0,0.0,0.328379,0.091891,0.00763,0.940031,0.0,0.0,0.0,0,1
2026-06-16 16:25:29.415,139524,L_Ankle,0.0962,0.0153,0.9885,-0.67,-0.35,-1.9,-17.03,23.24,-28.52,0.98703,0.029481,-0.056337,0.147374,0.0,0.0,0.0,0,1
2026-06-16 16:25:29.415,3142575,R_Ankle,0.016,-0.0136,1.0105,0.76,-1.73,-0.5,-11.48,12.84,-50.45,0.328379,0.091891,0.00763,0.940031,0.0,0.0,0.0,0,1
2026-06-16 16:25:29.418,139544,L_Ankle,0.0962,0.0236,0.9981,-0.67,-0.37,-1.92,-17.91,23.43,-28.71,0.98703,0.029511,-0.056368,0.147374,0.0,0.0,0.0,0,1
2026-06-16 16:25:29.418,3142527,R_Hip,0.0427,0.0069,0.9751,0.37,-0.3,9.35,-24.52,12.11,-37.06,0.99707,0.005341,-0.038148,-0.065706,0.0,0.0,0.0,0,1
2026-06-16 16:25:29.421,3142547,R_Hip,0.0333,0.0049,0.989,0.38,-0.3,9.37,-22.52,13.39,-37.92,0.99707,0.005341,-0.038179,-0.065706,0.0,0.0,0.0,0,1
2026-06-16 16:25:29.422,139507,L_Hip,0.1087,-0.0676,0.9749,0.19,-0.25,0.79,-29.22,22.03,-34.81,0.990753,-0.033296,-0.063265,-0.115055,0.0,0.0,0.0,0,1
2026-06-16 16:25:29.422,3142567,R_Hip,0.0427,-0.0057,0.9876,0.36,-0.29,9.36,0.0,0.0,0.0,0.99707,0.005371,-0.038179,-0.065706,0.0,0.0,0.0,0,1
2026-06-16 16:25:29.425,139527,L_Hip,0.1053,-0.0641,0.9764,0.18,-0.24,0.79,0.0,0.0,0.0,0.990753,-0.033296,-0.063265,-0.115055,0.0,0.0,0.0,0,1
2026-06-16 16:25:29.425,3142528,R_Hip,0.0407,0.0064,0.9799,0.37,-0.31,9.38,-23.06,13.93,-36.72,0.99707,0.005341,-0.038209,-0.065706,0.0,0.0,0.0,0,1
2026-06-16 16:25:29.427,3142533,R_Shank,-0.091,-1.9956,1.0061,-0.02,-0.89,-1.56,-15.25,5.54,-46.72,0.919309,0.024445,0.020722,-0.392163,0.0,0.0,0.0,0,1
2026-06-16 16:25:29.428,139547,L_Hip,0.1009,-0.0671,0.989,0.2,-0.24,0.79,-28.73,20.91,-35.25,0.990753,-0.033265,-0.063265,-0.115055,0.0,0.0,0.0,0,1
2026-06-16 16:25:29.430,3142553,R_Shank,-0.0989,2.5052,0.998,-0.03,-0.87,-1.55,-14.73,4.71,-46.88,0.919309,0.024476,0.020692,-0.392163,0.0,0.0,0.0,0,1
2026-06-16 16:25:29.432,139567,L_Hip,0.1166,-0.0661,0.9822,0.19,-0.25,0.78,-27.39,20.93,-34.69,0.990753,-0.033296,-0.063265,-0.115055,0.0,0.0,0.0,0,1
2026-06-16 16:25:29.433,3142573,R_Shank,-0.095,3.0168,1.0028,-0.01,-0.88,-1.55,0.0,0.0,0.0,0.919309,0.024476,0.020692,-0.392163,0.0,0.0,0.0,0,1
2026-06-16 16:25:29.434,139512,L_Shank,0.0204,-0.0033,0.9657,1.68,-0.72,-0.39,-0.2,10.05,-33.72,0.999298,-0.002228,-0.035463,0.011017,0.0,0.0,0.0,0,1
2026-06-16 16:25:29.436,3142593,R_Shank,-0.0906,2.8872,0.9989,-0.03,-0.88,-1.55,-15.25,5.22,-46.12,0.919309,0.024476,0.020722,-0.392163,0.0,0.0,0.0,0,1
2026-06-16 16:25:29.437,139532,L_Shank,0.0296,-0.0082,0.9662,1.68,-0.74,-0.39,-0.21,10.72,-33.1,0.999298,-0.002228,-0.035463,0.011017,0.0,0.0,0.0,0,1
2026-06-16 16:25:29.439,3142537,R_Ankle,0.017,-0.0111,0.9971,0.77,-1.75,-0.5,-9.63,11.11,-50.57,0.328379,0.091861,0.007599,0.940031,0.0,0.0,0.0,0,1
2026-06-16 16:25:29.440,139552,L_Shank,0.0208,-0.0067,0.9868,1.69,-0.74,-0.4,0.0,0.0,0.0,0.999298,-0.002228,-0.035432,0.011048,0.0,0.0,0.0,0,1
2026-06-16 16:25:29.442,3142557,R_Ankle,0.0179,-0.0136,1.0,0.77,-1.75,-0.5,-11.33,11.41,-50.59,0.328379,0.091861,0.00763,0.940031,0.0,0.0,0.0,0,1
2026-06-16 16:25:29.443,139572,L_Shank,0.0287,-0.0019,0.9858,1.68,-0.74,-0.41,0.48,9.36,-33.4,0.999298,-0.002228,-0.035401,0.011017,0.0,0.0,0.0,0,1
2026-06-16 16:25:29.445,3142577,R_Ankle,0.0135,-0.0146,1.0038,0.76,-1.75,-0.5,0.0,0.0,0.0,0.328379,0.091861,0.00763,0.940001,0.0,0.0,0.0,0,1
2026-06-16 16:25:29.445,139530,L_Ankle,0.0942,0.0266,0.9909,-0.68,-0.37,-1.93,-18.82,25.04,-29.23,0.98703,0.029511,-0.056368,0.147374,0.0,0.0,0.0,0,1
2026-06-16 16:25:29.448,3142538,R_Ankle,0.0199,-0.019,0.9943,0.77,-1.75,-0.49,-9.96,12.06,-50.58,0.328379,0.091861,0.007599,0.940031,0.0,0.0,0.0,0,1
2026-06-16 16:25:29.449,139550,L_Ankle,0.0947,0.0192,0.9894,-0.65,-0.36,-1.93,0.0,0.0,0.0,0.98703,0.029511,-0.056368,0.147374,0.0,0.0,0.0,0,1
2026-06-16 16:25:29.451,3142550,R_Hip,0.0382,0.0015,0.9856,0.38,-0.3,9.37,-23.79,13.2,-37.75,0.99707,0.005371,-0.038209,-0.065706,0.0,0.0,0.0,0,1
2026-06-16 16:25:29.451,139570,L_Ankle,0.0903,0.0178,0.9755,-0.67,-0.37,-1.92,-17.39,23.95,-28.53,0.98703,0.029481,-0.056337,0.147374,0.0,0.0,0.0,0,1
2026-06-16 16:25:29.453,3142570,R_Hip,0.0353,0.0064,0.9914,0.38,-0.31,9.37,-23.06,12.1,-36.72,0.99707,0.005371,-0.038209,-0.065676,0.0,0.0,0.0,0,1
2026-06-16 16:25:29.455,139590,L_Ankle,0.0913,0.0222,0.9894,-0.67,-0.37,-1.92,-17.56,24.14,-27.68,0.98703,0.029511,-0.056337,0.147374,0.0,0.0,0.0,0,1
2026-06-16 16:25:29.456,3142590,R_Hip,0.0402,0.004,0.9948,0.37,-0.31,9.36,0.0,0.0,0.0,0.99707,0.005402,-0.038209,-0.065676,0.0,0.0,0.0,0,1
2026-06-16 16:25:29.457,139552,L_Ankle,0.0889,0.0197,0.9813,-0.67,-0.37,-1.92,-18.59,23.8,-27.36,0.98703,0.029511,-0.056337,0.147374,0.0,0.0,0.0,0,1
2026-06-16 16:25:29.459,3142610,R_Hip,0.0382,0.0001,1.0063,0.36,-0.29,9.37,-23.61,14.12,-37.24,0.99707,0.005371,-0.038209,-0.065676,0.0,0.0,0.0,0,1
2026-06-16 16:25:29.461,139572,L_Ankle,0.0938,0.0236,0.9755,-0.66,-0.36,-1.92,0.0,0.0,0.0,0.98703,0.029511,-0.056337,0.147374,0.0,0.0,0.0,0,1
2026-06-16 16:25:29.462,3142560,R_Ankle,0.0184,-0.0086,0.9928,0.77,-1.74,-0.51,-12.01,11.41,-50.9,0.328379,0.091861,0.007599,0.940001,0.0,0.0,0.0,0,1
2026-06-16 16:25:29.463,139592,L_Ankle,0.0933,0.0173,0.9933,-0.66,-0.37,-1.93,-18.29,25.21,-28.71,0.98703,0.029542,-0.056337,0.147374,0.0,0.0,0.0,0,1
2026-06-16 16:25:29.465,3142580,R_Ankle,0.0214,-0.0136,1.0038,0.77,-1.74,-0.5,-11.0,11.43,-51.82,0.328379,0.091891,0.00763,0.940001,0.0,0.0,0.0,0,1
2026-06-16 16:25:29.467,139612,L_Ankle,0.0893,0.0188,0.9813,-0.67,-0.36,-1.92,-18.1,24.67,-28.2,0.98703,0.029542,-0.056337,0.147374,0.0,0.0,0.0,0,1
2026-06-16 16:25:29.468,3142600,R_Ankle,0.0331,-0.0126,1.0034,0.76,-1.75,-0.5,0.0,0.0,0.0,0.328379,0.091891,0.00763,0.940001,0.0,0.0,0.0,0,1
2026-06-16 16:25:29.470,3142620,R_Ankle,0.0155,-0.0161,1.0196,0.76,-1.75,-0.48,-10.99,11.1,-50.58,0.328379,0.091922,0.007599,0.940001,0.0,0.0,0.0,0,1
2026-06-16 16:25:29.472,3142577,R_Shank,-0.092,0.8344,1.0119,-0.02,-0.88,-1.56,-14.05,4.04,-45.99,0.919309,0.024476,0.020722,-0.392163,0.0,0.0,0.0,0,1
2026-06-16 16:25:29.474,3142597,R_Shank,-0.092,0.4456,0.9994,-0.03,-0.9,-1.55,0.0,0.0,0.0,0.919309,0.024476,0.020722,-0.392163,0.0,0.0,0.0,0,1
2026-06-16 16:25:29.475,3142617,R_Shank,-0.0901,-1.0956,1.0128,-0.03,-0.88,-1.56,-14.42,6.68,-47.17,0.919309,0.024445,0.020722,-0.392163,0.0,0.0,0.0,0,1
2026-06-16 16:25:29.478,3142578,R_Shank,-0.0807,-0.066,0.9922,-0.01,-0.9,-1.58,-13.24,6.49,-47.33,0.919309,0.024476,0.020722,-0.392163,0.0,0.0,0.0,0,1
2026-06-16 16:25:29.481,139580,L_Shank,0.016,-0.0141,0.9959,1.69,-0.73,-0.41,1.02,9.9,-35.13,0.999298,-0.002228,-0.035401,0.011048,0.0,0.0,0.0,0,1
2026-06-16 16:25:29.484,139600,L_Shank,0.0306,-0.0077,0.9974,1.7,-0.74,-0.4,-0.01,10.91,-35.13,0.999298,-0.002228,-0.035401,0.011048,0.0,0.0,0.0,0,1
2026-06-16 16:25:29.486,3142605,R_Ankle,0.0263,-0.0141,1.0058,0.76,-1.74,-0.51,-11.67,11.09,-50.59,0.328379,0.091891,0.007569,0.940001,0.0,0.0,0.0,0,1
2026-06-16 16:25:29.487,139620,L_Shank,0.0243,-0.0028,0.9921,1.7,-0.74,-0.41,0.85,9.72,-34.97,0.999298,-0.002228,-0.035371,0.011048,0.0,0.0,0.0,0,1
2026-06-16 16:25:29.489,3142625,R_Ankle,0.0145,-0.0076,1.0105,0.76,-1.73,-0.5,-10.66,11.11,-51.5,0.328379,0.091891,0.007569,0.940001,0.0,0.0,0.0,0,1
2026-06-16 16:25:29.490,139640,L_Shank,0.0292,-0.0141,0.981,1.69,-0.74,-0.39,0.0,0.0,0.0,0.999298,-0.002228,-0.035371,0.011048,0.0,0.0,0.0,0,1
2026-06-16 16:25:29.492,3142645,R_Ankle,0.0189,-0.0195,1.0115,0.76,-1.74,-0.5,0.0,0.0,0.0,0.328379,0.091891,0.007569,0.940001,0.0,0.0,0.0,0,1
2026-06-16 16:25:29.493,139582,L_Hip,0.1117,-0.0651,0.9764,0.19,-0.25,0.78,-28.72,20.91,-36.13,0.990753,-0.033296,-0.063265,-0.115055,0.0,0.0,0.0,0,1
2026-06-16 16:25:29.494,3142665,R_Ankle,0.0204,-0.0161,0.999,0.77,-1.74,-0.5,-12.53,10.93,-51.37,0.328379,0.091891,0.007569,0.940001,0.0,0.0,0.0,0,1
2026-06-16 16:25:29.496,139602,L_Hip,0.1117,-0.0681,0.9841,0.19,-0.23,0.79,0.0,0.0,0.0,0.990753,-0.033265,-0.063265,-0.115024,0.0,0.0,0.0,0,1
2026-06-16 16:25:29.498,3142617,R_Hip,0.0372,-0.0028,0.9799,0.36,-0.3,9.35,-23.98,13.02,-37.92,0.99707,0.005371,-0.038209,-0.065676,0.0,0.0,0.0,0,1
2026-06-16 16:25:29.499,139622,L_Hip,0.1156,-0.0705,0.9803,0.19,-0.25,0.8,-28.92,20.74,-34.52,0.990753,-0.033296,-0.063265,-0.115055,0.0,0.0,0.0,0,1
2026-06-16 16:25:29.500,3142637,R_Hip,0.0407,0.0089,0.9967,0.37,-0.3,9.36,-23.43,13.94,-38.78,0.99707,0.005371,-0.038209,-0.065676,0.0,0.0,0.0,0,1
2026-06-16 16:25:29.503,139642,L_Hip,0.1122,-0.0671,0.9914,0.19,-0.25,0.8,-29.05,21.23,-36.12,0.990753,-0.033296,-0.063265,-0.115055,0.0,0.0,0.0,0,1
2026-06-16 16:25:29.504,3142657,R_Hip,0.0427,-0.0062,0.9938,0.37,-0.29,9.36,0.0,0.0,0.0,0.99707,0.005371,-0.038209,-0.065706,0.0,0.0,0.0,0,1
2026-06-16 16:25:29.506,139597,L_Ankle,0.0889,0.0173,0.9856,-0.67,-0.36,-1.92,-18.62,24.15,-28.72,0.98703,0.029511,-0.056337,0.147343,0.0,0.0,0.0,0,1
2026-06-16 16:25:29.506,3142677,R_Hip,0.0353,0.002,0.9775,0.37,-0.29,9.35,-22.33,13.57,-37.41,0.99707,0.005371,-0.038209,-0.065706,0.0,0.0,0.0,0,1
2026-06-16 16:25:29.510,139617,L_Ankle,0.0859,0.0173,0.9914,-0.67,-0.35,-1.91,0.0,0.0,0.0,0.98703,0.029542,-0.056337,0.147343,0.0,0.0,0.0,0,1
2026-06-16 16:25:29.511,3142622,R_Shank,-0.0984,-2.5072,1.0052,-0.02,-0.87,-1.57,-13.89,4.53,-46.14,0.919309,0.024445,0.020722,-0.392163,0.0,0.0,0.0,0,1
2026-06-16 16:25:29.516,139637,L_Ankle,0.0918,0.0192,0.9899,-0.67,-0.35,-1.92,-17.9,23.08,-28.03,0.98703,0.029542,-0.056337,0.147343,0.0,0.0,0.0,0,1
2026-06-16 16:25:29.517,3142642,R_Shank,-0.096,1.6048,0.998,-0.02,-0.87,-1.55,0.0,0.0,0.0,0.919309,0.024445,0.020692,-0.392163,0.0,0.0,0.0,0,1
2026-06-16 16:25:29.521,3142662,R_Shank,-0.093,3.146,1.0114,-0.02,-0.89,-1.56,-14.74,5.37,-46.87,0.919309,0.024445,0.020722,-0.392163,0.0,0.0,0.0,0,1
2026-06-16 16:25:29.523,139657,L_Ankle,0.0889,0.0139,0.9813,-0.67,-0.35,-1.93,-19.33,23.8,-29.41,0.98703,0.029511,-0.056337,0.147343,0.0,0.0,0.0,0,1
2026-06-16 16:25:29.527,3142623,R_Shank,-0.092,-2.7664,1.0008,-0.03,-0.88,-1.55,-14.58,5.86,-47.02,0.919309,0.024445,0.020753,-0.392163,0.0,0.0,0.0,0,1
2026-06-16 16:25:29.532,3142640,R_Hip,0.0367,0.0006,0.9986,0.37,-0.29,9.37,-23.07,12.84,-38.43,0.99707,0.005371,-0.038209,-0.065706,0.0,0.0,0.0,0,1
2026-06-16 16:25:29.532,139602,L_Shank,0.0228,-0.0043,0.969,1.68,-0.74,-0.4,0.13,10.04,-33.41,0.999298,-0.002228,-0.035371,0.011048,0.0,0.0,0.0,0,1
2026-06-16 16:25:29.535,139622,L_Shank,0.0272,-0.0087,0.9782,1.69,-0.75,-0.39,1.36,10.55,-33.27,0.999298,-0.002258,-0.03534,0.011048,0.0,0.0,0.0,0,1
2026-06-16 16:25:29.536,3142660,R_Hip,0.0343,0.0049,0.9881,0.37,-0.3,9.36,-23.43,12.11,-37.06,0.99707,0.005402,-0.038209,-0.065706,0.0,0.0,0.0,0,1
2026-06-16 16:25:29.539,139642,L_Shank,0.0287,-0.0116,0.9714,1.7,-0.75,-0.38,-0.37,10.9,-34.19,0.999298,-0.002258,-0.03534,0.011048,0.0,0.0,0.0,0,1
2026-06-16 16:25:29.541,3142680,R_Hip,0.0481,0.0035,0.9924,0.35,-0.3,9.35,0.0,0.0,0.0,0.99707,0.005371,-0.038209,-0.065706,0.0,0.0,0.0,0,1
2026-06-16 16:25:29.543,139662,L_Shank,0.0243,-0.0087,0.9681,1.7,-0.74,-0.4,0.0,0.0,0.0,0.999298,-0.002258,-0.03531,0.011048,0.0,0.0,0.0,0,1
2026-06-16 16:25:29.544,3142700,R_Hip,0.0456,0.0093,0.9871,0.36,-0.3,9.36,-22.88,12.65,-36.89,0.99707,0.005402,-0.038209,-0.065706,0.0,0.0,0.0,0,1
2026-06-16 16:25:29.547,139607,L_Hip,0.1122,-0.0631,0.9745,0.19,-0.25,0.78,-28.92,20.42,-34.81,0.990753,-0.033296,-0.063265,-0.115055,0.0,0.0,0.0,0,1
2026-06-16 16:25:29.548,3142645,R_Shank,-0.0906,2.246,1.0047,-0.02,-0.88,-1.56,-14.23,4.87,-46.13,0.919309,0.024476,0.020722,-0.392163,0.0,0.0,0.0,0,1
2026-06-16 16:25:29.549,139627,L_Hip,0.1102,-0.0676,0.9817,0.2,-0.24,0.79,0.0,0.0,0.0,0.990753,-0.033296,-0.063265,-0.115024,0.0,0.0,0.0,0,1
2026-06-16 16:25:29.550,3142665,R_Shank,-0.0906,-2.7664,0.9999,-0.03,-0.86,-1.55,0.0,0.0,0.0,0.919309,0.024476,0.020753,-0.392163,0.0,0.0,0.0,0,1
2026-06-16 16:25:29.553,139647,L_Hip,0.1009,-0.0715,0.9759,0.19,-0.24,0.8,-28.69,22.85,-35.26,0.990783,-0.033296,-0.063234,-0.115024,0.0,0.0,0.0,0,1
2026-06-16 16:25:29.554,3142685,R_Shank,-0.091,-1.7368,1.0008,-0.02,-0.87,-1.57,-13.74,5.68,-46.58,0.919309,0.024476,0.020753,-0.392163,0.0,0.0,0.0,0,1
2026-06-16 16:25:29.556,139667,L_Hip,0.1136,-0.0685,0.9977,0.2,-0.25,0.78,-29.42,20.25,-35.24,0.990783,-0.033296,-0.063234,-0.115024,0.0,0.0,0.0,0,1
2026-06-16 16:25:29.557,3142705,R_Shank,-0.091,-0.1956,1.008,-0.02,-0.89,-1.55,-13.55,4.85,-46.74,0.919309,0.024476,0.020753,-0.392163,0.0,0.0,0.0,0,1
2026-06-16 16:25:29.559,139625,L_Shank,0.0248,-0.0116,0.9743,1.69,-0.73,-0.41,0.14,11.07,-34.04,0.999298,-0.002228,-0.03531,0.011048,0.0,0.0,0.0,0,1
2026-06-16 16:25:29.560,3142650,R_Ankle,0.0101,-0.0126,0.9914,0.77,-1.72,-0.5,-9.96,11.42,-50.27,0.328379,0.091891,0.007569,0.940001,0.0,0.0,0.0,0,1
2026-06-16 16:25:29.562,139645,L_Shank,0.0238,-0.0185,0.9892,1.68,-0.74,-0.4,1.18,10.72,-33.43,0.999298,-0.002258,-0.03534,0.011048,0.0,0.0,0.0,0,1
2026-06-16 16:25:29.563,3142670,R_Ankle,0.017,-0.0161,1.0129,0.76,-1.74,-0.48,-12.01,10.45,-50.28,0.328379,0.091891,0.007569,0.940001,0.0,0.0,0.0,0,1
2026-06-16 16:25:29.565,139665,L_Shank,0.0287,-0.0087,0.9834,1.69,-0.74,-0.39,0.13,10.04,-33.1,0.999298,-0.002258,-0.03534,0.011048,0.0,0.0,0.0,0,1
2026-06-16 16:25:29.566,3142690,R_Ankle,0.0111,-0.0086,0.9943,0.77,-1.75,-0.49,0.0,0.0,0.0,0.328379,0.091861,0.007569,0.940001,0.0,0.0,0.0,0,1
2026-06-16 16:25:29.567,139685,L_Shank,0.0282,-0.02,0.9734,1.69,-0.74,-0.4,0.0,0.0,0.0,0.999298,-0.002258,-0.03534,0.011048,0.0,0.0,0.0,0,1
2026-06-16 16:25:29.568,3142710,R_Ankle,0.0228,-0.0126,1.0034,0.77,-1.77,-0.49,-9.45,10.94,-49.79,0.328379,0.091891,0.007599,0.940001,0.0,0.0,0.0,0,1
2026-06-16 16:25:29.570,139632,L_Hip,0.1122,-0.0656,0.9672,0.19,-0.24,0.76,-28.42,19.94,-34.67,0.990783,-0.033296,-0.063234,-0.115024,0.0,0.0,0.0,0,1
2026-06-16 16:25:29.571,3142667,R_Shank,-0.0852,-0.1956,0.9946,-0.02,-0.89,-1.57,-14.73,5.04,-46.88,0.919309,0.024506,0.020753,-0.392132,0.0,0.0,0.0,0,1
2026-06-16 16:25:29.573,139652,L_Hip,0.1102,-0.0681,0.99,0.21,-0.24,0.79,0.0,0.0,0.0,0.990783,-0.033296,-0.063234,-0.115024,0.0,0.0,0.0,0,1
2026-06-16 16:25:29.574,3142687,R_Shank,-0.0827,-0.1956,0.998,-0.01,-0.88,-1.56,0.0,0.0,0.0,0.919309,0.024506,0.020783,-0.392132,0.0,0.0,0.0,0,1
2026-06-16 16:25:29.576,139672,L_Hip,0.1166,-0.0715,0.989,0.21,-0.26,0.79,-28.05,21.24,-35.27,0.990783,-0.033296,-0.063265,-0.115024,0.0,0.0,0.0,0,1
2026-06-16 16:25:29.577,3142668,R_Shank,-0.0861,-0.066,1.0148,-0.01,-0.88,-1.55,-14.22,4.86,-47.03,0.919309,0.024506,0.020783,-0.392132,0.0,0.0,0.0,0,1
2026-06-16 16:25:29.578,139692,L_Hip,0.1102,-0.07,0.9948,0.2,-0.25,0.78,-29.09,20.58,-34.09,0.990783,-0.033296,-0.063234,-0.115024,0.0,0.0,0.0,0,1
2026-06-16 16:25:29.580,3142688,R_Shank,-0.0906,3.0168,1.01,-0.03,-0.86,-1.54,-14.08,5.69,-45.97,0.919309,0.024506,0.020753,-0.392132,0.0,0.0,0.0,0,1
2026-06-16 16:25:29.582,139665,L_Ankle,0.0874,0.029,0.987,-0.66,-0.35,-1.92,-18.77,22.91,-28.21,0.98703,0.029542,-0.056337,0.147343,0.0,0.0,0.0,0,1
2026-06-16 16:25:29.583,3142685,R_Hip,0.0387,0.0001,0.9948,0.37,-0.3,9.37,-23.61,14.12,-37.58,0.99707,0.005371,-0.03824,-0.065706,0.0,0.0,0.0,0,1
2026-06-16 16:25:29.585,139685,L_Ankle,0.0942,0.0227,0.9942,-0.67,-0.35,-1.93,0.0,0.0,0.0,0.98703,0.029542,-0.056337,0.147343,0.0,0.0,0.0,0,1
2026-06-16 16:25:29.586,3142705,R_Hip,0.0422,-0.0052,0.9958,0.37,-0.29,9.36,-24.16,12.84,-38.43,0.99707,0.005371,-0.03824,-0.065706,0.0,0.0,0.0,0,1
2026-06-16 16:25:29.589,139705,L_Ankle,0.0928,0.0168,0.9981,-0.67,-0.36,-1.92,-18.09,23.25,-28.88,0.98703,0.029542,-0.056307,0.147343,0.0,0.0,0.0,0,1
2026-06-16 16:25:29.589,3142725,R_Hip,0.0358,0.0006,0.9842,0.37,-0.3,9.36,0.0,0.0,0.0,0.99707,0.005371,-0.03827,-0.065706,0.0,0.0,0.0,0,1
2026-06-16 16:25:29.591,139725,L_Ankle,0.0928,0.0261,0.9866,-0.65,-0.37,-1.91,-18.8,23.62,-29.23,0.98703,0.029511,-0.056276,0.147343,0.0,0.0,0.0,0,1
2026-06-16 16:25:29.592,3142745,R_Hip,0.0422,0.0059,0.9909,0.37,-0.3,9.37,-23.8,13.57,-38.78,0.99707,0.005371,-0.03824,-0.065706,0.0,0.0,0.0,0,1
2026-06-16 16:25:29.595,3142713,R_Shank,-0.0871,-0.966,1.009,-0.03,-0.89,-1.56,-13.55,5.18,-47.34,0.919309,0.024506,0.020753,-0.392132,0.0,0.0,0.0,0,1
2026-06-16 16:25:29.595,139682,L_Hip,0.1092,-0.0695,0.9841,0.19,-0.24,0.77,-28.39,21.24,-34.97,0.990783,-0.033296,-0.063234,-0.114994,0.0,0.0,0.0,0,1
2026-06-16 16:25:29.597,3142733,R_Shank,-0.0866,0.5752,1.009,-0.02,-0.89,-1.55,0.0,0.0,0.0,0.919309,0.024506,0.020753,-0.392132,0.0,0.0,0.0,0,1
2026-06-16 16:25:29.597,139702,L_Hip,0.1126,-0.073,0.9841,0.19,-0.23,0.77,0.0,0.0,0.0,0.990783,-0.033265,-0.063234,-0.114994,0.0,0.0,0.0,0,1
2026-06-16 16:25:29.600,3142753,R_Shank,-0.0886,2.8872,0.9907,-0.03,-0.9,-1.54,-14.56,5.2,-47.03,0.91934,0.024506,0.020753,-0.392132,0.0,0.0,0.0,0,1
2026-06-16 16:25:29.601,139722,L_Hip,0.1122,-0.0685,0.9778,0.19,-0.25,0.79,-29.41,20.9,-35.24,0.990783,-0.033296,-0.063204,-0.114994,0.0,0.0,0.0,0,1
2026-06-16 16:25:29.603,3142773,R_Shank,-0.0915,2.5052,1.0047,-0.03,-0.88,-1.56,-14.39,5.03,-47.48,0.91934,0.024506,0.020753,-0.392132,0.0,0.0,0.0,0,1
2026-06-16 16:25:29.604,139742,L_Hip,0.1126,-0.0695,0.9759,0.2,-0.24,0.77,-28.19,21.73,-36.28,0.990783,-0.033296,-0.063204,-0.114994,0.0,0.0,0.0,0,1
2026-06-16 16:25:29.609,3142730,R_Hip,0.0279,-0.0067,0.9832,0.37,-0.29,9.35,-23.06,14.3,-37.41,0.99707,0.005371,-0.03824,-0.065706,0.0,0.0,0.0,0,1
2026-06-16 16:25:29.609,139707,L_Hip,0.118,-0.0685,0.987,0.2,-0.24,0.78,-28.39,20.92,-35.26,0.990783,-0.033265,-0.063204,-0.114994,0.0,0.0,0.0,0,1
2026-06-16 16:25:29.612,3142750,R_Hip,0.0441,0.004,0.9832,0.35,-0.31,9.37,-23.07,14.3,-38.09,0.99707,0.005341,-0.038209,-0.065706,0.0,0.0,0.0,0,1
2026-06-16 16:25:29.613,139727,L_Hip,0.097,-0.0764,0.9783,0.19,-0.26,0.78,-28.36,22.85,-34.98,0.990783,-0.033265,-0.063204,-0.114994,0.0,0.0,0.0,0,1
2026-06-16 16:25:29.615,3142770,R_Hip,0.0412,-0.0037,0.9924,0.38,-0.31,9.37,0.0,0.0,0.0,0.99707,0.005341,-0.03824,-0.065706,0.0,0.0,0.0,0,1
2026-06-16 16:25:29.615,139747,L_Hip,0.1112,-0.0744,0.9749,0.2,-0.23,0.8,0.0,0.0,0.0,0.990783,-0.033265,-0.063234,-0.114994,0.0,0.0,0.0,0,1
2026-06-16 16:25:29.618,3142790,R_Hip,0.0377,-0.0042,0.9909,0.37,-0.3,9.38,-22.7,12.84,-38.09,0.99707,0.005341,-0.03824,-0.065706,0.0,0.0,0.0,0,1
2026-06-16 16:25:29.619,139767,L_Hip,0.0705,-0.0739,0.9628,0.2,-0.25,0.78,-28.57,20.75,-34.82,0.990783,-0.033265,-0.063234,-0.114994,0.0,0.0,0.0,0,1
2026-06-16 16:25:29.621,3142735,R_Shank,-0.0852,-0.966,1.0013,-0.03,-0.89,-1.57,-14.91,5.54,-47.02,0.91934,0.024537,0.020753,-0.392132,0.0,0.0,0.0,0,1
2026-06-16 16:25:29.622,3142755,R_Shank,-0.0886,-1.7368,1.0018,-0.03,-0.87,-1.58,-13.74,6.01,-46.58,0.91934,0.024506,0.020753,-0.392132,0.0,0.0,0.0,0,1
2026-06-16 16:25:29.625,3142775,R_Shank,-0.0852,-1.2252,1.0109,-0.03,-0.89,-1.56,-14.39,4.37,-46.58,0.919309,0.024506,0.020753,-0.392132,0.0,0.0,0.0,0,1
2026-06-16 16:25:29.626,3142795,R_Shank,-0.0871,2.246,1.0076,-0.03,-0.88,-1.56,0.0,0.0,0.0,0.91934,0.024506,0.020722,-0.392132,0.0,0.0,0.0,0,1
2026-06-16 16:25:29.631,3142752,R_Hip,0.0629,-0.0106,0.99,0.37,-0.3,9.37,-22.7,15.76,-37.07,0.99707,0.00531,-0.03824,-0.065706,0.0,0.0,0.0,0,1
2026-06-16 16:25:29.633,3142772,R_Hip,0.0057,-0.0028,1.0112,0.36,-0.31,9.35,-21.79,12.29,-37.23,0.99707,0.005341,-0.038179,-0.065706,0.0,0.0,0.0,0,1
2026-06-16 16:25:29.635,3142792,R_Hip,0.0224,0.002,0.9818,0.37,-0.31,9.36,0.0,0.0,0.0,0.99707,0.00531,-0.038179,-0.065706,0.0,0.0,0.0,0,1
2026-06-16 16:25:29.637,3142753,R_Hip,0.0441,-0.0057,1.0025,0.38,-0.3,9.36,-23.25,11.93,-38.26,0.99707,0.005341,-0.038179,-0.065706,0.0,0.0,0.0,0,1
2026-06-16 16:25:29.639,139737,L_Shank,0.0248,-0.0136,0.9887,1.69,-0.74,-0.41,0.15,10.74,-34.66,0.999298,-0.002258,-0.03534,0.011048,0.0,0.0,0.0,0,1
2026-06-16 16:25:29.642,139757,L_Shank,0.0174,-0.0102,0.9897,1.7,-0.74,-0.41,0.31,10.89,-33.58,0.999298,-0.002289,-0.03534,0.011048,0.0,0.0,0.0,0,1
2026-06-16 16:25:29.642,3142762,R_Ankle,0.016,-0.0081,1.0067,0.77,-1.74,-0.51,-11.84,11.89,-51.37,0.328379,0.091891,0.007569,0.940001,0.0,0.0,0.0,0,1
2026-06-16 16:25:29.645,139777,L_Shank,0.0277,-0.0087,0.9734,1.69,-0.75,-0.4,1.19,10.39,-34.04,0.999298,-0.002258,-0.035371,0.011048,0.0,0.0,0.0,0,1
2026-06-16 16:25:29.645,3142782,R_Ankle,0.0263,-0.021,1.0091,0.77,-1.74,-0.5,-10.82,11.26,-50.74,0.328379,0.091891,0.007569,0.940001,0.0,0.0,0.0,0,1
2026-06-16 16:25:29.647,3142763,R_Ankle,0.0184,-0.0027,1.0072,0.77,-1.75,-0.49,0.0,0.0,0.0,0.328379,0.091922,0.007569,0.940001,0.0,0.0,0.0,0,1
2026-06-16 16:25:29.648,139797,L_Shank,0.0238,-0.0019,0.9902,1.7,-0.73,-0.41,-0.55,9.7,-33.4,0.999298,-0.002258,-0.035371,0.011048,0.0,0.0,0.0,0,1
2026-06-16 16:25:29.650,3142783,R_Ankle,0.0032,-0.0111,1.012,0.77,-1.76,-0.49,-11.67,11.4,-50.28,0.328379,0.091922,0.007599,0.940001,0.0,0.0,0.0,0,1
2026-06-16 16:25:29.657,139756,L_Ankle,0.0859,0.0256,0.9822,-0.67,-0.35,-1.91,-19.16,25.04,-28.55,0.98703,0.029511,-0.056276,0.147343,0.0,0.0,0.0,0,1
2026-06-16 16:25:29.660,139776,L_Ankle,0.0977,0.0222,0.9894,-0.66,-0.35,-1.91,-17.92,23.43,-29.39,0.98703,0.029511,-0.056276,0.147343,0.0,0.0,0.0,0,1
2026-06-16 16:25:29.663,139796,L_Ankle,0.0869,0.0158,0.9846,-0.67,-0.35,-1.93,0.0,0.0,0.0,0.98703,0.029542,-0.056246,0.147343,0.0,0.0,0.0,0,1
2026-06-16 16:25:29.663,3142785,R_Ankle,0.0155,-0.0176,1.0067,0.77,-1.75,-0.5,-10.82,10.94,-50.42,0.328379,0.091891,0.007599,0.940001,0.0,0.0,0.0,0,1
2026-06-16 16:25:29.666,139816,L_Ankle,0.0977,0.0163,0.9885,-0.67,-0.35,-1.9,-19.14,23.63,-28.9,0.98703,0.029542,-0.056215,0.147343,0.0,0.0,0.0,0,1
2026-06-16 16:25:29.667,3142805,R_Ankle,0.0219,-0.0131,1.0014,0.77,-1.77,-0.49,-10.65,10.14,-50.26,0.328379,0.091891,0.007569,0.940001,0.0,0.0,0.0,0,1
2026-06-16 16:25:29.669,3142825,R_Ankle,0.0233,-0.0181,1.0053,0.77,-1.76,-0.49,0.0,0.0,0.0,0.328379,0.091922,0.007569,0.940001,0.0,0.0,0.0,0,1
2026-06-16 16:25:29.669,139836,L_Ankle,0.0933,0.0134,0.9957,-0.67,-0.35,-1.93,-18.46,23.97,-29.23,0.98703,0.029542,-0.056215,0.147343,0.0,0.0,0.0,0,1
2026-06-16 16:25:29.671,3142845,R_Ankle,0.014,-0.0151,1.0048,0.77,-1.75,-0.5,-10.65,11.42,-51.2,0.328379,0.091922,0.007538,0.940001,0.0,0.0,0.0,0,1
2026-06-16 16:25:29.672,139856,L_Ankle,0.0913,0.0139,0.9909,-0.68,-0.35,-1.93,-18.11,23.61,-29.9,0.98703,0.029542,-0.056246,0.147343,0.0,0.0,0.0,0,1
2026-06-16 16:25:29.674,139876,L_Ankle,0.0898,0.0212,0.9986,-0.67,-0.35,-1.93,0.0,0.0,0.0,0.98703,0.029542,-0.056215,0.147343,0.0,0.0,0.0,0,1
2026-06-16 16:25:29.677,3142797,R_Hip,0.0308,0.001,1.0092,0.38,-0.29,9.37,-23.98,13.76,-38.61,0.99707,0.00531,-0.038148,-0.065706,0.0,0.0,0.0,0,1
2026-06-16 16:25:29.677,139896,L_Ankle,0.0884,-0.0017,0.9145,-0.67,-0.36,-1.93,-19.32,24.16,-28.73,0.98703,0.029542,-0.056215,0.147343,0.0,0.0,0.0,0,1
2026-06-16 16:25:29.681,139757,L_Hip,0.1161,-0.0759,0.9992,0.2,-0.25,0.79,-28.89,21.71,-35.11,0.990783,-0.033296,-0.063234,-0.114994,0.0,0.0,0.0,0,1
2026-06-16 16:25:29.681,3142817,R_Hip,0.0456,-0.0023,0.9712,0.35,-0.3,9.35,-23.97,13.02,-37.58,0.99707,0.005341,-0.038148,-0.065706,0.0,0.0,0.0,0,1
2026-06-16 16:25:29.685,3142837,R_Hip,0.0417,-0.0052,0.9736,0.36,-0.3,9.37,0.0,0.0,0.0,0.99707,0.00531,-0.038148,-0.065706,0.0,0.0,0.0,0,1
2026-06-16 16:25:29.685,139777,L_Hip,0.1097,-0.071,0.9943,0.2,-0.24,0.78,-29.57,21.7,-34.81,0.990783,-0.033296,-0.063234,-0.114963,0.0,0.0,0.0,0,1
2026-06-16 16:25:29.687,139797,L_Hip,0.1097,-0.0597,0.9982,0.19,-0.24,0.78,0.0,0.0,0.0,0.990783,-0.033296,-0.063234,-0.114994,0.0,0.0,0.0,0,1
2026-06-16 16:25:29.687,3142798,R_Hip,0.0372,-0.0062,0.9799,0.36,-0.3,9.36,-23.25,13.02,-37.58,0.99707,0.00528,-0.038148,-0.065706,0.0,0.0,0.0,0,1
2026-06-16 16:25:29.689,139817,L_Hip,0.118,-0.0671,0.9929,0.19,-0.24,0.77,-28.78,18.97,-34.37,0.990783,-0.033296,-0.063234,-0.114994,0.0,0.0,0.0,0,1
2026-06-16 16:25:29.692,139760,L_Shank,0.0252,-0.0033,0.9897,1.69,-0.74,-0.4,0.14,11.4,-33.74,0.999298,-0.002258,-0.035371,0.011048,0.0,0.0,0.0,0,1
2026-06-16 16:25:29.694,139780,L_Shank,0.0204,-0.0004,0.9786,1.69,-0.74,-0.41,0.0,0.0,0.0,0.999298,-0.002289,-0.03534,0.011048,0.0,0.0,0.0,0,1
2026-06-16 16:25:29.696,139800,L_Shank,0.0174,-0.0072,0.9762,1.68,-0.74,-0.4,-0.37,10.23,-34.49,0.999298,-0.002319,-0.03534,0.011048,0.0,0.0,0.0,0,1
2026-06-16 16:25:29.698,139820,L_Shank,0.0507,0.0034,1.0329,1.7,-0.74,-0.4,-0.73,11.22,-32.95,0.999298,-0.002319,-0.035371,0.011048,0.0,0.0,0.0,0,1
2026-06-16 16:25:29.701,139800,L_Ankle,0.0957,0.01,0.9818,-0.65,-0.35,-1.91,-18.61,22.73,-29.06,0.98703,0.029511,-0.056215,0.147343,0.0,0.0,0.0,0,1
2026-06-16 16:25:29.705,139820,L_Ankle,0.0923,0.0158,1.013,-0.66,-0.37,-1.9,-17.4,24.31,-28.52,0.98703,0.029511,-0.056215,0.147343,0.0,0.0,0.0,0,1
2026-06-16 16:25:29.705,3142825,R_Shank,-0.0842,-3.1484,0.9975,-0.03,-0.88,-1.57,-14.6,6.53,-46.11,0.91934,0.024476,0.020722,-0.392132,0.0,0.0,0.0,0,1
2026-06-16 16:25:29.707,139840,L_Ankle,0.0982,0.0398,0.9933,-0.66,-0.37,-1.93,0.0,0.0,0.0,0.98703,0.029481,-0.056185,0.147343,0.0,0.0,0.0,0,1
2026-06-16 16:25:29.708,3142845,R_Shank,-0.0964,1.346,1.0047,-0.02,-0.88,-1.56,-14.59,6.52,-47.02,0.919309,0.024476,0.020722,-0.392132,0.0,0.0,0.0,0,1
2026-06-16 16:25:29.710,139860,L_Ankle,0.0923,0.0114,0.9986,-0.66,-0.37,-1.92,-18.95,23.45,-28.05,0.98703,0.029481,-0.056185,0.147343,0.0,0.0,0.0,0,1
2026-06-16 16:25:29.711,3142865,R_Shank,-0.0876,2.246,1.0052,-0.03,-0.87,-1.56,0.0,0.0,0.0,0.91934,0.024476,0.020722,-0.392132,0.0,0.0,0.0,0,1
2026-06-16 16:25:29.713,139806,L_Shank,0.0277,-0.0004,0.9686,1.7,-0.73,-0.4,0.85,10.75,-35.29,0.999298,-0.00235,-0.035371,0.011048,0.0,0.0,0.0,0,1
2026-06-16 16:25:29.713,3142885,R_Shank,-0.0906,2.8872,1.008,-0.03,-0.89,-1.56,-15.42,4.73,-45.36,0.91934,0.024476,0.020722,-0.392132,0.0,0.0,0.0,0,1
2026-06-16 16:25:29.715,139826,L_Shank,0.0335,-0.0023,0.9734,1.69,-0.74,-0.39,0.0,0.0,0.0,0.999298,-0.002319,-0.035371,0.011048,0.0,0.0,0.0,0,1
2026-06-16 16:25:29.716,3142830,R_Ankle,0.014,-0.0161,0.9856,0.77,-1.75,-0.51,-10.65,11.74,-51.2,0.328379,0.091891,0.007538,0.940031,0.0,0.0,0.0,0,1
2026-06-16 16:25:29.718,139846,L_Shank,0.0252,-0.0209,0.957,1.68,-0.74,-0.4,0.14,10.73,-34.04,0.999298,-0.002319,-0.03534,0.011048,0.0,0.0,0.0,0,1
2026-06-16 16:25:29.719,3142850,R_Ankle,0.0204,-0.0101,0.9895,0.78,-1.75,-0.5,-11.49,12.2,-50.14,0.328379,0.091922,0.007508,0.940001,0.0,0.0,0.0,0,1
2026-06-16 16:25:29.721,139866,L_Shank,0.0292,-0.0058,0.9878,1.7,-0.71,-0.4,1.54,9.04,-34.65,0.999298,-0.00235,-0.03534,0.011048,0.0,0.0,0.0,0,1
2026-06-16 16:25:29.722,3142870,R_Ankle,0.0077,-0.0052,1.0029,0.77,-1.74,-0.51,0.0,0.0,0.0,0.328379,0.091922,0.007477,0.940001,0.0,0.0,0.0,0,1
2026-06-16 16:25:29.724,3142890,R_Ankle,0.0184,-0.0121,1.011,0.77,-1.74,-0.5,-11.5,10.61,-50.43,0.328379,0.091922,0.007508,0.940001,0.0,0.0,0.0,0,1
2026-06-16 16:25:29.725,139807,L_Hip,0.118,-0.0656,0.9856,0.19,-0.24,0.77,-27.91,20.76,-34.25,0.990783,-0.033296,-0.063265,-0.114963,0.0,0.0,0.0,0,1
2026-06-16 16:25:29.727,3142842,R_Hip,0.0328,-0.0028,0.9953,0.38,-0.31,9.36,-22.88,13.02,-37.92,0.99707,0.00528,-0.038148,-0.065706,0.0,0.0,0.0,0,1
2026-06-16 16:25:29.728,139827,L_Hip,0.1102,-0.0666,0.9808,0.19,-0.25,0.77,-28.76,19.94,-34.67,0.990783,-0.033296,-0.063295,-0.114963,0.0,0.0,0.0,0,1
2026-06-16 16:25:29.730,3142862,R_Hip,0.0407,0.0113,0.9909,0.38,-0.29,9.35,-23.25,13.75,-37.24,0.99707,0.00528,-0.038179,-0.065706,0.0,0.0,0.0,0,1
2026-06-16 16:25:29.731,139847,L_Hip,0.1126,-0.0754,0.9827,0.19,-0.25,0.78,0.0,0.0,0.0,0.990783,-0.033326,-0.063265,-0.114963,0.0,0.0,0.0,0,1
2026-06-16 16:25:29.732,3142882,R_Hip,0.0412,-0.0062,0.9885,0.38,-0.29,9.36,0.0,0.0,0.0,0.99707,0.00531,-0.038148,-0.065706,0.0,0.0,0.0,0,1
2026-06-16 16:25:29.734,139867,L_Hip,0.1053,-0.0676,0.9861,0.19,-0.24,0.77,-29.57,21.05,-35.1,0.990783,-0.033326,-0.063173,-0.114963,0.0,0.0,0.0,0,1
2026-06-16 16:25:29.735,3142843,R_Hip,0.0407,0.0074,0.9828,0.37,-0.29,9.38,-22.34,14.3,-38.78,0.99707,0.005249,-0.038148,-0.065706,0.0,0.0,0.0,0,1
2026-06-16 16:25:29.737,139822,L_Ankle,0.0972,0.0271,0.9827,-0.66,-0.35,-1.92,-18.76,23.27,-27.53,0.98703,0.02942,-0.056215,0.147343,0.0,0.0,0.0,0,1
2026-06-16 16:25:29.738,3142852,R_Ankle,0.0263,-0.0166,1.0034,0.77,-1.74,-0.49,-9.97,10.78,-50.26,0.328379,0.091891,0.007508,0.940001,0.0,0.0,0.0,0,1
2026-06-16 16:25:29.740,139842,L_Ankle,0.1021,0.009,0.9899,-0.67,-0.35,-1.93,-18.97,23.09,-29.41,0.98703,0.029511,-0.056215,0.147343,0.0,0.0,0.0,0,1
2026-06-16 16:25:29.741,3142872,R_Ankle,0.0199,-0.0081,1.012,0.77,-1.75,-0.49,-11.68,10.45,-50.58,0.328379,0.091922,0.007508,0.940001,0.0,0.0,0.0,0,1
2026-06-16 16:25:29.743,139862,L_Ankle,0.0991,0.0056,0.975,-0.67,-0.35,-1.91,0.0,0.0,0.0,0.98703,0.029481,-0.056215,0.147343,0.0,0.0,0.0,0,1
2026-06-16 16:25:29.743,3142892,R_Ankle,0.017,-0.0136,0.9976,0.77,-1.74,-0.49,0.0,0.0,0.0,0.328379,0.091922,0.007508,0.940001,0.0,0.0,0.0,0,1
2026-06-16 16:25:29.746,139882,L_Ankle,0.1036,0.0246,0.987,-0.67,-0.36,-1.91,-19.14,23.27,-29.24,0.98703,0.029511,-0.056215,0.147343,0.0,0.0,0.0,0,1
2026-06-16 16:25:29.746,3142853,R_Ankle,0.0189,-0.0136,0.9986,0.77,-1.75,-0.51,-12.35,12.04,-51.22,0.328379,0.091922,0.007508,0.940001,0.0,0.0,0.0,0,1
2026-06-16 16:25:29.748,139827,L_Shank,0.0248,0.0005,0.9988,1.69,-0.74,-0.39,-0.2,10.73,-34.35,0.999298,-0.002319,-0.035371,0.011048,0.0,0.0,0.0,0,1
2026-06-16 16:25:29.749,3142870,R_Shank,-0.0974,3.2756,1.0287,-0.03,-0.87,-1.56,-13.87,4.84,-48.55,0.91934,0.024506,0.020722,-0.392132,0.0,0.0,0.0,0,1
2026-06-16 16:25:29.751,139847,L_Shank,0.0272,-0.0107,0.9705,1.7,-0.74,-0.4,0.0,0.0,0.0,0.999298,-0.002319,-0.03534,0.011017,0.0,0.0,0.0,0,1
2026-06-16 16:25:29.753,3142890,R_Shank,-0.0906,0.7048,1.0306,-0.02,-0.88,-1.57,-13.55,5.83,-47.94,0.91934,0.024506,0.020722,-0.392132,0.0,0.0,0.0,0,1
2026-06-16 16:25:29.754,139867,L_Shank,0.0272,-0.019,0.9657,1.69,-0.74,-0.39,-0.39,10.54,-32.32,0.999298,-0.002289,-0.03534,0.011017,0.0,0.0,0.0,0,1
2026-06-16 16:25:29.756,3142910,R_Shank,-0.0783,-0.1956,0.971,-0.03,-0.88,-1.56,0.0,0.0,0.0,0.91934,0.024506,0.020753,-0.392132,0.0,0.0,0.0,0,1
2026-06-16 16:25:29.757,139887,L_Shank,0.0282,-0.0097,0.9906,1.69,-0.72,-0.41,-1.07,10.56,-33.87,0.999298,-0.002289,-0.03531,0.011017,0.0,0.0,0.0,0,1
2026-06-16 16:25:29.760,139832,L_Hip,0.1215,-0.0626,0.9803,0.18,-0.25,0.79,-29.42,20.25,-34.95,0.990783,-0.033326,-0.063204,-0.114963,0.0,0.0,0.0,0,1
2026-06-16 16:25:29.760,3142930,R_Shank,-0.0847,2.246,0.9869,-0.01,-0.88,-1.56,-14.23,5.19,-46.73,0.91934,0.024476,0.020722,-0.392132,0.0,0.0,0.0,0,1
2026-06-16 16:25:29.762,139852,L_Hip,0.1117,-0.0705,0.9735,0.18,-0.24,0.78,-27.7,21.9,-35.27,0.990783,-0.033357,-0.063204,-0.114963,0.0,0.0,0.0,0,1
2026-06-16 16:25:29.763,3142875,R_Ankle,0.014,-0.0146,1.0048,0.77,-1.74,-0.49,-10.66,10.79,-51.19,0.328379,0.091922,0.007508,0.940001,0.0,0.0,0.0,0,1
2026-06-16 16:25:29.765,139872,L_Hip,0.1068,-0.0646,0.9754,0.19,-0.25,0.78,0.0,0.0,0.0,0.990783,-0.033326,-0.063173,-0.114963,0.0,0.0,0.0,0,1
2026-06-16 16:25:29.766,3142895,R_Ankle,0.016,-0.0072,1.001,0.76,-1.74,-0.5,-12.0,11.39,-49.67,0.328379,0.091922,0.007508,0.940001,0.0,0.0,0.0,0,1
2026-06-16 16:25:29.768,139892,L_Hip,0.1107,-0.0681,0.9841,0.19,-0.24,0.78,-28.23,20.76,-35.12,0.990783,-0.033326,-0.063173,-0.114963,0.0,0.0,0.0,0,1
2026-06-16 16:25:29.769,3142915,R_Ankle,0.0243,-0.021,1.012,0.77,-1.74,-0.5,-11.67,11.4,-50.28,0.328379,0.091952,0.007538,0.940001,0.0,0.0,0.0,0,1
2026-06-16 16:25:29.771,139845,L_Ankle,0.1031,0.0339,0.9774,-0.67,-0.35,-1.91,-19.13,22.92,-28.9,0.98703,0.029511,-0.056215,0.147343,0.0,0.0,0.0,0,1
2026-06-16 16:25:29.772,3142935,R_Ankle,0.0008,-0.0136,1.0081,0.76,-1.74,-0.51,0.0,0.0,0.0,0.328379,0.091952,0.007508,0.940001,0.0,0.0,0.0,0,1
2026-06-16 16:25:29.774,139865,L_Ankle,0.0908,0.0134,0.9904,-0.67,-0.35,-1.92,-20.54,23.29,-29.27,0.98703,0.029511,-0.056185,0.147343,0.0,0.0,0.0,0,1
2026-06-16 16:25:29.776,3142887,R_Hip,0.0422,0.0093,1.0039,0.37,-0.29,9.35,-23.06,13.93,-37.75,0.99707,0.005249,-0.038209,-0.065706,0.0,0.0,0.0,0,1
2026-06-16 16:25:29.778,139885,L_Ankle,0.0967,0.0212,0.9909,-0.67,-0.36,-1.91,0.0,0.0,0.0,0.98703,0.029511,-0.056215,0.147343,0.0,0.0,0.0,0,1
2026-06-16 16:25:29.779,3142888,R_Hip,0.0358,0.0064,0.9722,0.39,-0.31,9.37,-22.88,13.75,-37.24,0.99707,0.005249,-0.03824,-0.065706,0.0,0.0,0.0,0,1
2026-06-16 16:25:29.781,139905,L_Ankle,0.1036,0.0144,0.9986,-0.67,-0.35,-1.92,-18.11,25.74,-27.85,0.98703,0.029481,-0.056215,0.147343,0.0,0.0,0.0,0,1
2026-06-16 16:25:29.782,3142908,R_Hip,0.0441,0.0074,0.9832,0.38,-0.3,9.37,0.0,0.0,0.0,0.99707,0.005249,-0.03824,-0.065706,0.0,0.0,0.0,0,1
2026-06-16 16:25:29.784,139867,L_Ankle,0.0918,0.0241,0.9918,-0.66,-0.36,-1.93,-18.26,24.15,-27.69,0.98703,0.029481,-0.056246,0.147343,0.0,0.0,0.0,0,1
2026-06-16 16:25:29.784,3142928,R_Hip,0.0348,-0.0003,1.0063,0.37,-0.32,9.36,-24.16,13.21,-38.09,0.99707,0.005249,-0.03824,-0.065706,0.0,0.0,0.0,0,1
2026-06-16 16:25:29.788,139887,L_Ankle,0.0913,0.0285,0.9995,-0.67,-0.36,-1.91,-20.19,22.93,-29.26,0.98703,0.029511,-0.056246,0.147343,0.0,0.0,0.0,0,1
2026-06-16 16:25:29.789,3142892,R_Shank,-0.0915,-1.7368,0.9999,-0.02,-0.87,-1.56,-14.39,5.03,-46.88,0.91934,0.024476,0.020722,-0.392132,0.0,0.0,0.0,0,1
2026-06-16 16:25:29.790,139907,L_Ankle,0.0908,0.0212,0.9856,-0.67,-0.36,-1.92,0.0,0.0,0.0,0.98703,0.029511,-0.056246,0.147343,0.0,0.0,0.0,0,1
2026-06-16 16:25:29.791,3142912,R_Shank,-0.0906,-0.066,1.008,-0.03,-0.87,-1.56,-13.06,5.34,-46.29,0.91934,0.024476,0.020692,-0.392132,0.0,0.0,0.0,0,1
2026-06-16 16:25:29.794,139927,L_Ankle,0.0859,0.0188,1.0067,-0.66,-0.35,-1.93,-19.49,24.34,-28.22,0.98703,0.029511,-0.056246,0.147343,0.0,0.0,0.0,0,1
2026-06-16 16:25:29.794,3142932,R_Shank,-0.094,-0.1956,0.996,-0.02,-0.88,-1.55,0.0,0.0,0.0,0.91934,0.024537,0.020722,-0.392132,0.0,0.0,0.0,0,1
2026-06-16 16:25:29.797,139882,L_Hip,0.1205,-0.0626,0.9764,0.2,-0.23,0.77,-29.59,20.41,-34.8,0.990783,-0.033326,-0.063173,-0.114963,0.0,0.0,0.0,0,1
2026-06-16 16:25:29.797,3142893,R_Shank,-0.0886,-0.1956,1.0008,-0.02,-0.87,-1.56,-13.58,6.18,-46.73,0.91934,0.024506,0.020722,-0.392132,0.0,0.0,0.0,0,1
2026-06-16 16:25:29.800,139902,L_Hip,0.1107,-0.0656,0.9837,0.19,-0.25,0.77,-29.76,20.24,-34.95,0.990783,-0.033296,-0.063204,-0.114963,0.0,0.0,0.0,0,1
2026-06-16 16:25:29.801,3142910,R_Hip,0.0422,-0.0008,0.9828,0.38,-0.29,9.37,-23.61,15.21,-37.93,0.99707,0.00528,-0.03824,-0.065676,0.0,0.0,0.0,0,1
2026-06-16 16:25:29.803,139922,L_Hip,0.1141,-0.0656,0.9735,0.19,-0.24,0.78,-28.24,20.76,-34.83,0.990783,-0.033326,-0.063173,-0.114963,0.0,0.0,0.0,0,1
2026-06-16 16:25:29.803,3142930,R_Hip,0.0431,0.004,0.9948,0.37,-0.3,9.36,-22.88,12.29,-36.55,0.99707,0.00528,-0.03824,-0.065676,0.0,0.0,0.0,0,1
2026-06-16 16:25:29.805,139942,L_Hip,0.1112,-0.0681,0.9822,0.21,-0.24,0.77,0.0,0.0,0.0,0.990783,-0.033296,-0.063143,-0.114963,0.0,0.0,0.0,0,1
2026-06-16 16:25:29.806,3142950,R_Hip,0.0402,-0.0028,0.9799,0.37,-0.31,9.36,0.0,0.0,0.0,0.99707,0.00528,-0.03827,-0.065676,0.0,0.0,0.0,0,1
2026-06-16 16:25:29.808,139895,L_Shank,0.0204,-0.0077,0.9676,1.69,-0.74,-0.38,0.3,10.88,-32.64,0.999298,-0.002289,-0.03534,0.011017,0.0,0.0,0.0,0,1
2026-06-16 16:25:29.809,3142970,R_Hip,0.0402,0.003,0.9909,0.38,-0.3,9.35,-23.43,13.2,-37.06,0.99707,0.00528,-0.03827,-0.065676,0.0,0.0,0.0,0,1
2026-06-16 16:25:29.810,139915,L_Shank,0.0311,-0.0087,0.9916,1.68,-0.74,-0.4,0.0,0.0,0.0,0.999298,-0.002319,-0.035371,0.011017,0.0,0.0,0.0,0,1
2026-06-16 16:25:29.812,3142915,R_Shank,-0.0837,-2.896,0.9946,-0.01,-0.88,-1.56,-15.59,5.88,-46.71,0.91934,0.024567,0.020692,-0.392102,0.0,0.0,0.0,0,1
2026-06-16 16:25:29.813,139935,L_Shank,0.0316,-0.0151,0.9748,1.68,-0.74,-0.39,1.36,10.56,-34.2,0.999298,-0.002319,-0.03534,0.011017,0.0,0.0,0.0,0,1
2026-06-16 16:25:29.815,3142935,R_Shank,-0.0852,0.5752,0.997,-0.01,-0.88,-1.56,-13.41,6.66,-47.18,0.91934,0.024506,0.020692,-0.392102,0.0,0.0,0.0,0,1
2026-06-16 16:25:29.816,139955,L_Shank,0.0228,-0.0033,1.0108,1.68,-0.76,-0.39,-0.02,10.91,-34.82,0.999298,-0.002319,-0.035371,0.011017,0.0,0.0,0.0,0,1
2026-06-16 16:25:29.818,3142955,R_Shank,-0.0999,-2.3776,0.998,-0.02,-0.86,-1.56,0.0,0.0,0.0,0.91934,0.024537,0.020661,-0.392102,0.0,0.0,0.0,0,1
2026-06-16 16:25:29.819,139907,L_Hip,0.1166,-0.0626,0.9812,0.19,-0.25,0.77,-29.39,21.54,-35.25,0.990783,-0.033326,-0.063173,-0.114963,0.0,0.0,0.0,0,1
2026-06-16 16:25:29.821,3142975,R_Shank,-0.091,-2.6368,1.0061,-0.03,-0.87,-1.57,-13.05,5.01,-46.29,0.91934,0.024537,0.020692,-0.392102,0.0,0.0,0.0,0,1
2026-06-16 16:25:29.822,139927,L_Hip,0.1009,-0.0597,0.9914,0.19,-0.26,0.78,-27.87,21.41,-35.7,0.990783,-0.033326,-0.063204,-0.114963,0.0,0.0,0.0,0,1
2026-06-16 16:25:29.824,3142920,R_Ankle,0.017,-0.0195,0.9943,0.77,-1.74,-0.49,-11.84,10.93,-50.74,0.328379,0.091922,0.007508,0.940001,0.0,0.0,0.0,0,1
2026-06-16 16:25:29.825,139947,L_Hip,0.1156,-0.0685,0.9953,0.2,-0.24,0.77,0.0,0.0,0.0,0.990783,-0.033326,-0.063173,-0.114963,0.0,0.0,0.0,0,1
2026-06-16 16:25:29.827,3142940,R_Ankle,0.0135,-0.0101,1.0216,0.77,-1.74,-0.49,-11.84,11.56,-50.44,0.328379,0.091952,0.007477,0.940001,0.0,0.0,0.0,0,1
2026-06-16 16:25:29.828,139967,L_Hip,0.1126,-0.0857,1.0011,0.19,-0.25,0.77,-29.23,21.38,-35.1,0.990783,-0.033296,-0.063204,-0.114963,0.0,0.0,0.0,0,1
2026-06-16 16:25:29.829,3142960,R_Ankle,0.0199,-0.0146,1.012,0.76,-1.74,-0.51,0.0,0.0,0.0,0.328379,0.091922,0.007477,0.940001,0.0,0.0,0.0,0,1
2026-06-16 16:25:29.832,3142980,R_Ankle,0.0253,-0.0067,1.0072,0.77,-1.74,-0.5,-10.64,11.73,-49.97,0.328379,0.091891,0.007477,0.940001,0.0,0.0,0.0,0,1
2026-06-16 16:25:29.832,139912,L_Ankle,0.0918,0.0173,0.9866,-0.66,-0.36,-1.92,-19.5,24.34,-28.9,0.98703,0.029511,-0.056246,0.147343,0.0,0.0,0.0,0,1
2026-06-16 16:25:29.834,3142937,R_Shank,-0.0847,-2.7664,1.0008,-0.03,-0.88,-1.55,-12.54,5.16,-46.75,0.91934,0.024598,0.020692,-0.392102,0.0,0.0,0.0,0,1
2026-06-16 16:25:29.836,139932,L_Ankle,0.0869,0.0217,0.9774,-0.67,-0.36,-1.93,-18.25,22.73,-28.72,0.98703,0.029481,-0.056246,0.147343,0.0,0.0,0.0,0,1
2026-06-16 16:25:29.836,3142957,R_Shank,-0.0876,-0.066,0.9946,-0.03,-0.88,-1.57,0.0,0.0,0.0,0.91934,0.024567,0.020692,-0.392102,0.0,0.0,0.0,0,1
2026-06-16 16:25:29.838,139952,L_Ankle,0.1006,0.0183,1.0,-0.67,-0.35,-1.92,-18.26,24.5,-27.69,0.98703,0.029511,-0.056246,0.147343,0.0,0.0,0.0,0,1
2026-06-16 16:25:29.839,3142977,R_Shank,-0.0866,-2.8892,0.9989,-0.02,-0.9,-1.57,-13.57,5.52,-45.83,0.91934,0.024567,0.020692,-0.392102,0.0,0.0,0.0,0,1
2026-06-16 16:25:29.840,139972,L_Ankle,0.0967,0.0241,0.9755,-0.66,-0.37,-1.9,0.0,0.0,0.0,0.98703,0.029511,-0.056246,0.147343,0.0,0.0,0.0,0,1
2026-06-16 16:25:29.841,3142938,R_Shank,-0.1033,1.0868,1.0133,-0.03,-0.89,-1.56,-13.87,4.85,-47.94,0.91934,0.024506,0.020692,-0.392102,0.0,0.0,0.0,0,1
2026-06-16 16:25:29.843,139917,L_Shank,0.0204,0.0,0.9806,1.68,-0.74,-0.38,-0.03,12.25,-33.59,0.999298,-0.00235,-0.035371,0.011017,0.0,0.0,0.0,0,1
2026-06-16 16:25:29.844,3142942,R_Ankle,0.0165,-0.0042,0.9971,0.77,-1.74,-0.5,-10.99,12.05,-50.9,0.32841,0.091922,0.007477,0.940001,0.0,0.0,0.0,0,1
2026-06-16 16:25:29.846,139937,L_Shank,0.0287,-0.0141,0.9786,1.69,-0.75,-0.41,0.0,0.0,0.0,0.999298,-0.00238,-0.035401,0.011048,0.0,0.0,0.0,0,1
2026-06-16 16:25:29.847,3142962,R_Ankle,0.0253,-0.0062,1.001,0.77,-1.76,-0.48,-10.13,11.89,-50.43,0.32841,0.091922,0.007508,0.940001,0.0,0.0,0.0,0,1
2026-06-16 16:25:29.848,139957,L_Shank,0.0208,-0.0043,0.9854,1.7,-0.73,-0.41,0.49,10.39,-34.04,0.999298,-0.00235,-0.035401,0.011048,0.0,0.0,0.0,0,1
2026-06-16 16:25:29.850,3142982,R_Ankle,0.0248,-0.0111,1.0096,0.77,-1.76,-0.49,-9.45,11.26,-50.11,0.328379,0.091952,0.007538,0.940001,0.0,0.0,0.0,0,1
2026-06-16 16:25:29.851,139977,L_Shank,0.0184,-0.0082,0.9734,1.69,-0.74,-0.41,-0.9,10.39,-33.71,0.999298,-0.00238,-0.035401,0.011048,0.0,0.0,0.0,0,1
2026-06-16 16:25:29.852,3142943,R_Ankle,0.0121,-0.0181,1.001,0.77,-1.73,-0.49,0.0,0.0,0.0,0.328379,0.091922,0.007538,0.940001,0.0,0.0,0.0,0,1
2026-06-16 16:25:29.853,3142955,R_Hip,0.0333,0.003,0.9982,0.37,-0.3,9.35,-21.97,12.84,-37.4,0.99707,0.00528,-0.03827,-0.065676,0.0,0.0,0.0,0,1
2026-06-16 16:25:29.855,3142975,R_Hip,0.0367,0.0045,1.0073,0.38,-0.3,9.37,-23.06,13.2,-38.09,0.99707,0.00528,-0.03827,-0.065676,0.0,0.0,0.0,0,1
2026-06-16 16:25:29.856,3142995,R_Hip,0.0397,-0.0047,0.9799,0.36,-0.3,9.35,0.0,0.0,0.0,0.99707,0.00531,-0.03824,-0.065676,0.0,0.0,0.0,0,1
2026-06-16 16:25:29.859,3143015,R_Hip,0.0417,-0.0013,0.9943,0.37,-0.29,9.35,-22.7,13.2,-37.75,0.99707,0.00528,-0.03824,-0.065706,0.0,0.0,0.0,0,1
2026-06-16 16:25:29.860,139957,L_Hip,0.1102,-0.0725,0.9875,0.19,-0.24,0.77,-28.75,19.94,-35.54,0.990783,-0.033326,-0.063173,-0.114963,0.0,0.0,0.0,0,1
2026-06-16 16:25:29.862,3142960,R_Shank,-0.0891,-0.3248,1.0157,-0.03,-0.87,-1.57,-15.42,5.71,-46.86,0.91934,0.024537,0.020722,-0.392102,0.0,0.0,0.0,0,1
2026-06-16 16:25:29.862,139977,L_Hip,0.1063,-0.0631,0.9832,0.19,-0.25,0.78,-28.36,22.53,-35.56,0.990783,-0.033296,-0.063204,-0.114963,0.0,0.0,0.0,0,1
2026-06-16 16:25:29.864,3142980,R_Shank,-0.0906,-2.7664,0.996,-0.03,-0.87,-1.57,0.0,0.0,0.0,0.91934,0.024537,0.020692,-0.392102,0.0,0.0,0.0,0,1
2026-06-16 16:25:29.865,139997,L_Hip,0.1082,-0.0715,0.9832,0.19,-0.25,0.78,-28.93,20.74,-33.94,0.990783,-0.033296,-0.063204,-0.114963,0.0,0.0,0.0,0,1
2026-06-16 16:25:29.868,3143000,R_Shank,-0.0945,-1.866,1.0133,-0.03,-0.87,-1.57,-14.08,5.7,-45.67,0.91934,0.024537,0.020692,-0.392132,0.0,0.0,0.0,0,1
2026-06-16 16:25:29.869,140017,L_Hip,0.1122,-0.0661,0.9866,0.2,-0.24,0.77,-28.43,19.62,-34.38,0.990783,-0.033296,-0.063234,-0.114963,0.0,0.0,0.0,0,1
2026-06-16 16:25:29.871,139962,L_Shank,0.0228,0.0015,0.9844,1.69,-0.72,-0.39,1.71,10.89,-33.59,0.999298,-0.00235,-0.035401,0.011048,0.0,0.0,0.0,0,1
2026-06-16 16:25:29.872,3143020,R_Shank,-0.0896,3.0168,1.0013,-0.03,-0.87,-1.56,-14.72,4.05,-46.58,0.91934,0.024567,0.020722,-0.392132,0.0,0.0,0.0,0,1
2026-06-16 16:25:29.873,139982,L_Shank,0.0282,-0.0121,0.9887,1.68,-0.74,-0.41,0.0,0.0,0.0,0.999298,-0.00235,-0.035401,0.011048,0.0,0.0,0.0,0,1
2026-06-16 16:25:29.875,3142982,R_Shank,-0.0866,-0.966,1.0143,-0.02,-0.88,-1.56,-13.9,5.19,-46.43,0.91934,0.024537,0.020722,-0.392132,0.0,0.0,0.0,0,1
2026-06-16 16:25:29.877,140002,L_Shank,0.0311,-0.0126,0.9772,1.69,-0.73,-0.39,-0.53,11.43,-35.29,0.999298,-0.00235,-0.035401,0.011048,0.0,0.0,0.0,0,1
2026-06-16 16:25:29.879,3143002,R_Shank,-0.0842,-1.866,0.9917,-0.03,-0.87,-1.56,0.0,0.0,0.0,0.91934,0.024567,0.020722,-0.392102,0.0,0.0,0.0,0,1
2026-06-16 16:25:29.881,140022,L_Shank,0.0208,-0.0048,0.9681,1.68,-0.72,-0.4,0.15,12.1,-34.68,0.999298,-0.00238,-0.035432,0.011048,0.0,0.0,0.0,0,1
2026-06-16 16:25:29.882,3143022,R_Shank,-0.0891,-3.0256,0.9975,0.0,-0.89,-1.55,-15.59,6.21,-47.01,0.91934,0.024537,0.020692,-0.392102,0.0,0.0,0.0,0,1
2026-06-16 16:25:29.885,139980,L_Ankle,0.0864,0.0153,0.9986,-0.66,-0.35,-1.92,-18.27,24.14,-28.71,0.98703,0.029511,-0.056215,0.147343,0.0,0.0,0.0,0,1
2026-06-16 16:25:29.886,3142983,R_Shank,-0.0994,0.7048,1.0071,-0.01,-0.87,-1.55,-13.59,6.84,-46.73,0.91934,0.024567,0.020661,-0.392102,0.0,0.0,0.0,0,1
2026-06-16 16:25:29.889,140000,L_Ankle,0.1001,0.0173,0.9923,-0.65,-0.36,-1.93,-17.69,21.84,-27.52,0.98703,0.029511,-0.056246,0.147343,0.0,0.0,0.0,0,1
2026-06-16 16:25:29.890,3143005,R_Shank,-0.0802,3.0168,1.0143,-0.02,-0.86,-1.56,-13.24,6.17,-46.43,0.91934,0.024598,0.020722,-0.392102,0.0,0.0,0.0,0,1
2026-06-16 16:25:29.893,140020,L_Ankle,0.0903,0.0285,0.9794,-0.67,-0.36,-1.93,-18.26,23.08,-29.05,0.98703,0.029511,-0.056215,0.147343,0.0,0.0,0.0,0,1
2026-06-16 16:25:29.894,3143025,R_Shank,-0.0778,2.246,1.0104,-0.03,-0.87,-1.56,0.0,0.0,0.0,0.91934,0.024628,0.020692,-0.392102,0.0,0.0,0.0,0,1
2026-06-16 16:25:29.896,140040,L_Ankle,0.0967,0.0183,0.9818,-0.65,-0.36,-1.92,0.0,0.0,0.0,0.98703,0.029511,-0.056246,0.147343,0.0,0.0,0.0,0,1
2026-06-16 16:25:29.896,3143045,R_Shank,-0.0896,2.8872,1.0047,-0.03,-0.87,-1.56,-13.93,7.17,-46.72,0.91934,0.024628,0.020692,-0.392102,0.0,0.0,0.0,0,1
2026-06-16 16:25:29.898,3143065,R_Shank,-0.0989,-0.966,1.0028,-0.02,-0.88,-1.55,-13.58,5.85,-46.13,0.91934,0.024628,0.020661,-0.392102,0.0,0.0,0.0,0,1
2026-06-16 16:25:29.900,139983,L_Hip,0.1097,-0.0681,0.9837,0.2,-0.23,0.77,-28.09,19.95,-34.39,0.990783,-0.033296,-0.063204,-0.114963,0.0,0.0,0.0,0,1
2026-06-16 16:25:29.901,3143010,R_Ankle,0.0189,-0.0141,1.0153,0.77,-1.75,-0.5,-10.97,12.36,-49.67,0.328379,0.091922,0.007569,0.940001,0.0,0.0,0.0,0,1
2026-06-16 16:25:29.903,140003,L_Hip,0.1171,-0.0656,0.9885,0.2,-0.25,0.77,-30.42,21.52,-34.36,0.990783,-0.033296,-0.063204,-0.114963,0.0,0.0,0.0,0,1
2026-06-16 16:25:29.904,3143030,R_Ankle,0.0273,-0.0106,1.0129,0.75,-1.74,-0.5,-10.48,10.94,-50.11,0.328379,0.091922,0.007569,0.940001,0.0,0.0,0.0,0,1
2026-06-16 16:25:29.906,140023,L_Hip,0.1141,-0.0661,0.9924,0.19,-0.25,0.79,-28.59,19.78,-34.82,0.990783,-0.033296,-0.063234,-0.114963,0.0,0.0,0.0,0,1
2026-06-16 16:25:29.906,3143050,R_Ankle,0.0184,-0.0062,1.0053,0.77,-1.75,-0.48,0.0,0.0,0.0,0.328379,0.091922,0.007538,0.940001,0.0,0.0,0.0,0,1
2026-06-16 16:25:29.909,140043,L_Hip,0.1107,-0.071,0.989,0.19,-0.24,0.78,-28.07,20.6,-34.68,0.990783,-0.033326,-0.063234,-0.114963,0.0,0.0,0.0,0,1
2026-06-16 16:25:29.910,3143070,R_Ankle,0.016,-0.0161,1.0144,0.76,-1.74,-0.49,-10.64,11.09,-49.65,0.328379,0.091952,0.007538,0.940001,0.0,0.0,0.0,0,1
2026-06-16 16:25:29.912,139985,L_Shank,0.0248,-0.0063,0.9724,1.69,-0.74,-0.41,0.49,9.71,-33.72,0.999298,-0.00235,-0.035432,0.011048,0.0,0.0,0.0,0,1
2026-06-16 16:25:29.913,3143027,R_Shank,-0.0891,2.8872,1.0047,-0.01,-0.89,-1.56,-14.75,5.7,-46.27,0.91934,0.024628,0.020661,-0.392102,0.0,0.0,0.0,0,1
2026-06-16 16:25:29.914,140005,L_Shank,0.0331,-0.0072,0.9863,1.7,-0.73,-0.41,0.0,0.0,0.0,0.999298,-0.00235,-0.035401,0.011048,0.0,0.0,0.0,0,1
2026-06-16 16:25:29.915,3143028,R_Shank,-0.0852,0.4456,1.0028,-0.03,-0.9,-1.57,0.0,0.0,0.0,0.91934,0.024598,0.020692,-0.392102,0.0,0.0,0.0,0,1
2026-06-16 16:25:29.917,140025,L_Shank,0.0272,-0.0072,0.9791,1.69,-0.74,-0.38,0.48,10.72,-33.42,0.999298,-0.00235,-0.035401,0.011048,0.0,0.0,0.0,0,1
2026-06-16 16:25:29.918,3143048,R_Shank,-0.0964,1.346,1.0181,-0.02,-0.89,-1.56,-14.39,4.7,-46.88,0.91934,0.024628,0.020661,-0.392102,0.0,0.0,0.0,0,1
2026-06-16 16:25:29.920,140045,L_Shank,0.0345,-0.0058,0.9705,1.7,-0.74,-0.39,0.14,10.39,-34.35,0.999298,-0.002319,-0.035401,0.011048,0.0,0.0,0.0,0,1
2026-06-16 16:25:29.921,3143068,R_Shank,-0.093,0.7048,0.9859,-0.03,-0.87,-1.55,-13.6,7.17,-46.12,0.91934,0.024628,0.020661,-0.392102,0.0,0.0,0.0,0,1
2026-06-16 16:25:29.923,140002,L_Ankle,0.0962,0.008,1.0024,-0.66,-0.37,-1.92,-18.43,23.97,-27.86,0.98703,0.029542,-0.056246,0.147343,0.0,0.0,0.0,0,1
2026-06-16 16:25:29.924,3143032,R_Ankle,0.0165,-0.0136,1.0105,0.77,-1.74,-0.5,-12.51,12.51,-50.15,0.328379,0.091922,0.007538,0.940001,0.0,0.0,0.0,0,1
2026-06-16 16:25:29.926,140022,L_Ankle,0.0874,0.0236,1.0019,-0.67,-0.36,-1.91,-17.93,24.85,-28.36,0.98703,0.029542,-0.056215,0.147343,0.0,0.0,0.0,0,1
2026-06-16 16:25:29.927,3143052,R_Ankle,0.017,-0.0146,1.0101,0.77,-1.75,-0.49,0.0,0.0,0.0,0.328379,0.091891,0.007538,0.940001,0.0,0.0,0.0,0,1
2026-06-16 16:25:29.929,140042,L_Ankle,0.0942,0.0163,0.9914,-0.67,-0.35,-1.93,-18.79,23.98,-28.55,0.98703,0.029511,-0.056215,0.147343,0.0,0.0,0.0,0,1
2026-06-16 16:25:29.930,3143072,R_Ankle,0.0145,-0.0106,1.0158,0.76,-1.74,-0.5,-11.32,12.68,-50.91,0.328379,0.091891,0.007538,0.940001,0.0,0.0,0.0,0,1
2026-06-16 16:25:29.931,140062,L_Ankle,0.0918,0.0217,0.9952,-0.65,-0.35,-1.92,-17.03,23.24,-28.52,0.98703,0.029542,-0.056215,0.147343,0.0,0.0,0.0,0,1
2026-06-16 16:25:29.932,3143033,R_Ankle,0.0121,-0.0076,1.0129,0.77,-1.74,-0.51,0.0,0.0,0.0,0.328379,0.091861,0.007538,0.940001,0.0,0.0,0.0,0,1
2026-06-16 16:25:29.934,140025,L_Ankle,0.0879,0.0153,0.9885,-0.68,-0.36,-1.91,-18.61,24.15,-27.7,0.98703,0.029542,-0.056215,0.147343,0.0,0.0,0.0,0,1
2026-06-16 16:25:29.936,3143045,R_Hip,0.0427,-0.0013,0.9914,0.38,-0.3,9.37,-22.15,13.02,-36.55,0.99707,0.00528,-0.03824,-0.065706,0.0,0.0,0.0,0,1
2026-06-16 16:25:29.937,140045,L_Ankle,0.0947,0.0158,0.9842,-0.67,-0.35,-1.91,0.0,0.0,0.0,0.98703,0.029511,-0.056215,0.147343,0.0,0.0,0.0,0,1
2026-06-16 16:25:29.938,3143065,R_Hip,0.0515,0.0059,0.9914,0.38,-0.29,9.36,-23.06,12.84,-37.06,0.99707,0.00528,-0.03827,-0.065706,0.0,0.0,0.0,0,1
2026-06-16 16:25:29.939,140065,L_Ankle,0.0967,0.0178,0.9933,-0.65,-0.35,-1.92,-18.45,24.32,-28.88,0.98703,0.029511,-0.056185,0.147343,0.0,0.0,0.0,0,1
2026-06-16 16:25:29.941,3143085,R_Hip,0.0397,0.0049,0.9986,0.38,-0.3,9.36,0.0,0.0,0.0,0.99707,0.00531,-0.038301,-0.065706,0.0,0.0,0.0,0,1
2026-06-16 16:25:29.943,140085,L_Ankle,0.0874,0.0236,0.9837,-0.66,-0.35,-1.92,-17.42,24.66,-29.54,0.98703,0.029511,-0.056185,0.147313,0.0,0.0,0.0,0,1
2026-06-16 16:25:29.944,3143105,R_Hip,0.0382,0.004,0.9755,0.37,-0.3,9.36,-23.06,12.84,-37.41,0.99707,0.00528,-0.038301,-0.065706,0.0,0.0,0.0,0,1
2026-06-16 16:25:29.946,140031,L_Shank,0.0238,0.0,0.9854,1.69,-0.75,-0.41,-1.08,10.54,-32.94,0.999298,-0.002319,-0.035371,0.011048,0.0,0.0,0.0,0,1
2026-06-16 16:25:29.947,3143055,R_Ankle,0.016,-0.0181,1.0019,0.77,-1.76,-0.5,-10.98,12.04,-49.98,0.328379,0.091861,0.007538,0.940001,0.0,0.0,0.0,0,1
2026-06-16 16:25:29.948,140051,L_Shank,0.0262,-0.0131,0.9758,1.69,-0.74,-0.4,-0.19,10.74,-34.66,0.999298,-0.00235,-0.035371,0.011048,0.0,0.0,0.0,0,1
2026-06-16 16:25:29.950,3143075,R_Ankle,0.0282,-0.0111,1.0163,0.77,-1.75,-0.51,-10.97,12.68,-49.98,0.328379,0.091861,0.007538,0.940001,0.0,0.0,0.0,0,1
2026-06-16 16:25:29.951,140071,L_Shank,0.0296,-0.0087,0.9825,1.68,-0.74,-0.4,0.0,0.0,0.0,0.999298,-0.00235,-0.035371,0.011048,0.0,0.0,0.0,0,1
2026-06-16 16:25:29.952,3143095,R_Ankle,0.0155,-0.0161,1.0053,0.77,-1.73,-0.51,-10.15,10.96,-51.65,0.328379,0.091861,0.007538,0.940001,0.0,0.0,0.0,0,1
2026-06-16 16:25:29.953,140091,L_Shank,0.0252,-0.0028,0.982,1.68,-0.74,-0.39,-0.02,9.55,-34.8,0.999298,-0.00235,-0.035371,0.011048,0.0,0.0,0.0,0,1
2026-06-16 16:25:29.954,3143115,R_Ankle,0.0253,-0.0151,1.022,0.76,-1.74,-0.49,0.0,0.0,0.0,0.328379,0.091861,0.007508,0.940001,0.0,0.0,0.0,0,1
2026-06-16 16:25:29.956,140032,L_Hip,0.1122,-0.0725,0.9803,0.18,-0.26,0.77,-27.55,21.73,-34.55,0.990783,-0.033326,-0.063204,-0.114963,0.0,0.0,0.0,0,1
2026-06-16 16:25:29.958,140052,L_Hip,0.1077,-0.0789,0.9783,0.19,-0.25,0.78,0.0,0.0,0.0,0.990783,-0.033326,-0.063204,-0.114963,0.0,0.0,0.0,0,1
2026-06-16 16:25:29.960,140072,L_Hip,0.1009,-0.0666,0.9822,0.19,-0.25,0.77,-28.41,20.59,-34.68,0.990783,-0.033326,-0.063204,-0.114963,0.0,0.0,0.0,0,1
2026-06-16 16:25:29.962,140092,L_Hip,0.1102,-0.0695,1.0011,0.19,-0.25,0.77,-28.06,20.92,-34.97,0.990783,-0.033326,-0.063204,-0.114963,0.0,0.0,0.0,0,1
2026-06-16 16:25:29.969,3143090,R_Hip,0.0387,-0.0003,0.9967,0.37,-0.3,9.36,-23.06,12.84,-37.41,0.99707,0.00528,-0.038301,-0.065706,0.0,0.0,0.0,0,1
2026-06-16 16:25:29.971,3143110,R_Hip,0.0362,0.003,0.9847,0.36,-0.29,9.37,-23.43,13.93,-36.72,0.99707,0.00528,-0.038301,-0.065706,0.0,0.0,0.0,0,1
2026-06-16 16:25:29.973,3143130,R_Hip,0.0436,0.0049,1.002,0.36,-0.3,9.37,0.0,0.0,0.0,0.99707,0.00528,-0.038301,-0.065706,0.0,0.0,0.0,0,1
2026-06-16 16:25:29.974,3143150,R_Hip,0.0323,0.0035,0.9885,0.37,-0.3,9.36,-23.43,12.47,-36.38,0.99707,0.00528,-0.038331,-0.065706,0.0,0.0,0.0,0,1
2026-06-16 16:25:29.977,3143095,R_Shank,-0.0886,1.0868,1.0119,-0.01,-0.89,-1.55,-13.92,7.17,-47.32,0.91934,0.024659,0.020692,-0.392102,0.0,0.0,0.0,0,1
2026-06-16 16:25:29.978,140075,L_Shank,0.0179,-0.0067,0.9854,1.69,-0.75,-0.41,-0.72,9.88,-33.86,0.999298,-0.002319,-0.035371,0.011048,0.0,0.0,0.0,0,1
2026-06-16 16:25:29.980,3143115,R_Shank,-0.0837,-0.7068,1.0066,-0.03,-0.9,-1.55,-13.23,5.84,-46.74,0.91934,0.024628,0.020692,-0.392102,0.0,0.0,0.0,0,1
2026-06-16 16:25:29.980,140095,L_Shank,0.0272,-0.0204,0.9806,1.69,-0.74,-0.41,-1.76,11.25,-34.81,0.999298,-0.002319,-0.035371,0.011048,0.0,0.0,0.0,0,1
2026-06-16 16:25:29.983,140115,L_Shank,0.0252,-0.0043,0.9801,1.69,-0.75,-0.4,0.0,0.0,0.0,0.999298,-0.002319,-0.035401,0.011017,0.0,0.0,0.0,0,1
2026-06-16 16:25:29.983,3143135,R_Shank,-0.0852,1.346,1.0037,-0.02,-0.88,-1.56,-14.28,7.19,-46.11,0.91934,0.024659,0.020661,-0.392071,0.0,0.0,0.0,0,1
2026-06-16 16:25:29.986,140135,L_Shank,0.0194,-0.0067,1.0002,1.69,-0.75,-0.38,0.15,8.71,-35.26,0.999298,-0.002319,-0.035401,0.011048,0.0,0.0,0.0,0,1
2026-06-16 16:25:29.986,3143155,R_Shank,-0.092,2.246,0.9855,-0.02,-0.87,-1.54,0.0,0.0,0.0,0.91934,0.024628,0.020631,-0.392071,0.0,0.0,0.0,0,1
2026-06-16 16:25:29.989,3143100,R_Ankle,0.0224,-0.0116,1.0038,0.77,-1.75,-0.51,-11.66,12.04,-50.6,0.328379,0.091861,0.007508,0.940001,0.0,0.0,0.0,0,1
