python_time,esp32_hw_time,sensor_name,ax,ay,az,gx,gy,gz,mx,my,mz,q0,q1,q2,q3,quat_roll,quat_pitch,quat_yaw,is_paused_flag,t_pose_flag
2026-06-16 17:34:48.920,248191,L_Hip,-0.8766,0.3292,0.3277,3.83,-5.83,-5.43,37.64,10.99,18.1,0.836543,0.156743,0.520585,0.067721,0.0,0.0,0.0,0,0
2026-06-16 17:34:48.922,248211,L_Hip,-0.8849,0.3169,0.3451,3.79,-5.88,-5.49,0.0,0.0,0.0,0.836512,0.156438,0.520646,0.068026,0.0,0.0,0.0,0,0
2026-06-16 17:34:48.924,248231,L_Hip,-0.8972,0.3174,0.3461,3.8,-5.93,-5.54,37.66,10.35,16.36,0.836512,0.156163,0.520737,0.068331,0.0,0.0,0.0,0,0
2026-06-16 17:34:48.927,248251,L_Hip,-0.8883,0.3223,0.3466,3.83,-6.11,-5.61,37.29,9.38,17.24,0.836512,0.155766,0.520798,0.068545,0.0,0.0,0.0,0,0
2026-06-16 17:34:48.969,248241,L_Hip,-0.9065,0.3081,0.365,3.99,-6.0,-5.52,38.14,9.55,17.08,0.836573,0.15537,0.520798,0.068697,0.0,0.0,0.0,0,0
2026-06-16 17:34:48.972,248261,L_Hip,-0.8923,0.3135,0.3577,4.06,-5.99,-5.5,37.96,9.71,17.52,0.836665,0.155034,0.520737,0.06885,0.0,0.0,0.0,0,0
2026-06-16 17:34:48.973,248281,L_Hip,-0.9001,0.3189,0.3432,4.17,-5.96,-5.52,0.0,0.0,0.0,0.836695,0.154698,0.520768,0.068972,0.0,0.0,0.0,0,0
2026-06-16 17:34:48.975,248301,L_Hip,-0.9104,0.3218,0.3543,4.18,-5.99,-5.54,36.14,9.84,15.95,0.836756,0.154424,0.520768,0.069063,0.0,0.0,0.0,0,0
2026-06-16 17:34:49.019,248291,L_Hip,-0.8977,0.311,0.3466,4.26,-6.06,-5.53,36.96,9.37,16.67,0.836726,0.154271,0.520798,0.069124,0.0,0.0,0.0,0,0
2026-06-16 17:34:49.022,248311,L_Hip,-0.8864,0.3209,0.3509,4.32,-6.06,-5.54,37.98,10.36,17.23,0.836787,0.154088,0.520798,0.069185,0.0,0.0,0.0,0,0
2026-06-16 17:34:49.024,248331,L_Hip,-0.8903,0.3238,0.3432,4.47,-6.04,-5.5,0.0,0.0,0.0,0.836787,0.153935,0.520798,0.069185,0.0,0.0,0.0,0,0
2026-06-16 17:34:49.026,248351,L_Hip,-0.8893,0.3302,0.3345,4.48,-6.03,-5.51,37.95,9.38,18.11,0.836818,0.153874,0.520798,0.069185,0.0,0.0,0.0,0,0
2026-06-16 17:34:49.045,248316,L_Hip,-0.8942,0.3459,0.3408,4.53,-6.06,-5.53,36.78,8.88,16.53,0.836818,0.153905,0.520798,0.069155,0.0,0.0,0.0,0,0
2026-06-16 17:34:49.047,248336,L_Hip,-0.8883,0.342,0.3393,4.54,-6.09,-5.5,36.64,10.33,16.96,0.836756,0.153996,0.520829,0.069124,0.0,0.0,0.0,0,0
2026-06-16 17:34:49.049,248356,L_Hip,-0.8756,0.3543,0.334,4.57,-6.03,-5.48,0.0,0.0,0.0,0.836726,0.154088,0.52089,0.069124,0.0,0.0,0.0,0,0
2026-06-16 17:34:49.052,248376,L_Hip,-0.8859,0.3616,0.3349,4.58,-5.96,-5.46,37.64,9.71,16.66,0.836695,0.154241,0.520859,0.069094,0.0,0.0,0.0,0,0
2026-06-16 17:34:49.120,248391,L_Hip,-0.8829,0.3715,0.3141,4.53,-5.96,-5.48,35.9,8.7,18.72,0.836634,0.154454,0.52092,0.069124,0.0,0.0,0.0,0,0
2026-06-16 17:34:49.122,248411,L_Hip,-0.882,0.3724,0.3262,4.51,-6.0,-5.5,37.68,11.64,16.65,0.836512,0.154668,0.521043,0.069185,0.0,0.0,0.0,0,0
2026-06-16 17:34:49.125,248431,L_Hip,-0.906,0.3729,0.3199,4.42,-6.12,-5.51,0.0,0.0,0.0,0.836421,0.154881,0.521134,0.069246,0.0,0.0,0.0,0,0
2026-06-16 17:34:49.127,248451,L_Hip,-0.8741,0.3715,0.3262,4.38,-6.14,-5.54,35.78,10.15,17.41,0.836329,0.155095,0.521195,0.069308,0.0,0.0,0.0,0,0
2026-06-16 17:34:49.144,248416,L_Hip,-0.8888,0.3778,0.2996,4.26,-5.92,-5.49,36.59,9.04,18.42,0.836299,0.155217,0.521195,0.069369,0.0,0.0,0.0,0,0
2026-06-16 17:34:49.147,248436,L_Hip,-0.8874,0.3759,0.3136,4.23,-5.97,-5.48,36.79,10.49,18.26,0.836268,0.155309,0.521226,0.069491,0.0,0.0,0.0,0,0
2026-06-16 17:34:49.149,248456,L_Hip,-0.8898,0.3857,0.3204,4.18,-6.03,-5.44,37.3,10.66,17.82,0.836146,0.1554,0.521348,0.069643,0.0,0.0,0.0,0,0
2026-06-16 17:34:49.151,248476,L_Hip,-0.8829,0.3754,0.318,4.15,-6.03,-5.43,0.0,0.0,0.0,0.836055,0.155461,0.52147,0.069857,0.0,0.0,0.0,0,0
2026-06-16 17:34:49.220,248491,L_Hip,-0.8888,0.3606,0.3146,4.0,-5.78,-5.46,36.11,10.16,17.69,0.835994,0.155553,0.5215,0.070101,0.0,0.0,0.0,0,0
2026-06-16 17:34:49.222,248511,L_Hip,-0.8878,0.3719,0.3132,3.96,-5.77,-5.42,35.77,9.51,17.12,0.835902,0.155553,0.521592,0.070345,0.0,0.0,0.0,0,0
2026-06-16 17:34:49.224,248531,L_Hip,-0.8928,0.3724,0.3151,3.96,-5.79,-5.41,37.65,10.67,16.94,0.83578,0.155461,0.521775,0.07062,0.0,0.0,0.0,0,0
2026-06-16 17:34:49.226,248551,L_Hip,-0.879,0.3602,0.3194,3.92,-5.93,-5.45,0.0,0.0,0.0,0.835658,0.15537,0.521958,0.070956,0.0,0.0,0.0,0,0
2026-06-16 17:34:49.245,248516,L_Hip,-0.8854,0.3317,0.3132,3.77,-6.01,-5.59,36.78,9.53,17.4,0.835597,0.155217,0.52208,0.07123,0.0,0.0,0.0,0,0
2026-06-16 17:34:49.247,248536,L_Hip,-0.8771,0.3248,0.3219,3.78,-6.0,-5.6,36.31,10.01,16.09,0.835566,0.155034,0.522141,0.071505,0.0,0.0,0.0,0,0
2026-06-16 17:34:49.249,248556,L_Hip,-0.8775,0.3253,0.3277,3.78,-6.0,-5.6,36.81,9.85,16.23,0.835566,0.154698,0.522202,0.071718,0.0,0.0,0.0,0,0
2026-06-16 17:34:49.251,248576,L_Hip,-0.8903,0.3317,0.319,3.75,-6.0,-5.61,35.28,9.98,16.98,0.835566,0.154302,0.522263,0.071902,0.0,0.0,0.0,0,0
2026-06-16 17:34:49.269,248541,L_Hip,-0.8874,0.3091,0.3306,3.77,-6.0,-5.64,36.1,9.19,17.12,0.835597,0.153874,0.522324,0.072085,0.0,0.0,0.0,0,0
2026-06-16 17:34:49.272,248561,L_Hip,-0.8957,0.2973,0.3359,3.81,-5.96,-5.61,0.0,0.0,0.0,0.835658,0.153447,0.522324,0.072268,0.0,0.0,0.0,0,0
2026-06-16 17:34:49.274,248581,L_Hip,-0.8864,0.2997,0.3466,3.85,-5.9,-5.61,36.95,9.69,17.54,0.835749,0.152989,0.522324,0.07242,0.0,0.0,0.0,0,0
2026-06-16 17:34:49.276,248601,L_Hip,-0.8908,0.2943,0.349,3.96,-5.91,-5.61,37.98,10.35,17.52,0.835749,0.152532,0.522416,0.072542,0.0,0.0,0.0,0,0
2026-06-16 17:34:49.345,248616,L_Hip,-0.905,0.3125,0.3635,4.19,-6.03,-5.68,37.3,9.7,16.95,0.83578,0.152165,0.522477,0.072634,0.0,0.0,0.0,0,0
2026-06-16 17:34:49.347,248636,L_Hip,-0.904,0.3189,0.3495,4.25,-5.99,-5.65,0.0,0.0,0.0,0.835841,0.151769,0.522477,0.072634,0.0,0.0,0.0,0,0
2026-06-16 17:34:49.349,248656,L_Hip,-0.8986,0.3223,0.3485,4.31,-5.95,-5.61,36.13,10.48,17.11,0.835902,0.151494,0.522477,0.072573,0.0,0.0,0.0,0,0
2026-06-16 17:34:49.351,248676,L_Hip,-0.8928,0.316,0.3524,4.41,-5.93,-5.54,36.44,9.84,17.69,0.835902,0.151311,0.522538,0.072542,0.0,0.0,0.0,0,0
2026-06-16 17:34:49.395,248666,L_Hip,-0.8991,0.3346,0.3345,4.56,-5.95,-5.47,37.64,10.67,17.81,0.835902,0.15125,0.522599,0.072512,0.0,0.0,0.0,0,0
2026-06-16 17:34:49.397,248686,L_Hip,-0.8898,0.3317,0.3393,4.59,-6.0,-5.48,0.0,0.0,0.0,0.835841,0.15125,0.52266,0.072512,0.0,0.0,0.0,0,0
2026-06-16 17:34:49.399,248706,L_Hip,-0.8898,0.343,0.3272,4.6,-6.02,-5.5,38.82,9.57,16.49,0.83578,0.151341,0.522752,0.072481,0.0,0.0,0.0,0,0
2026-06-16 17:34:49.401,248726,L_Hip,-0.8942,0.3606,0.3364,4.62,-6.0,-5.53,37.47,9.86,17.09,0.835719,0.151494,0.522813,0.072451,0.0,0.0,0.0,0,0
2026-06-16 17:34:49.420,248691,L_Hip,-0.8908,0.3719,0.3408,4.63,-6.08,-5.5,37.28,9.37,17.53,0.835658,0.151677,0.522843,0.07242,0.0,0.0,0.0,0,0
2026-06-16 17:34:49.421,248711,L_Hip,-0.8864,0.3651,0.3224,4.62,-6.06,-5.51,0.0,0.0,0.0,0.835597,0.151891,0.522904,0.07239,0.0,0.0,0.0,0,0
2026-06-16 17:34:49.424,248731,L_Hip,-0.8864,0.3778,0.3112,4.61,-6.07,-5.47,36.26,8.39,16.97,0.835536,0.152104,0.522935,0.07239,0.0,0.0,0.0,0,0
2026-06-16 17:34:49.426,248751,L_Hip,-0.8869,0.3823,0.3165,4.54,-6.06,-5.47,38.12,9.55,18.25,0.835475,0.152379,0.522935,0.07242,0.0,0.0,0.0,0,0
2026-06-16 17:34:49.445,248716,L_Hip,-0.8746,0.3754,0.2962,4.24,-6.13,-5.51,37.5,11.48,17.09,0.835414,0.152654,0.522965,0.072451,0.0,0.0,0.0,0,0
2026-06-16 17:34:49.447,248736,L_Hip,-0.8854,0.3754,0.3117,4.19,-6.12,-5.51,0.0,0.0,0.0,0.835322,0.152867,0.523026,0.072573,0.0,0.0,0.0,0,0
2026-06-16 17:34:49.450,248756,L_Hip,-0.8717,0.37,0.3078,4.16,-6.09,-5.53,35.97,10.64,16.68,0.835292,0.15302,0.522996,0.072726,0.0,0.0,0.0,0,0
2026-06-16 17:34:49.452,248776,L_Hip,-0.8653,0.3611,0.3098,4.12,-6.04,-5.55,37.14,9.86,16.52,0.835261,0.15305,0.523026,0.072909,0.0,0.0,0.0,0,0
2026-06-16 17:34:49.469,248741,L_Hip,-0.88,0.3562,0.318,4.05,-6.08,-5.65,38.47,9.88,17.95,0.835231,0.15302,0.523057,0.073061,0.0,0.0,0.0,0,0
2026-06-16 17:34:49.472,248761,L_Hip,-0.8805,0.3562,0.3214,4.04,-6.04,-5.67,37.12,9.85,17.68,0.835231,0.152928,0.523087,0.073214,0.0,0.0,0.0,0,0
2026-06-16 17:34:49.474,248781,L_Hip,-0.8849,0.3454,0.3199,4.02,-6.0,-5.65,0.0,0.0,0.0,0.835231,0.152776,0.523118,0.073305,0.0,0.0,0.0,0,0
2026-06-16 17:34:49.477,248801,L_Hip,-0.8844,0.3346,0.3311,4.03,-5.99,-5.64,35.42,9.5,18.0,0.8352,0.152593,0.523148,0.073428,0.0,0.0,0.0,0,0
2026-06-16 17:34:49.519,248791,L_Hip,-0.8859,0.339,0.3325,4.01,-6.01,-5.64,34.73,9.16,18.3,0.8352,0.152409,0.523209,0.07355,0.0,0.0,0.0,0,0
2026-06-16 17:34:49.522,248811,L_Hip,-0.8815,0.3371,0.3301,4.03,-6.01,-5.66,36.47,11.13,17.39,0.83517,0.152196,0.523301,0.073641,0.0,0.0,0.0,0,0
2026-06-16 17:34:49.524,248831,L_Hip,-0.8908,0.3381,0.3354,4.06,-5.99,-5.67,0.0,0.0,0.0,0.8352,0.151952,0.523331,0.073733,0.0,0.0,0.0,0,0
2026-06-16 17:34:49.527,248851,L_Hip,-0.8932,0.3312,0.3432,4.06,-6.0,-5.65,36.95,9.37,17.25,0.8352,0.151708,0.523392,0.073824,0.0,0.0,0.0,0,0
2026-06-16 17:34:49.594,248866,L_Hip,-0.8932,0.3277,0.3403,4.09,-6.03,-5.61,36.43,9.2,17.69,0.8352,0.151463,0.523453,0.073885,0.0,0.0,0.0,0,0
2026-06-16 17:34:49.597,248886,L_Hip,-0.8937,0.3351,0.3461,4.08,-6.08,-5.61,37.27,10.01,18.98,0.835231,0.151219,0.523453,0.073946,0.0,0.0,0.0,0,0
2026-06-16 17:34:49.599,248906,L_Hip,-0.9031,0.3356,0.3272,4.09,-6.12,-5.61,0.0,0.0,0.0,0.835231,0.151067,0.523484,0.074038,0.0,0.0,0.0,0,0
2026-06-16 17:34:49.601,248926,L_Hip,-0.8937,0.3371,0.3378,4.1,-6.09,-5.61,35.1,9.5,17.13,0.835292,0.150822,0.523423,0.074099,0.0,0.0,0.0,0,0
2026-06-16 17:34:49.620,248891,L_Hip,-0.8908,0.3395,0.3349,4.24,-6.04,-5.54,37.14,10.18,17.1,0.835322,0.150639,0.523423,0.07416,0.0,0.0,0.0,0,0
2026-06-16 17:34:49.622,248911,L_Hip,-0.8883,0.3322,0.3277,4.25,-6.04,-5.52,35.93,9.03,17.56,0.835353,0.150487,0.523453,0.074221,0.0,0.0,0.0,0,0
2026-06-16 17:34:49.624,248931,L_Hip,-0.8815,0.3405,0.3296,4.24,-6.06,-5.58,0.0,0.0,0.0,0.835353,0.150395,0.523484,0.074282,0.0,0.0,0.0,0,0
2026-06-16 17:34:49.627,248951,L_Hip,-0.8859,0.3405,0.3282,4.24,-6.09,-5.61,36.78,9.21,16.82,0.835322,0.150334,0.523484,0.074343,0.0,0.0,0.0,0,0
2026-06-16 17:34:49.645,248916,L_Hip,-0.8825,0.34,0.3369,4.18,-6.16,-5.68,36.64,10.65,16.96,0.835322,0.150243,0.523515,0.074374,0.0,0.0,0.0,0,0
2026-06-16 17:34:49.647,248936,L_Hip,-0.8888,0.3439,0.334,4.2,-6.17,-5.65,35.78,9.51,16.83,0.835322,0.150151,0.523515,0.074404,0.0,0.0,0.0,0,0
2026-06-16 17:34:49.649,248956,L_Hip,-0.8815,0.3361,0.3335,4.23,-6.16,-5.62,36.79,9.85,17.1,0.835353,0.15006,0.523515,0.074404,0.0,0.0,0.0,0,0
2026-06-16 17:34:49.651,248976,L_Hip,-0.8869,0.3351,0.3103,4.24,-6.15,-5.62,0.0,0.0,0.0,0.835414,0.149968,0.523484,0.074435,0.0,0.0,0.0,0,0
2026-06-16 17:34:49.669,248941,L_Hip,-0.8839,0.3268,0.3209,4.25,-6.14,-5.67,37.64,10.35,17.23,0.835444,0.149876,0.523453,0.074435,0.0,0.0,0.0,0,0
2026-06-16 17:34:49.672,248961,L_Hip,-0.8928,0.3268,0.3369,4.23,-6.15,-5.71,36.8,10.17,16.81,0.835444,0.149785,0.523453,0.074435,0.0,0.0,0.0,0,0
2026-06-16 17:34:49.674,248981,L_Hip,-0.8874,0.3297,0.3306,4.25,-6.12,-5.71,37.31,9.06,15.5,0.835475,0.149663,0.523453,0.074435,0.0,0.0,0.0,0,0
2026-06-16 17:34:49.676,249001,L_Hip,-0.8923,0.3322,0.3277,4.28,-6.09,-5.7,0.0,0.0,0.0,0.835505,0.14951,0.523453,0.074374,0.0,0.0,0.0,0,0
2026-06-16 17:34:49.745,249016,L_Hip,-0.8986,0.3341,0.3393,4.31,-6.07,-5.6,36.4,8.22,18.57,0.835536,0.149419,0.523453,0.074313,0.0,0.0,0.0,0,0
2026-06-16 17:34:49.747,249036,L_Hip,-0.8967,0.339,0.3238,4.3,-6.07,-5.6,0.0,0.0,0.0,0.835536,0.149327,0.523484,0.074282,0.0,0.0,0.0,0,0
2026-06-16 17:34:49.750,249056,L_Hip,-0.8942,0.3376,0.3359,4.29,-6.08,-5.58,35.78,10.15,17.41,0.835536,0.149266,0.523515,0.074282,0.0,0.0,0.0,0,0
2026-06-16 17:34:49.752,249076,L_Hip,-0.9021,0.3336,0.3359,4.29,-6.09,-5.56,37.47,9.54,16.51,0.835536,0.149205,0.523515,0.074282,0.0,0.0,0.0,0,0
2026-06-16 17:34:49.769,249041,L_Hip,-0.8898,0.3376,0.3403,4.35,-6.12,-5.53,36.09,8.55,17.12,0.835536,0.149144,0.523515,0.074313,0.0,0.0,0.0,0,0
2026-06-16 17:34:49.772,249061,L_Hip,-0.8878,0.3282,0.3374,4.36,-6.07,-5.55,0.0,0.0,0.0,0.835536,0.149113,0.523515,0.074343,0.0,0.0,0.0,0,0
2026-06-16 17:34:49.774,249081,L_Hip,-0.8815,0.3302,0.3364,4.4,-6.06,-5.58,36.78,9.85,17.69,0.835536,0.149052,0.523515,0.074343,0.0,0.0,0.0,0,0
2026-06-16 17:34:49.776,249101,L_Hip,-0.8849,0.3425,0.3194,4.43,-6.06,-5.54,36.11,9.19,16.83,0.835566,0.149052,0.523484,0.074374,0.0,0.0,0.0,0,0
2026-06-16 17:34:49.795,249066,L_Hip,-0.8928,0.34,0.3267,4.38,-6.09,-5.58,37.96,9.39,17.52,0.835566,0.149083,0.523484,0.074343,0.0,0.0,0.0,0,0
2026-06-16 17:34:49.797,249086,L_Hip,-0.9011,0.339,0.3296,4.33,-6.13,-5.59,38.32,10.36,17.22,0.835536,0.149144,0.523515,0.074374,0.0,0.0,0.0,0,0
2026-06-16 17:34:49.799,249106,L_Hip,-0.8991,0.3435,0.3272,4.3,-6.22,-5.61,0.0,0.0,0.0,0.835505,0.149205,0.523515,0.074374,0.0,0.0,0.0,0,0
2026-06-16 17:34:49.802,249126,L_Hip,-0.9011,0.3341,0.333,4.28,-6.21,-5.62,34.96,10.62,16.4,0.835505,0.149205,0.523545,0.074374,0.0,0.0,0.0,0,0
2026-06-16 17:34:49.819,249091,L_Hip,-0.8869,0.3209,0.3253,4.25,-6.21,-5.61,37.12,9.86,17.39,0.835536,0.149174,0.523484,0.074374,0.0,0.0,0.0,0,0
2026-06-16 17:34:49.822,249111,L_Hip,-0.882,0.316,0.3441,4.28,-6.2,-5.6,0.0,0.0,0.0,0.835597,0.149083,0.523453,0.074343,0.0,0.0,0.0,0,0
2026-06-16 17:34:49.824,249131,L_Hip,-0.8815,0.3199,0.3296,4.3,-6.17,-5.6,36.29,10.0,17.26,0.835627,0.148991,0.523392,0.074343,0.0,0.0,0.0,0,0
2026-06-16 17:34:49.827,249151,L_Hip,-0.8746,0.3218,0.3291,4.32,-6.18,-5.61,35.14,11.43,16.83,0.835688,0.1489,0.523331,0.074343,0.0,0.0,0.0,0,0
2026-06-16 17:34:49.869,249141,L_Hip,-0.8731,0.3317,0.3267,4.39,-6.06,-5.65,36.09,8.55,17.12,0.835749,0.148808,0.52327,0.074313,0.0,0.0,0.0,0,0
2026-06-16 17:34:49.872,249161,L_Hip,-0.8663,0.3341,0.3272,4.43,-6.04,-5.66,0.0,0.0,0.0,0.83581,0.148717,0.523209,0.074252,0.0,0.0,0.0,0,0
2026-06-16 17:34:49.874,249181,L_Hip,-0.8722,0.3371,0.3262,4.49,-6.0,-5.66,36.94,9.05,17.25,0.83581,0.148686,0.523209,0.07419,0.0,0.0,0.0,0,0
2026-06-16 17:34:49.876,249201,L_Hip,-0.8736,0.3513,0.3349,4.51,-5.93,-5.65,36.45,10.16,17.69,0.83581,0.148717,0.52324,0.07416,0.0,0.0,0.0,0,0
2026-06-16 17:34:49.895,249166,L_Hip,-0.882,0.3675,0.3349,4.57,-5.8,-5.72,38.31,10.04,17.52,0.835749,0.148778,0.523301,0.074099,0.0,0.0,0.0,0,0
2026-06-16 17:34:49.897,249186,L_Hip,-0.8854,0.3646,0.3369,4.55,-5.83,-5.73,0.0,0.0,0.0,0.835658,0.1489,0.523423,0.074038,0.0,0.0,0.0,0,0
2026-06-16 17:34:49.899,249206,L_Hip,-0.8883,0.3818,0.3388,4.49,-5.91,-5.75,36.8,10.49,17.39,0.835566,0.149022,0.523545,0.073977,0.0,0.0,0.0,0,0
2026-06-16 17:34:49.901,249226,L_Hip,-0.9006,0.3857,0.3296,4.44,-5.93,-5.75,36.42,8.23,17.11,0.835475,0.149144,0.523698,0.073885,0.0,0.0,0.0,0,0
2026-06-16 17:34:49.944,249216,L_Hip,-0.8977,0.3882,0.3156,4.24,-5.93,-5.62,37.29,10.02,17.53,0.835383,0.149266,0.523789,0.073885,0.0,0.0,0.0,0,0
2026-06-16 17:34:49.946,249236,L_Hip,-0.906,0.4014,0.3282,4.19,-6.0,-5.61,0.0,0.0,0.0,0.835292,0.149327,0.523911,0.073916,0.0,0.0,0.0,0,0
2026-06-16 17:34:49.949,249256,L_Hip,-0.9089,0.3926,0.3243,4.06,-6.09,-5.6,36.97,9.37,16.09,0.8352,0.149419,0.524033,0.074007,0.0,0.0,0.0,0,0
2026-06-16 17:34:49.951,249276,L_Hip,-0.8932,0.3872,0.3078,4.01,-6.1,-5.58,37.49,10.83,16.8,0.835139,0.149449,0.524094,0.07419,0.0,0.0,0.0,0,0
2026-06-16 17:34:49.994,249266,L_Hip,-0.8746,0.3621,0.3122,3.84,-6.06,-5.58,37.3,10.02,17.24,0.835108,0.149388,0.524094,0.074374,0.0,0.0,0.0,0,0
2026-06-16 17:34:49.997,249286,L_Hip,-0.8869,0.3616,0.3103,3.82,-6.04,-5.58,35.46,10.47,16.54,0.835078,0.149327,0.524155,0.074648,0.0,0.0,0.0,0,0
2026-06-16 17:34:49.999,249306,L_Hip,-0.879,0.3503,0.3006,3.76,-5.95,-5.54,0.0,0.0,0.0,0.835078,0.149144,0.524155,0.074892,0.0,0.0,0.0,0,0
2026-06-16 17:34:50.002,249326,L_Hip,-0.8726,0.3454,0.3112,3.77,-5.89,-5.54,36.12,9.84,16.82,0.835078,0.1489,0.524216,0.075167,0.0,0.0,0.0,0,0
2026-06-16 17:34:50.044,249316,L_Hip,-0.8697,0.3322,0.2977,3.74,-5.77,-5.52,36.41,8.23,17.99,0.835017,0.148625,0.524339,0.075442,0.0,0.0,0.0,0,0
2026-06-16 17:34:50.047,249336,L_Hip,-0.8726,0.3189,0.3073,3.71,-5.74,-5.55,37.31,10.99,17.82,0.834956,0.14832,0.524461,0.075747,0.0,0.0,0.0,0,0
2026-06-16 17:34:50.049,249356,L_Hip,-0.879,0.3194,0.3107,3.64,-5.7,-5.58,0.0,0.0,0.0,0.834895,0.147984,0.524613,0.076052,0.0,0.0,0.0,0,0
2026-06-16 17:34:50.051,249376,L_Hip,-0.8874,0.2997,0.3141,3.64,-5.67,-5.63,36.45,9.2,16.82,0.834803,0.147588,0.524857,0.076327,0.0,0.0,0.0,0,0
2026-06-16 17:34:50.070,249341,L_Hip,-0.9099,0.2958,0.3214,3.77,-5.52,-5.57,37.47,10.51,17.38,0.834712,0.147099,0.525101,0.076601,0.0,0.0,0.0,0,0
2026-06-16 17:34:50.072,249361,L_Hip,-0.9109,0.2894,0.3277,3.83,-5.51,-5.54,37.42,8.89,18.84,0.83459,0.14658,0.525407,0.076815,0.0,0.0,0.0,0,0
2026-06-16 17:34:50.074,249381,L_Hip,-0.9256,0.2914,0.3359,3.9,-5.49,-5.54,0.0,0.0,0.0,0.834437,0.146062,0.525712,0.076998,0.0,0.0,0.0,0,0
2026-06-16 17:34:50.076,249401,L_Hip,-0.9237,0.2983,0.3349,3.96,-5.5,-5.54,37.47,9.86,17.09,0.834284,0.145604,0.526078,0.077181,0.0,0.0,0.0,0,0
2026-06-16 17:34:50.094,249366,L_Hip,-0.9398,0.2914,0.349,4.03,-5.73,-5.61,35.92,9.35,18.14,0.834101,0.145177,0.526444,0.077334,0.0,0.0,0.0,0,0
2026-06-16 17:34:50.097,249386,L_Hip,-0.9349,0.2835,0.3514,4.01,-5.87,-5.67,36.29,10.0,17.26,0.833979,0.14478,0.526749,0.077456,0.0,0.0,0.0,0,0
2026-06-16 17:34:50.099,249406,L_Hip,-0.9256,0.285,0.3553,4.11,-6.13,-5.68,37.92,8.74,18.69,0.833918,0.144383,0.526963,0.077486,0.0,0.0,0.0,0,0
2026-06-16 17:34:50.101,249426,L_Hip,-0.9241,0.2904,0.379,4.21,-6.12,-5.64,0.0,0.0,0.0,0.833918,0.143956,0.527055,0.077456,0.0,0.0,0.0,0,0
2026-06-16 17:34:50.170,249441,L_Hip,-0.8903,0.2993,0.3519,4.54,-5.94,-5.35,36.74,8.23,18.27,0.83401,0.14362,0.527024,0.077395,0.0,0.0,0.0,0,0
2026-06-16 17:34:50.172,249461,L_Hip,-0.8962,0.3022,0.3504,4.67,-5.83,-5.3,36.62,10.65,18.41,0.834071,0.143468,0.526963,0.077334,0.0,0.0,0.0,0,0
2026-06-16 17:34:50.174,249481,L_Hip,-0.9031,0.314,0.3645,4.8,-5.93,-5.31,0.0,0.0,0.0,0.834101,0.143437,0.526963,0.077334,0.0,0.0,0.0,0,0
2026-06-16 17:34:50.177,249501,L_Hip,-0.8751,0.3194,0.348,4.83,-6.05,-5.35,36.61,10.0,18.12,0.83401,0.14362,0.527055,0.077334,0.0,0.0,0.0,0,0
2026-06-16 17:34:50.194,249466,L_Hip,-0.8741,0.3459,0.3378,4.9,-6.07,-5.56,37.28,9.7,17.82,0.833979,0.143895,0.527055,0.077303,0.0,0.0,0.0,0,0
2026-06-16 17:34:50.197,249486,L_Hip,-0.8722,0.3552,0.3253,4.88,-5.96,-5.53,36.09,9.51,18.28,0.833918,0.1442,0.527024,0.077181,0.0,0.0,0.0,0,0
2026-06-16 17:34:50.199,249506,L_Hip,-0.8731,0.3675,0.3248,4.9,-5.87,-5.5,37.29,9.7,17.24,0.833888,0.144566,0.527024,0.077029,0.0,0.0,0.0,0,0
2026-06-16 17:34:50.201,249526,L_Hip,-0.8834,0.37,0.3122,4.9,-5.78,-5.45,0.0,0.0,0.0,0.833796,0.144932,0.527055,0.076937,0.0,0.0,0.0,0,0
2026-06-16 17:34:50.219,249491,L_Hip,-0.8849,0.3926,0.2846,4.69,-5.65,-5.38,36.44,9.2,17.11,0.833644,0.14539,0.527207,0.076907,0.0,0.0,0.0,0,0
2026-06-16 17:34:50.222,249511,L_Hip,-0.8888,0.3872,0.2899,4.58,-5.61,-5.38,35.4,9.17,18.87,0.833399,0.145848,0.527451,0.076937,0.0,0.0,0.0,0,0
2026-06-16 17:34:50.224,249531,L_Hip,-0.8864,0.397,0.2991,4.4,-5.54,-5.41,36.77,8.88,17.4,0.833125,0.146275,0.527757,0.07709,0.0,0.0,0.0,0,0
2026-06-16 17:34:50.227,249551,L_Hip,-0.8898,0.3995,0.2972,4.32,-5.55,-5.4,36.94,9.37,17.54,0.83282,0.146611,0.528092,0.077273,0.0,0.0,0.0,0,0
2026-06-16 17:34:50.245,249516,L_Hip,-0.8785,0.3931,0.2875,4.08,-5.58,-5.37,36.06,7.9,17.99,0.832545,0.146855,0.528428,0.077548,0.0,0.0,0.0,0,0
2026-06-16 17:34:50.247,249536,L_Hip,-0.8815,0.3793,0.2889,3.94,-5.56,-5.35,0.0,0.0,0.0,0.83227,0.147008,0.528794,0.077883,0.0,0.0,0.0,0,0
2026-06-16 17:34:50.249,249556,L_Hip,-0.8756,0.3734,0.3083,3.87,-5.48,-5.35,36.78,9.53,17.4,0.832026,0.147099,0.529038,0.07828,0.0,0.0,0.0,0,0
2026-06-16 17:34:50.252,249576,L_Hip,-0.8928,0.3729,0.2943,3.81,-5.42,-5.4,36.76,9.2,17.98,0.831812,0.147099,0.529374,0.078707,0.0,0.0,0.0,0,0
2026-06-16 17:34:50.270,249541,L_Hip,-0.8746,0.339,0.303,3.72,-5.42,-5.42,36.98,10.34,16.37,0.831568,0.146977,0.529679,0.079165,0.0,0.0,0.0,0,0
2026-06-16 17:34:50.273,249561,L_Hip,-0.8682,0.3425,0.3136,3.68,-5.36,-5.38,0.0,0.0,0.0,0.831355,0.146764,0.530015,0.079623,0.0,0.0,0.0,0,0
2026-06-16 17:34:50.275,249581,L_Hip,-0.8864,0.339,0.3175,3.67,-5.32,-5.41,35.57,8.37,17.85,0.831141,0.146519,0.530351,0.080081,0.0,0.0,0.0,0,0
2026-06-16 17:34:50.278,249601,L_Hip,-0.8962,0.3287,0.3432,3.64,-5.32,-5.45,38.14,9.55,16.79,0.830927,0.146184,0.530717,0.080538,0.0,0.0,0.0,0,0
2026-06-16 17:34:50.320,249591,L_Hip,-0.8893,0.3292,0.3374,3.8,-5.54,-5.44,36.27,9.68,17.84,0.830683,0.145817,0.531114,0.080966,0.0,0.0,0.0,0,0
2026-06-16 17:34:50.322,249611,L_Hip,-0.906,0.3184,0.3272,3.81,-5.57,-5.55,0.0,0.0,0.0,0.830531,0.14539,0.531419,0.081362,0.0,0.0,0.0,0,0
2026-06-16 17:34:50.324,249631,L_Hip,-0.8923,0.3184,0.3398,3.87,-5.61,-5.54,36.24,8.06,17.84,0.830378,0.145085,0.531693,0.081698,0.0,0.0,0.0,0,0
2026-06-16 17:34:50.326,249651,L_Hip,-0.9006,0.3022,0.3325,3.91,-5.64,-5.54,35.9,9.34,19.3,0.830287,0.144658,0.531938,0.081973,0.0,0.0,0.0,0,0
2026-06-16 17:34:50.369,249641,L_Hip,-0.9094,0.3169,0.3441,4.03,-5.65,-5.54,35.41,9.5,18.87,0.830195,0.144322,0.532121,0.082186,0.0,0.0,0.0,0,0
2026-06-16 17:34:50.372,249661,L_Hip,-0.9104,0.3066,0.3335,4.03,-5.82,-5.58,0.0,0.0,0.0,0.830103,0.143986,0.532334,0.082339,0.0,0.0,0.0,0,0
2026-06-16 17:34:50.374,249681,L_Hip,-0.8952,0.3081,0.3364,4.09,-5.84,-5.59,37.59,9.37,18.98,0.830042,0.143681,0.532487,0.082492,0.0,0.0,0.0,0,0
2026-06-16 17:34:50.376,249701,L_Hip,-0.9075,0.3194,0.334,4.15,-5.82,-5.62,35.57,9.02,18.43,0.829981,0.143345,0.532609,0.082614,0.0,0.0,0.0,0,0
2026-06-16 17:34:50.394,249666,L_Hip,-0.8981,0.3218,0.3499,4.28,-5.92,-5.61,36.95,10.33,18.12,0.829981,0.143101,0.532701,0.082675,0.0,0.0,0.0,0,0
2026-06-16 17:34:50.396,249686,L_Hip,-0.9035,0.3155,0.3441,4.38,-5.9,-5.55,0.0,0.0,0.0,0.829981,0.142888,0.532731,0.082705,0.0,0.0,0.0,0,0
2026-06-16 17:34:50.399,249706,L_Hip,-0.9045,0.3253,0.3262,4.41,-5.96,-5.55,36.57,8.07,18.13,0.829981,0.142735,0.532792,0.082705,0.0,0.0,0.0,0,0
2026-06-16 17:34:50.401,249726,L_Hip,-0.8957,0.3297,0.3354,4.46,-6.02,-5.54,36.75,9.52,19.14,0.829981,0.142644,0.532823,0.082705,0.0,0.0,0.0,0,0
2026-06-16 17:34:50.469,249741,L_Hip,-0.9026,0.3356,0.3209,4.47,-5.93,-5.56,35.26,9.34,17.56,0.829951,0.142644,0.532884,0.082705,0.0,0.0,0.0,0,0
2026-06-16 17:34:50.472,249761,L_Hip,-0.8952,0.341,0.2977,4.49,-6.01,-5.51,36.59,9.68,18.71,0.82992,0.142705,0.532914,0.082675,0.0,0.0,0.0,0,0
2026-06-16 17:34:50.474,249781,L_Hip,-0.8932,0.3312,0.3103,4.51,-5.99,-5.51,0.0,0.0,0.0,0.829829,0.142766,0.533006,0.082675,0.0,0.0,0.0,0,0
2026-06-16 17:34:50.477,249801,L_Hip,-0.8839,0.3381,0.319,4.53,-5.91,-5.54,35.72,8.85,19.45,0.829768,0.142857,0.533097,0.082675,0.0,0.0,0.0,0,0
2026-06-16 17:34:50.545,249816,L_Hip,-0.8864,0.3538,0.3015,4.43,-6.09,-5.59,36.43,9.84,18.27,0.829707,0.142979,0.533158,0.082705,0.0,0.0,0.0,0,0
2026-06-16 17:34:50.547,249836,L_Hip,-0.8844,0.3582,0.288,4.36,-6.12,-5.65,36.57,8.07,18.13,0.829615,0.143101,0.53325,0.082705,0.0,0.0,0.0,0,0
2026-06-16 17:34:50.549,249856,L_Hip,-0.8977,0.3494,0.3127,4.34,-6.12,-5.7,0.0,0.0,0.0,0.829585,0.143193,0.533311,0.082705,0.0,0.0,0.0,0,0
2026-06-16 17:34:50.552,249876,L_Hip,-0.9011,0.3454,0.302,4.33,-6.25,-5.69,36.6,9.04,17.84,0.829554,0.143284,0.533311,0.082705,0.0,0.0,0.0,0,0
2026-06-16 17:34:50.570,249841,L_Hip,-0.8967,0.3543,0.3049,4.35,-6.11,-5.68,36.24,8.71,18.42,0.829554,0.143284,0.533311,0.082705,0.0,0.0,0.0,0,0
2026-06-16 17:34:50.572,249861,L_Hip,-0.8986,0.3508,0.3103,4.33,-6.05,-5.64,37.63,10.67,18.4,0.829615,0.143284,0.53325,0.082644,0.0,0.0,0.0,0,0
2026-06-16 17:34:50.574,249881,L_Hip,-0.8996,0.339,0.3006,4.33,-6.06,-5.64,0.0,0.0,0.0,0.829615,0.143284,0.53325,0.082614,0.0,0.0,0.0,0,0
2026-06-16 17:34:50.577,249901,L_Hip,-0.8981,0.3484,0.317,4.31,-6.06,-5.64,36.42,8.87,17.98,0.829585,0.143284,0.53328,0.082614,0.0,0.0,0.0,0,0
2026-06-16 17:34:50.645,249916,L_Hip,-0.906,0.3376,0.2986,4.29,-6.08,-5.63,35.06,8.84,18.88,0.829554,0.143284,0.533341,0.082614,0.0,0.0,0.0,0,0
2026-06-16 17:34:50.647,249936,L_Hip,-0.9031,0.34,0.3175,4.26,-6.1,-5.61,37.41,8.24,18.55,0.829524,0.143254,0.533372,0.082644,0.0,0.0,0.0,0,0
2026-06-16 17:34:50.649,249956,L_Hip,-0.9045,0.341,0.3011,4.23,-6.06,-5.61,0.0,0.0,0.0,0.829493,0.143223,0.533433,0.082644,0.0,0.0,0.0,0,0
2026-06-16 17:34:50.651,249976,L_Hip,-0.9045,0.34,0.2841,4.2,-5.98,-5.58,35.26,10.3,18.72,0.829493,0.143162,0.533433,0.082675,0.0,0.0,0.0,0,0
2026-06-16 17:34:50.669,249941,L_Hip,-0.8986,0.3297,0.3243,4.19,-5.99,-5.57,36.27,9.68,17.84,0.829463,0.143071,0.533525,0.082705,0.0,0.0,0.0,0,0
2026-06-16 17:34:50.672,249961,L_Hip,-0.905,0.3209,0.3161,4.23,-5.99,-5.57,35.05,8.84,19.17,0.829402,0.142979,0.533647,0.082766,0.0,0.0,0.0,0,0
2026-06-16 17:34:50.674,249981,L_Hip,-0.9026,0.3277,0.3219,4.25,-6.01,-5.59,35.24,8.37,17.28,0.829371,0.142857,0.533708,0.082827,0.0,0.0,0.0,0,0
2026-06-16 17:34:50.676,250001,L_Hip,-0.9021,0.3135,0.3146,4.3,-6.03,-5.6,0.0,0.0,0.0,0.82934,0.142735,0.533738,0.082888,0.0,0.0,0.0,0,0
2026-06-16 17:34:50.694,249966,L_Hip,-0.9021,0.3297,0.3209,4.34,-6.06,-5.54,34.73,8.2,17.72,0.82934,0.142613,0.533769,0.082919,0.0,0.0,0.0,0,0
2026-06-16 17:34:50.697,249986,L_Hip,-0.8937,0.3272,0.318,4.37,-6.08,-5.54,35.76,10.15,18.57,0.82934,0.142521,0.53383,0.082888,0.0,0.0,0.0,0,0
2026-06-16 17:34:50.699,250006,L_Hip,-0.906,0.3277,0.3219,4.41,-6.1,-5.54,35.76,9.5,17.99,0.82934,0.14246,0.53383,0.082919,0.0,0.0,0.0,0,0
2026-06-16 17:34:50.701,250026,L_Hip,-0.8942,0.3228,0.3156,4.41,-6.16,-5.56,0.0,0.0,0.0,0.82934,0.14246,0.53383,0.082919,0.0,0.0,0.0,0,0
2026-06-16 17:34:50.744,250016,L_Hip,-0.8878,0.3228,0.3214,4.39,-6.24,-5.61,37.3,10.02,17.24,0.829371,0.14246,0.533799,0.082919,0.0,0.0,0.0,0,0
2026-06-16 17:34:50.747,250036,L_Hip,-0.8859,0.3361,0.3224,4.38,-6.19,-5.61,36.24,9.35,19.29,0.829371,0.142491,0.533769,0.082888,0.0,0.0,0.0,0,0
2026-06-16 17:34:50.750,250056,L_Hip,-0.9026,0.3346,0.3199,4.4,-6.16,-5.62,36.96,10.01,17.54,0.829432,0.142491,0.533677,0.082858,0.0,0.0,0.0,0,0
2026-06-16 17:34:50.752,250076,L_Hip,-0.8923,0.3287,0.3233,4.41,-6.25,-5.61,35.05,7.88,18.3,0.829493,0.142491,0.533586,0.082827,0.0,0.0,0.0,0,0
2026-06-16 17:34:50.769,250041,L_Hip,-0.9031,0.3469,0.3194,4.39,-6.12,-5.65,36.06,8.54,19.15,0.829524,0.142491,0.533555,0.082766,0.0,0.0,0.0,0,0
2026-06-16 17:34:50.772,250061,L_Hip,-0.8932,0.3381,0.3107,4.37,-6.09,-5.64,0.0,0.0,0.0,0.829585,0.142521,0.533464,0.082736,0.0,0.0,0.0,0,0
2026-06-16 17:34:50.774,250081,L_Hip,-0.8957,0.3381,0.3069,4.35,-6.0,-5.64,36.41,8.55,17.99,0.829585,0.142521,0.533464,0.082675,0.0,0.0,0.0,0,0
2026-06-16 17:34:50.776,250101,L_Hip,-0.9089,0.3503,0.3083,4.31,-6.01,-5.6,35.89,8.7,19.01,0.829615,0.142521,0.533464,0.082644,0.0,0.0,0.0,0,0
2026-06-16 17:34:50.819,250091,L_Hip,-0.8957,0.3449,0.3078,4.29,-6.1,-5.58,36.74,8.23,18.27,0.829554,0.142521,0.533525,0.082644,0.0,0.0,0.0,0,0
2026-06-16 17:34:50.821,250111,L_Hip,-0.8986,0.3449,0.3209,4.29,-6.12,-5.59,36.42,9.52,18.56,0.829493,0.142521,0.533586,0.082705,0.0,0.0,0.0,0,0
2026-06-16 17:34:50.823,250131,L_Hip,-0.8937,0.3444,0.3141,4.28,-6.22,-5.6,0.0,0.0,0.0,0.829493,0.142521,0.533616,0.082736,0.0,0.0,0.0,0,0
2026-06-16 17:34:50.825,250151,L_Hip,-0.8854,0.343,0.3006,4.27,-6.24,-5.61,35.38,8.85,19.74,0.829493,0.142491,0.533616,0.082797,0.0,0.0,0.0,0,0
2026-06-16 17:34:50.845,250116,L_Hip,-0.8839,0.3346,0.3141,4.25,-6.2,-5.58,35.7,7.24,18.58,0.829524,0.14246,0.533555,0.082827,0.0,0.0,0.0,0,0
2026-06-16 17:34:50.847,250136,L_Hip,-0.8918,0.3376,0.3141,4.28,-6.18,-5.6,0.0,0.0,0.0,0.829585,0.14243,0.533464,0.082858,0.0,0.0,0.0,0,0
2026-06-16 17:34:50.849,250156,L_Hip,-0.8888,0.3307,0.3253,4.28,-6.14,-5.61,36.97,10.02,16.96,0.829615,0.142369,0.533433,0.082888,0.0,0.0,0.0,0,0
2026-06-16 17:34:50.851,250176,L_Hip,-0.8869,0.3322,0.319,4.28,-6.11,-5.61,36.27,10.0,18.42,0.829676,0.142338,0.533341,0.082919,0.0,0.0,0.0,0,0
2026-06-16 17:34:50.869,250141,L_Hip,-0.8957,0.3233,0.3233,4.31,-6.03,-5.59,35.24,9.01,17.86,0.829707,0.142247,0.533311,0.082949,0.0,0.0,0.0,0,0
2026-06-16 17:34:50.872,250161,L_Hip,-0.8918,0.3272,0.3088,4.33,-5.99,-5.64,0.0,0.0,0.0,0.829737,0.142186,0.53328,0.08298,0.0,0.0,0.0,0,0
2026-06-16 17:34:50.874,250181,L_Hip,-0.8957,0.3317,0.3127,4.34,-5.98,-5.63,36.09,9.19,17.99,0.829737,0.142155,0.533311,0.08298,0.0,0.0,0.0,0,0
2026-06-16 17:34:50.876,250201,L_Hip,-0.8981,0.3307,0.3209,4.34,-5.95,-5.62,35.92,9.02,17.85,0.829707,0.142094,0.533341,0.08298,0.0,0.0,0.0,0,0
2026-06-16 17:34:50.895,250166,L_Hip,-0.907,0.3371,0.3136,4.35,-5.99,-5.58,36.92,9.04,18.7,0.829676,0.142033,0.533433,0.082949,0.0,0.0,0.0,0,0
2026-06-16 17:34:50.896,250186,L_Hip,-0.8991,0.3327,0.3117,4.32,-6.07,-5.54,0.0,0.0,0.0,0.829646,0.141972,0.533494,0.082949,0.0,0.0,0.0,0,0
2026-06-16 17:34:50.899,250206,L_Hip,-0.9124,0.3268,0.3136,4.33,-6.05,-5.55,35.9,7.74,17.56,0.829585,0.141942,0.533555,0.08298,0.0,0.0,0.0,0,0
2026-06-16 17:34:50.901,250226,L_Hip,-0.906,0.3331,0.3257,4.34,-6.09,-5.56,35.57,9.34,19.01,0.829585,0.141942,0.533586,0.08301,0.0,0.0,0.0,0,0
2026-06-16 17:34:50.969,250241,L_Hip,-0.8972,0.3361,0.3214,4.34,-6.13,-5.58,36.58,9.36,19.0,0.829554,0.141911,0.533616,0.083041,0.0,0.0,0.0,0,0
2026-06-16 17:34:50.972,250261,L_Hip,-0.8942,0.3435,0.3127,4.36,-6.22,-5.53,35.04,8.2,19.17,0.829554,0.141911,0.533616,0.083071,0.0,0.0,0.0,0,0
2026-06-16 17:34:50.974,250281,L_Hip,-0.8942,0.343,0.3267,4.38,-6.2,-5.54,0.0,0.0,0.0,0.829585,0.14185,0.533586,0.083071,0.0,0.0,0.0,0,0
2026-06-16 17:34:50.976,250301,L_Hip,-0.8883,0.3454,0.3127,4.36,-6.17,-5.51,35.56,9.33,19.59,0.829646,0.141881,0.533494,0.083102,0.0,0.0,0.0,0,0
2026-06-16 17:34:50.995,250266,L_Hip,-0.8918,0.3415,0.3103,4.35,-6.19,-5.54,36.07,8.54,18.28,0.829676,0.141942,0.533403,0.083132,0.0,0.0,0.0,0,0
2026-06-16 17:34:50.997,250286,L_Hip,-0.8962,0.3494,0.3141,4.33,-6.19,-5.56,35.4,8.85,18.58,0.829707,0.141972,0.533372,0.083193,0.0,0.0,0.0,0,0
2026-06-16 17:34:50.999,250306,L_Hip,-0.8888,0.341,0.3088,4.31,-6.17,-5.53,0.0,0.0,0.0,0.829707,0.142003,0.533311,0.083254,0.0,0.0,0.0,0,0
2026-06-16 17:34:51.001,250326,L_Hip,-0.8962,0.3449,0.3103,4.3,-6.12,-5.51,36.24,9.35,19.0,0.829737,0.142033,0.53325,0.083285,0.0,0.0,0.0,0,0
2026-06-16 17:34:51.020,250291,L_Hip,-0.8972,0.3425,0.3156,4.31,-6.03,-5.58,35.92,9.35,18.43,0.829768,0.142064,0.533219,0.083346,0.0,0.0,0.0,0,0
2026-06-16 17:34:51.022,250311,L_Hip,-0.9055,0.3395,0.3107,4.26,-6.03,-5.56,36.41,9.19,18.86,0.829768,0.142064,0.533189,0.083407,0.0,0.0,0.0,0,0
2026-06-16 17:34:51.024,250331,L_Hip,-0.9011,0.3439,0.3233,4.25,-6.04,-5.58,0.0,0.0,0.0,0.829768,0.142064,0.533189,0.083468,0.0,0.0,0.0,0,0
2026-06-16 17:34:51.026,250351,L_Hip,-0.8972,0.3327,0.3098,4.25,-6.06,-5.56,36.08,9.19,18.57,0.829737,0.142064,0.533219,0.08356,0.0,0.0,0.0,0,0
2026-06-16 17:34:51.045,250316,L_Hip,-0.8893,0.3371,0.3146,4.29,-6.19,-5.6,36.41,9.19,19.15,0.829707,0.142003,0.53325,0.083621,0.0,0.0,0.0,0,0
2026-06-16 17:34:51.047,250336,L_Hip,-0.8977,0.3385,0.3103,4.26,-6.11,-5.64,36.58,8.39,17.84,0.829707,0.141942,0.53328,0.083651,0.0,0.0,0.0,0,0
2026-06-16 17:34:51.049,250356,L_Hip,-0.9031,0.3371,0.3175,4.28,-6.1,-5.63,0.0,0.0,0.0,0.829737,0.141881,0.53325,0.083651,0.0,0.0,0.0,0,0
2026-06-16 17:34:51.051,250376,L_Hip,-0.8977,0.3302,0.3107,4.31,-6.1,-5.61,35.92,9.02,17.85,0.829768,0.14182,0.533219,0.083682,0.0,0.0,0.0,0,0
2026-06-16 17:34:51.069,250341,L_Hip,-0.9031,0.3322,0.3156,4.32,-6.05,-5.58,35.88,8.37,19.59,0.829768,0.141758,0.533219,0.083682,0.0,0.0,0.0,0,0
2026-06-16 17:34:51.072,250361,L_Hip,-0.8977,0.3297,0.3316,4.31,-6.06,-5.55,35.41,8.85,18.0,0.829768,0.141697,0.533219,0.083682,0.0,0.0,0.0,0,0
2026-06-16 17:34:51.074,250381,L_Hip,-0.8967,0.3272,0.3224,4.32,-6.06,-5.57,36.22,8.06,18.72,0.829768,0.141667,0.533219,0.083712,0.0,0.0,0.0,0,0
2026-06-16 17:34:51.076,250401,L_Hip,-0.907,0.3395,0.3272,4.33,-6.03,-5.61,0.0,0.0,0.0,0.829768,0.141636,0.53325,0.083743,0.0,0.0,0.0,0,0
2026-06-16 17:34:51.119,250391,L_Hip,-0.9065,0.3371,0.3044,4.35,-6.21,-5.65,36.76,9.52,18.56,0.829798,0.141575,0.53325,0.083773,0.0,0.0,0.0,0,0
2026-06-16 17:34:51.122,250411,L_Hip,-0.905,0.3287,0.3117,4.34,-6.22,-5.65,36.41,8.23,17.99,0.829798,0.141514,0.53325,0.083743,0.0,0.0,0.0,0,0
2026-06-16 17:34:51.124,250431,L_Hip,-0.8981,0.3317,0.3282,4.35,-6.22,-5.64,37.43,9.21,18.26,0.829829,0.141453,0.533219,0.083682,0.0,0.0,0.0,0,0
2026-06-16 17:34:51.126,250451,L_Hip,-0.908,0.3405,0.3049,4.38,-6.21,-5.63,0.0,0.0,0.0,0.829859,0.141423,0.533189,0.083621,0.0,0.0,0.0,0,0
2026-06-16 17:34:51.169,250441,L_Hip,-0.8932,0.3346,0.3209,4.4,-6.14,-5.57,36.07,9.18,19.15,0.82992,0.141362,0.533097,0.08356,0.0,0.0,0.0,0,0
2026-06-16 17:34:51.172,250461,L_Hip,-0.8903,0.3356,0.3141,4.41,-6.06,-5.54,36.95,10.01,18.12,0.829951,0.141362,0.533067,0.083529,0.0,0.0,0.0,0,0
2026-06-16 17:34:51.174,250481,L_Hip,-0.8942,0.3376,0.3194,4.41,-6.03,-5.54,36.24,8.7,18.71,0.829981,0.141392,0.533036,0.083529,0.0,0.0,0.0,0,0
2026-06-16 17:34:51.176,250501,L_Hip,-0.8918,0.3439,0.3238,4.38,-6.06,-5.59,35.76,9.18,17.7,0.829951,0.141453,0.533036,0.083529,0.0,0.0,0.0,0,0
2026-06-16 17:34:51.219,250491,L_Hip,-0.9006,0.342,0.3228,4.34,-6.09,-5.64,35.74,9.18,18.57,0.82992,0.141484,0.533067,0.08356,0.0,0.0,0.0,0,0
2026-06-16 17:34:51.221,250511,L_Hip,-0.907,0.3439,0.3049,4.35,-6.11,-5.62,0.0,0.0,0.0,0.82992,0.141484,0.533097,0.08356,0.0,0.0,0.0,0,0
2026-06-16 17:34:51.224,250531,L_Hip,-0.8972,0.3395,0.3044,4.33,-6.12,-5.62,35.72,8.21,18.87,0.82989,0.141484,0.533128,0.08356,0.0,0.0,0.0,0,0
2026-06-16 17:34:51.226,250551,L_Hip,-0.8981,0.3395,0.3064,4.3,-6.18,-5.61,35.92,9.35,18.43,0.82992,0.141453,0.533128,0.083529,0.0,0.0,0.0,0,0
2026-06-16 17:34:51.270,250541,L_Hip,-0.8888,0.3405,0.3112,4.26,-6.22,-5.62,35.43,9.5,17.71,0.82989,0.141453,0.533128,0.083529,0.0,0.0,0.0,0,0
2026-06-16 17:34:51.272,250561,L_Hip,-0.8972,0.3327,0.303,4.25,-6.13,-5.59,0.0,0.0,0.0,0.82992,0.141423,0.533097,0.08356,0.0,0.0,0.0,0,0
2026-06-16 17:34:51.274,250581,L_Hip,-0.8972,0.3272,0.3175,4.25,-6.1,-5.56,36.59,9.04,18.42,0.829981,0.141392,0.533006,0.08359,0.0,0.0,0.0,0,0
2026-06-16 17:34:51.276,250601,L_Hip,-0.8991,0.3351,0.3136,4.32,-6.05,-5.54,34.75,10.13,18.3,0.830012,0.141331,0.532975,0.083621,0.0,0.0,0.0,0,0
2026-06-16 17:34:51.295,250566,L_Hip,-0.9001,0.3263,0.3044,4.35,-5.99,-5.53,35.9,8.38,18.14,0.830012,0.14127,0.533006,0.083651,0.0,0.0,0.0,0,0
2026-06-16 17:34:51.297,250586,L_Hip,-0.8981,0.3238,0.3257,4.34,-6.01,-5.56,0.0,0.0,0.0,0.829981,0.14127,0.533006,0.083682,0.0,0.0,0.0,0,0
2026-06-16 17:34:51.299,250606,L_Hip,-0.905,0.3336,0.3161,4.35,-6.0,-5.58,36.73,8.55,19.14,0.829951,0.14124,0.533067,0.083743,0.0,0.0,0.0,0,0
2026-06-16 17:34:51.301,250626,L_Hip,-0.8986,0.3292,0.3112,4.36,-6.13,-5.61,36.09,9.19,17.99,0.82992,0.141209,0.533128,0.083743,0.0,0.0,0.0,0,0
2026-06-16 17:34:51.344,250616,L_Hip,-0.9021,0.3425,0.3262,4.37,-6.1,-5.62,35.58,9.34,18.14,0.82989,0.141179,0.533158,0.083743,0.0,0.0,0.0,0,0
2026-06-16 17:34:51.346,250636,L_Hip,-0.8854,0.3322,0.3132,4.35,-6.18,-5.6,0.0,0.0,0.0,0.82992,0.141148,0.533158,0.083712,0.0,0.0,0.0,0,0
2026-06-16 17:34:51.349,250656,L_Hip,-0.8972,0.3351,0.3078,4.36,-6.19,-5.58,35.27,9.98,17.56,0.82992,0.141118,0.533189,0.083651,0.0,0.0,0.0,0,0
2026-06-16 17:34:51.351,250676,L_Hip,-0.8967,0.3322,0.3165,4.34,-6.1,-5.59,37.11,9.85,17.97,0.829951,0.141118,0.533128,0.083651,0.0,0.0,0.0,0,0
2026-06-16 17:34:51.370,250641,L_Hip,-0.8996,0.3282,0.3224,4.32,-6.13,-5.56,35.91,8.38,17.85,0.829981,0.141118,0.533097,0.083651,0.0,0.0,0.0,0,0
2026-06-16 17:34:51.372,250661,L_Hip,-0.8967,0.3292,0.3083,4.38,-6.09,-5.54,0.0,0.0,0.0,0.829981,0.141087,0.533097,0.083651,0.0,0.0,0.0,0,0
2026-06-16 17:34:51.374,250681,L_Hip,-0.8859,0.3356,0.319,4.37,-6.07,-5.55,35.74,9.5,18.86,0.829981,0.141057,0.533067,0.083682,0.0,0.0,0.0,0,0
2026-06-16 17:34:51.376,250701,L_Hip,-0.8991,0.3356,0.318,4.36,-6.07,-5.55,36.07,8.54,18.57,0.829981,0.141057,0.533067,0.083712,0.0,0.0,0.0,0,0
2026-06-16 17:34:51.419,250690,L_Hip,-0.9001,0.3277,0.3175,4.35,-6.09,-5.56,36.06,8.54,19.15,0.829981,0.141087,0.533067,0.083712,0.0,0.0,0.0,0,0
2026-06-16 17:34:51.421,250710,L_Hip,-0.8957,0.3439,0.3088,4.32,-6.12,-5.56,37.1,8.88,17.97,0.829951,0.141087,0.533097,0.083743,0.0,0.0,0.0,0,0
2026-06-16 17:34:51.423,250730,L_Hip,-0.8937,0.3327,0.3044,4.29,-6.13,-5.58,0.0,0.0,0.0,0.829951,0.141118,0.533097,0.083773,0.0,0.0,0.0,0,0
2026-06-16 17:34:51.425,250750,L_Hip,-0.8986,0.3307,0.3049,4.25,-6.17,-5.59,35.58,9.34,18.14,0.829951,0.141118,0.533097,0.083804,0.0,0.0,0.0,0,0
2026-06-16 17:34:51.445,250716,L_Hip,-0.8947,0.3277,0.303,4.25,-6.15,-5.61,36.59,9.04,18.13,0.829951,0.141087,0.533097,0.083834,0.0,0.0,0.0,0,0
2026-06-16 17:34:51.447,250736,L_Hip,-0.9001,0.3312,0.3214,4.28,-6.13,-5.6,35.75,9.5,18.57,0.829981,0.141026,0.533067,0.083865,0.0,0.0,0.0,0,0
2026-06-16 17:34:51.449,250756,L_Hip,-0.8932,0.3282,0.3165,4.3,-6.12,-5.6,0.0,0.0,0.0,0.830012,0.140934,0.533036,0.083895,0.0,0.0,0.0,0,0
2026-06-16 17:34:51.451,250776,L_Hip,-0.8957,0.3371,0.3156,4.31,-6.13,-5.59,35.28,10.31,16.98,0.830042,0.140873,0.533006,0.083895,0.0,0.0,0.0,0,0
2026-06-16 17:34:51.469,250741,L_Hip,-0.8918,0.3331,0.3156,4.31,-6.09,-5.64,36.6,9.36,18.13,0.830073,0.140843,0.532975,0.083926,0.0,0.0,0.0,0,0
2026-06-16 17:34:51.472,250761,L_Hip,-0.908,0.3346,0.3194,4.32,-6.09,-5.61,36.1,9.83,18.28,0.830073,0.140812,0.532975,0.083926,0.0,0.0,0.0,0,0
2026-06-16 17:34:51.474,250781,L_Hip,-0.9035,0.3272,0.3306,4.34,-6.09,-5.6,0.0,0.0,0.0,0.830103,0.140751,0.532914,0.083956,0.0,0.0,0.0,0,0
2026-06-16 17:34:51.476,250801,L_Hip,-0.9085,0.3395,0.3325,4.36,-6.02,-5.56,35.75,10.15,19.15,0.830134,0.140721,0.532914,0.083926,0.0,0.0,0.0,0,0
2026-06-16 17:34:51.569,250841,L_Hip,-0.8996,0.3302,0.3069,4.41,-6.04,-5.56,35.74,9.5,19.16,0.830134,0.14066,0.532914,0.083926,0.0,0.0,0.0,0,0
2026-06-16 17:34:51.572,250861,L_Hip,-0.9065,0.3361,0.3219,4.42,-6.0,-5.54,36.09,10.15,18.86,0.830134,0.14066,0.532945,0.083956,0.0,0.0,0.0,0,0
2026-06-16 17:34:51.574,250881,L_Hip,-0.8991,0.342,0.3093,4.4,-6.03,-5.53,0.0,0.0,0.0,0.830134,0.14069,0.532914,0.083956,0.0,0.0,0.0,0,0
2026-06-16 17:34:51.576,250901,L_Hip,-0.9006,0.3351,0.3243,4.42,-6.03,-5.55,35.21,8.68,19.31,0.830073,0.140721,0.532975,0.083956,0.0,0.0,0.0,0,0
2026-06-16 17:34:51.594,250866,L_Hip,-0.9045,0.3302,0.3204,4.48,-6.14,-5.51,36.6,9.36,18.13,0.830042,0.140751,0.533006,0.083987,0.0,0.0,0.0,0,0
2026-06-16 17:34:51.597,250886,L_Hip,-0.8942,0.341,0.319,4.47,-6.13,-5.51,35.4,8.21,18.0,0.830042,0.140782,0.533036,0.083987,0.0,0.0,0.0,0,0
2026-06-16 17:34:51.599,250906,L_Hip,-0.8918,0.3538,0.3025,4.46,-6.1,-5.54,36.45,9.52,17.11,0.830042,0.140843,0.533006,0.083987,0.0,0.0,0.0,0,0
2026-06-16 17:34:51.601,250926,L_Hip,-0.8908,0.3444,0.317,4.38,-6.11,-5.57,0.0,0.0,0.0,0.830042,0.140934,0.533006,0.083987,0.0,0.0,0.0,0,0
2026-06-16 17:34:51.619,250891,L_Hip,-0.8829,0.3361,0.3015,4.33,-6.13,-5.55,35.76,9.5,17.99,0.830012,0.141026,0.533006,0.083987,0.0,0.0,0.0,0,0
2026-06-16 17:34:51.622,250911,L_Hip,-0.8898,0.3484,0.303,4.31,-6.09,-5.58,35.89,7.73,18.43,0.830012,0.141057,0.532975,0.084017,0.0,0.0,0.0,0,0
2026-06-16 17:34:51.624,250931,L_Hip,-0.8898,0.341,0.3141,4.32,-6.09,-5.6,35.39,8.21,18.58,0.830042,0.141087,0.532914,0.084078,0.0,0.0,0.0,0,0
2026-06-16 17:34:51.626,250951,L_Hip,-0.8898,0.339,0.3243,4.3,-6.11,-5.61,0.0,0.0,0.0,0.830042,0.141087,0.532914,0.084109,0.0,0.0,0.0,0,0
2026-06-16 17:34:51.669,250941,L_Hip,-0.8869,0.3405,0.3156,4.25,-6.14,-5.63,36.25,8.39,17.55,0.830042,0.141087,0.532945,0.08414,0.0,0.0,0.0,0,0
2026-06-16 17:34:51.672,250961,L_Hip,-0.8937,0.3356,0.3175,4.26,-6.08,-5.62,35.4,8.21,18.0,0.830073,0.141057,0.532884,0.08417,0.0,0.0,0.0,0,0
2026-06-16 17:34:51.674,250981,L_Hip,-0.8903,0.3302,0.2996,4.29,-6.06,-5.61,35.39,9.17,19.45,0.830103,0.140996,0.532853,0.08417,0.0,0.0,0.0,0,0
2026-06-16 17:34:51.676,251001,L_Hip,-0.9021,0.3361,0.3136,4.29,-6.02,-5.61,37.82,10.51,17.09,0.830103,0.140934,0.532853,0.084201,0.0,0.0,0.0,0,0
2026-06-16 17:34:51.694,250966,L_Hip,-0.8962,0.3317,0.3233,4.3,-6.02,-5.62,37.1,9.53,18.55,0.830073,0.140904,0.532884,0.084231,0.0,0.0,0.0,0,0
2026-06-16 17:34:51.697,250986,L_Hip,-0.8928,0.3351,0.3122,4.3,-6.05,-5.64,0.0,0.0,0.0,0.830073,0.140843,0.532914,0.084262,0.0,0.0,0.0,0,0
2026-06-16 17:34:51.699,251006,L_Hip,-0.8986,0.34,0.3001,4.29,-6.01,-5.65,35.55,8.69,19.31,0.830012,0.140782,0.533006,0.084292,0.0,0.0,0.0,0,0
2026-06-16 17:34:51.701,251026,L_Hip,-0.8918,0.3272,0.3132,4.28,-5.95,-5.63,35.95,10.32,17.84,0.830012,0.140721,0.533036,0.084292,0.0,0.0,0.0,0,0
2026-06-16 17:34:51.719,250991,L_Hip,-0.8977,0.3263,0.304,4.28,-5.95,-5.6,36.39,7.9,18.86,0.829981,0.14066,0.533128,0.084292,0.0,0.0,0.0,0,0
2026-06-16 17:34:51.721,251011,L_Hip,-0.8937,0.3204,0.3088,4.31,-5.93,-5.6,0.0,0.0,0.0,0.82992,0.140599,0.533189,0.084323,0.0,0.0,0.0,0,0
2026-06-16 17:34:51.723,251031,L_Hip,-0.9089,0.3307,0.3175,4.32,-5.93,-5.6,35.72,8.85,19.45,0.82989,0.140538,0.53325,0.084353,0.0,0.0,0.0,0,0
2026-06-16 17:34:51.725,251051,L_Hip,-0.8937,0.3371,0.3194,4.32,-6.06,-5.61,35.39,7.89,18.0,0.829829,0.140477,0.533341,0.084384,0.0,0.0,0.0,0,0
2026-06-16 17:34:51.820,251091,L_Hip,-0.9011,0.3292,0.3141,4.25,-6.09,-5.66,36.09,9.19,17.7,0.829798,0.140416,0.533464,0.084384,0.0,0.0,0.0,0,0
2026-06-16 17:34:51.822,251111,L_Hip,-0.9129,0.3287,0.3132,4.32,-6.01,-5.64,35.41,9.5,18.58,0.829798,0.140355,0.533433,0.084384,0.0,0.0,0.0,0,0
2026-06-16 17:34:51.824,251131,L_Hip,-0.9134,0.3381,0.3301,4.35,-5.99,-5.56,0.0,0.0,0.0,0.829829,0.140263,0.533433,0.084384,0.0,0.0,0.0,0,0
2026-06-16 17:34:51.826,251151,L_Hip,-0.904,0.3253,0.3219,4.37,-5.97,-5.52,36.6,9.68,18.12,0.829829,0.140141,0.533464,0.084353,0.0,0.0,0.0,0,0
2026-06-16 17:34:51.870,251141,L_Hip,-0.905,0.316,0.317,4.46,-5.9,-5.47,36.41,8.55,18.28,0.829768,0.14011,0.533555,0.084353,0.0,0.0,0.0,0,0
2026-06-16 17:34:51.872,251161,L_Hip,-0.8928,0.313,0.3136,4.49,-5.89,-5.52,37.26,9.37,18.99,0.829737,0.14011,0.533586,0.084414,0.0,0.0,0.0,0,0
2026-06-16 17:34:51.874,251181,L_Hip,-0.9045,0.3223,0.3117,4.54,-5.99,-5.62,0.0,0.0,0.0,0.829676,0.140172,0.533677,0.084475,0.0,0.0,0.0,0,0
2026-06-16 17:34:51.876,251201,L_Hip,-0.8977,0.3297,0.3214,4.54,-6.04,-5.65,36.94,9.37,17.54,0.829585,0.140202,0.533799,0.084475,0.0,0.0,0.0,0,0
2026-06-16 17:34:51.920,251191,L_Hip,-0.9129,0.3381,0.3282,4.6,-5.97,-5.57,35.92,9.35,18.43,0.829524,0.140233,0.533891,0.084384,0.0,0.0,0.0,0,0
2026-06-16 17:34:51.922,251211,L_Hip,-0.9104,0.3292,0.3291,4.62,-5.94,-5.53,0.0,0.0,0.0,0.829493,0.140294,0.533952,0.084262,0.0,0.0,0.0,0,0
2026-06-16 17:34:51.924,251231,L_Hip,-0.9104,0.3351,0.3214,4.64,-5.92,-5.48,36.77,9.52,18.27,0.829463,0.140355,0.534013,0.08414,0.0,0.0,0.0,0,0
2026-06-16 17:34:51.926,251251,L_Hip,-0.9241,0.3327,0.3349,4.67,-5.89,-5.45,37.28,10.66,19.27,0.829402,0.140507,0.534074,0.084078,0.0,0.0,0.0,0,0
2026-06-16 17:34:51.944,251216,L_Hip,-0.9428,0.3405,0.3466,4.77,-5.86,-5.35,35.56,8.69,19.02,0.82931,0.14066,0.534165,0.084048,0.0,0.0,0.0,0,0
2026-06-16 17:34:51.947,251236,L_Hip,-0.9389,0.3498,0.349,4.78,-5.93,-5.29,35.03,8.52,20.04,0.829218,0.140843,0.534257,0.084017,0.0,0.0,0.0,0,0
2026-06-16 17:34:51.949,251256,L_Hip,-0.9305,0.3621,0.3403,4.8,-6.0,-5.25,0.0,0.0,0.0,0.829127,0.141057,0.534379,0.084017,0.0,0.0,0.0,0,0
2026-06-16 17:34:51.951,251276,L_Hip,-0.8962,0.3449,0.3257,4.81,-6.12,-5.21,35.94,9.67,17.55,0.829005,0.141362,0.534471,0.084017,0.0,0.0,0.0,0,0
2026-06-16 17:34:51.995,251266,L_Hip,-0.8643,0.3459,0.3141,4.7,-6.16,-5.31,36.57,8.07,18.42,0.828944,0.141728,0.53444,0.084078,0.0,0.0,0.0,0,0
2026-06-16 17:34:51.997,251286,L_Hip,-0.8383,0.3341,0.3059,4.7,-6.14,-5.31,35.9,8.38,18.43,0.828913,0.142155,0.534379,0.08414,0.0,0.0,0.0,0,0
2026-06-16 17:34:51.999,251306,L_Hip,-0.8354,0.3385,0.2948,4.72,-6.07,-5.35,0.0,0.0,0.0,0.828913,0.142552,0.534257,0.084231,0.0,0.0,0.0,0,0
2026-06-16 17:34:52.001,251326,L_Hip,-0.8344,0.3484,0.2759,4.66,-5.98,-5.35,36.08,9.19,18.28,0.828883,0.142918,0.534196,0.084292,0.0,0.0,0.0,0,0
2026-06-16 17:34:52.019,251291,L_Hip,-0.8334,0.343,0.2793,4.53,-5.82,-5.44,36.42,9.19,18.27,0.828852,0.143254,0.534165,0.084353,0.0,0.0,0.0,0,0
2026-06-16 17:34:52.022,251311,L_Hip,-0.8314,0.3469,0.2759,4.48,-5.8,-5.52,36.6,9.36,18.13,0.82873,0.143559,0.534257,0.084445,0.0,0.0,0.0,0,0
2026-06-16 17:34:52.024,251331,L_Hip,-0.8334,0.3464,0.2831,4.44,-5.75,-5.57,0.0,0.0,0.0,0.828578,0.143803,0.53441,0.084567,0.0,0.0,0.0,0,0
2026-06-16 17:34:52.026,251351,L_Hip,-0.856,0.3518,0.2856,4.34,-5.67,-5.64,35.92,9.67,18.72,0.828425,0.143986,0.534562,0.084628,0.0,0.0,0.0,0,0
2026-06-16 17:34:52.044,251316,L_Hip,-0.8834,0.3538,0.3001,4.24,-5.58,-5.7,35.9,8.38,18.43,0.828242,0.144108,0.534806,0.084719,0.0,0.0,0.0,0,0
2026-06-16 17:34:52.047,251336,L_Hip,-0.9183,0.3489,0.3141,4.22,-5.6,-5.7,36.07,8.22,18.28,0.828059,0.144108,0.535051,0.08478,0.0,0.0,0.0,0,0
2026-06-16 17:34:52.049,251356,L_Hip,-0.9349,0.3597,0.2948,4.19,-5.68,-5.71,0.0,0.0,0.0,0.827876,0.144047,0.535356,0.084841,0.0,0.0,0.0,0,0
2026-06-16 17:34:52.051,251376,L_Hip,-0.9497,0.3538,0.3146,4.12,-5.8,-5.72,36.76,9.52,18.85,0.827692,0.143986,0.535661,0.084902,0.0,0.0,0.0,0,0
2026-06-16 17:34:52.120,251391,L_Hip,-0.9742,0.3405,0.3103,4.07,-6.05,-5.66,36.42,9.52,18.56,0.82754,0.143803,0.535936,0.084964,0.0,0.0,0.0,0,0
2026-06-16 17:34:52.122,251411,L_Hip,-0.9497,0.34,0.3107,4.06,-6.11,-5.62,36.4,8.23,18.28,0.827448,0.14362,0.536149,0.084994,0.0,0.0,0.0,0,0
2026-06-16 17:34:52.124,251431,L_Hip,-0.96,0.3253,0.3049,4.06,-6.13,-5.57,34.56,9.32,18.74,0.827357,0.143406,0.536302,0.085025,0.0,0.0,0.0,0,0
2026-06-16 17:34:52.126,251451,L_Hip,-0.9649,0.3189,0.3059,4.06,-6.12,-5.51,0.0,0.0,0.0,0.827326,0.143162,0.536424,0.085055,0.0,0.0,0.0,0,0
2026-06-16 17:34:52.144,251416,L_Hip,-0.9457,0.2993,0.3151,4.14,-6.3,-5.42,35.22,9.33,19.6,0.827326,0.142918,0.536454,0.085116,0.0,0.0,0.0,0,0
2026-06-16 17:34:52.147,251436,L_Hip,-0.93,0.2953,0.3262,4.21,-6.36,-5.38,34.54,8.99,19.61,0.827357,0.142705,0.536515,0.085177,0.0,0.0,0.0,0,0
2026-06-16 17:34:52.149,251456,L_Hip,-0.9222,0.2781,0.3132,4.27,-6.41,-5.35,36.61,10.0,18.12,0.827418,0.142491,0.536454,0.085238,0.0,0.0,0.0,0,0
2026-06-16 17:34:52.151,251476,L_Hip,-0.9085,0.287,0.3098,4.43,-6.44,-5.31,0.0,0.0,0.0,0.827509,0.142308,0.536332,0.085269,0.0,0.0,0.0,0,0
2026-06-16 17:34:52.169,251441,L_Hip,-0.8878,0.2781,0.3122,4.66,-6.4,-5.29,35.92,9.02,18.14,0.827662,0.142216,0.536119,0.085299,0.0,0.0,0.0,0,0
2026-06-16 17:34:52.172,251461,L_Hip,-0.8761,0.288,0.3098,4.79,-6.41,-5.32,37.43,8.57,17.97,0.827784,0.142216,0.535936,0.085269,0.0,0.0,0.0,0,0
2026-06-16 17:34:52.174,251481,L_Hip,-0.8795,0.2894,0.2967,4.83,-6.38,-5.35,36.1,9.19,17.41,0.827876,0.142308,0.535752,0.085208,0.0,0.0,0.0,0,0
2026-06-16 17:34:52.176,251501,L_Hip,-0.8677,0.285,0.317,4.93,-6.32,-5.37,34.21,9.31,19.61,0.827998,0.142491,0.535569,0.085086,0.0,0.0,0.0,0,0
2026-06-16 17:34:52.195,251466,L_Hip,-0.8736,0.3076,0.3277,5.04,-6.29,-5.5,36.06,8.54,19.15,0.828059,0.142766,0.535417,0.084933,0.0,0.0,0.0,0,0
2026-06-16 17:34:52.197,251486,L_Hip,-0.8756,0.3204,0.3219,5.05,-6.25,-5.53,0.0,0.0,0.0,0.82812,0.143071,0.535264,0.084719,0.0,0.0,0.0,0,0
2026-06-16 17:34:52.199,251506,L_Hip,-0.8717,0.3327,0.3349,5.09,-6.19,-5.51,36.59,9.04,18.42,0.828211,0.143437,0.535081,0.084475,0.0,0.0,0.0,0,0
2026-06-16 17:34:52.201,251526,L_Hip,-0.8756,0.343,0.3233,5.15,-6.06,-5.48,35.59,9.98,18.43,0.828272,0.143803,0.534959,0.084201,0.0,0.0,0.0,0,0
2026-06-16 17:34:52.219,251491,L_Hip,-0.8795,0.3724,0.319,5.09,-5.94,-5.37,36.4,8.87,19.44,0.828242,0.1442,0.534867,0.083987,0.0,0.0,0.0,0,0
2026-06-16 17:34:52.221,251511,L_Hip,-0.879,0.3665,0.3316,5.06,-5.9,-5.38,0.0,0.0,0.0,0.828211,0.144688,0.534837,0.083773,0.0,0.0,0.0,0,0
2026-06-16 17:34:52.224,251531,L_Hip,-0.8898,0.3739,0.3354,5.02,-5.89,-5.39,36.59,9.04,18.13,0.82815,0.145238,0.534806,0.083651,0.0,0.0,0.0,0,0
2026-06-16 17:34:52.226,251551,L_Hip,-0.8874,0.3906,0.3335,4.96,-5.95,-5.41,36.08,9.19,18.28,0.828028,0.145817,0.534867,0.083621,0.0,0.0,0.0,0,0
2026-06-16 17:34:52.244,251516,L_Hip,-0.8878,0.4058,0.3127,4.83,-6.04,-5.47,35.57,8.69,18.43,0.827906,0.146306,0.534898,0.08356,0.0,0.0,0.0,0,0
2026-06-16 17:34:52.246,251536,L_Hip,-0.8874,0.4049,0.3296,4.81,-6.09,-5.47,0.0,0.0,0.0,0.827845,0.146825,0.534867,0.08356,0.0,0.0,0.0,0,0
2026-06-16 17:34:52.249,251556,L_Hip,-0.8859,0.4073,0.3136,4.77,-6.11,-5.45,36.47,10.81,17.4,0.827784,0.147282,0.534837,0.08356,0.0,0.0,0.0,0,0
2026-06-16 17:34:52.251,251576,L_Hip,-0.8991,0.4122,0.3011,4.64,-6.07,-5.45,37.43,9.53,18.84,0.827692,0.147771,0.534806,0.08359,0.0,0.0,0.0,0,0
2026-06-16 17:34:52.269,251541,L_Hip,-0.8878,0.4186,0.2822,4.5,-6.03,-5.31,35.75,9.82,18.86,0.827662,0.148198,0.534745,0.083651,0.0,0.0,0.0,0,0
2026-06-16 17:34:52.271,251561,L_Hip,-0.8859,0.4196,0.2856,4.42,-6.04,-5.31,0.0,0.0,0.0,0.827601,0.148595,0.534745,0.083743,0.0,0.0,0.0,0,0
2026-06-16 17:34:52.273,251581,L_Hip,-0.8932,0.4112,0.2764,4.32,-6.03,-5.3,36.23,8.7,19.01,0.827509,0.149052,0.534715,0.083956,0.0,0.0,0.0,0,0
2026-06-16 17:34:52.276,251601,L_Hip,-0.8918,0.3911,0.2667,4.19,-6.04,-5.31,36.24,8.38,18.42,0.827387,0.149419,0.534745,0.084231,0.0,0.0,0.0,0,0
2026-06-16 17:34:52.319,251591,L_Hip,-0.8751,0.3828,0.271,3.94,-6.04,-5.37,35.93,9.35,17.55,0.827265,0.149693,0.534806,0.084536,0.0,0.0,0.0,0,0
2026-06-16 17:34:52.322,251611,L_Hip,-0.8864,0.3773,0.2759,3.89,-6.03,-5.38,0.0,0.0,0.0,0.827174,0.149846,0.534867,0.084872,0.0,0.0,0.0,0,0
2026-06-16 17:34:52.324,251631,L_Hip,-0.8766,0.3646,0.2667,3.86,-6.0,-5.4,35.89,8.05,18.43,0.827082,0.149907,0.534928,0.085238,0.0,0.0,0.0,0,0
2026-06-16 17:34:52.326,251651,L_Hip,-0.8687,0.3567,0.2696,3.79,-6.06,-5.45,36.25,9.03,18.42,0.827021,0.149876,0.534989,0.085604,0.0,0.0,0.0,0,0
2026-06-16 17:34:52.369,251641,L_Hip,-0.8878,0.3395,0.2783,3.73,-6.02,-5.56,35.55,8.37,19.31,0.82696,0.149724,0.535051,0.08594,0.0,0.0,0.0,0,0
2026-06-16 17:34:52.372,251661,L_Hip,-0.8986,0.3312,0.2744,3.72,-6.0,-5.58,36.43,9.52,18.27,0.82693,0.14951,0.535112,0.086276,0.0,0.0,0.0,0,0
2026-06-16 17:34:52.374,251681,L_Hip,-0.8893,0.3322,0.2715,3.71,-5.96,-5.61,0.0,0.0,0.0,0.82693,0.149236,0.535173,0.08655,0.0,0.0,0.0,0,0
2026-06-16 17:34:52.376,251701,L_Hip,-0.906,0.3204,0.2812,3.74,-5.92,-5.61,35.39,8.53,18.87,0.826899,0.148869,0.535234,0.086795,0.0,0.0,0.0,0,0
2026-06-16 17:34:52.395,251666,L_Hip,-0.933,0.3194,0.2962,3.78,-5.97,-5.61,34.87,8.35,19.32,0.826868,0.148442,0.535386,0.086978,0.0,0.0,0.0,0,0
2026-06-16 17:34:52.397,251686,L_Hip,-0.9354,0.2963,0.3035,3.77,-6.01,-5.64,36.22,9.02,19.88,0.826807,0.148015,0.535569,0.087161,0.0,0.0,0.0,0,0
2026-06-16 17:34:52.399,251706,L_Hip,-0.9447,0.3032,0.3015,3.8,-6.03,-5.65,0.0,0.0,0.0,0.826777,0.147557,0.535722,0.087283,0.0,0.0,0.0,0,0
2026-06-16 17:34:52.401,251726,L_Hip,-0.9526,0.3066,0.304,3.94,-5.98,-5.58,36.77,9.84,18.56,0.826777,0.147099,0.535844,0.087436,0.0,0.0,0.0,0,0
2026-06-16 17:34:52.445,251716,L_Hip,-0.9482,0.2958,0.318,4.19,-6.03,-5.47,35.39,8.21,18.29,0.826777,0.146611,0.535966,0.087466,0.0,0.0,0.0,0,0
2026-06-16 17:34:52.447,251736,L_Hip,-0.9305,0.2894,0.3136,4.24,-6.08,-5.45,35.91,9.34,19.01,0.826777,0.146184,0.536058,0.087527,0.0,0.0,0.0,0,0
2026-06-16 17:34:52.449,251756,L_Hip,-0.9202,0.2727,0.3209,4.26,-6.22,-5.45,0.0,0.0,0.0,0.826838,0.145817,0.536058,0.087527,0.0,0.0,0.0,0,0
2026-06-16 17:34:52.451,251776,L_Hip,-0.9173,0.2727,0.3204,4.42,-6.24,-5.43,35.27,9.98,17.56,0.826838,0.145573,0.536149,0.087527,0.0,0.0,0.0,0,0
2026-06-16 17:34:52.494,251766,L_Hip,-0.8844,0.284,0.3243,4.74,-6.26,-5.42,35.74,9.82,19.44,0.82693,0.14539,0.536058,0.087466,0.0,0.0,0.0,0,0
2026-06-16 17:34:52.496,251786,L_Hip,-0.8834,0.287,0.3194,4.8,-6.25,-5.41,35.71,8.85,20.03,0.826991,0.145268,0.535997,0.087374,0.0,0.0,0.0,0,0
2026-06-16 17:34:52.498,251806,L_Hip,-0.8697,0.2811,0.3141,4.87,-6.22,-5.4,0.0,0.0,0.0,0.827082,0.145268,0.535905,0.087191,0.0,0.0,0.0,0,0
2026-06-16 17:34:52.500,251826,L_Hip,-0.8692,0.2993,0.3093,4.98,-6.13,-5.4,35.74,8.86,18.58,0.827143,0.14539,0.535783,0.087039,0.0,0.0,0.0,0,0
2026-06-16 17:34:52.519,251791,L_Hip,-0.8775,0.3179,0.3224,5.17,-6.03,-5.53,35.78,10.47,17.99,0.827174,0.145634,0.535691,0.086825,0.0,0.0,0.0,0,0
2026-06-16 17:34:52.522,251811,L_Hip,-0.8785,0.3223,0.3156,5.19,-5.99,-5.58,35.74,9.18,18.57,0.827174,0.14594,0.535661,0.086612,0.0,0.0,0.0,0,0
2026-06-16 17:34:52.524,251831,L_Hip,-0.8849,0.3508,0.319,5.22,-5.98,-5.58,35.93,9.35,17.55,0.827113,0.146306,0.535691,0.086337,0.0,0.0,0.0,0,0
2026-06-16 17:34:52.526,251851,L_Hip,-0.8849,0.3552,0.3253,5.25,-5.93,-5.55,0.0,0.0,0.0,0.827082,0.146702,0.535691,0.086032,0.0,0.0,0.0,0,0
2026-06-16 17:34:52.570,251841,L_Hip,-0.905,0.3636,0.3161,5.19,-6.0,-5.65,36.6,10.0,18.7,0.826991,0.14716,0.535783,0.085726,0.0,0.0,0.0,0,0
2026-06-16 17:34:52.572,251861,L_Hip,-0.8923,0.3729,0.3059,5.17,-6.0,-5.64,36.6,10.0,18.7,0.826868,0.147679,0.535875,0.085421,0.0,0.0,0.0,0,0
2026-06-16 17:34:52.574,251881,L_Hip,-0.8869,0.3842,0.3161,5.13,-5.96,-5.64,36.23,9.35,19.58,0.826746,0.148167,0.535936,0.085116,0.0,0.0,0.0,0,0
2026-06-16 17:34:52.576,251901,L_Hip,-0.8805,0.3837,0.3204,5.09,-5.93,-5.59,0.0,0.0,0.0,0.826655,0.148625,0.536027,0.084811,0.0,0.0,0.0,0,0
2026-06-16 17:34:52.620,251891,L_Hip,-0.8815,0.3832,0.3136,4.97,-5.96,-5.56,36.57,8.39,18.71,0.826533,0.149113,0.536119,0.084597,0.0,0.0,0.0,0,0
2026-06-16 17:34:52.622,251911,L_Hip,-0.8702,0.3906,0.3073,4.94,-5.98,-5.53,36.59,9.68,19.0,0.82638,0.149632,0.53618,0.084414,0.0,0.0,0.0,0,0
2026-06-16 17:34:52.624,251931,L_Hip,-0.878,0.3862,0.3064,4.93,-5.96,-5.51,34.91,9.65,18.73,0.826289,0.150121,0.536271,0.084292,0.0,0.0,0.0,0,0
2026-06-16 17:34:52.627,251951,L_Hip,-0.8599,0.3852,0.302,4.88,-5.93,-5.48,36.26,9.67,18.71,0.826167,0.150578,0.536302,0.08417,0.0,0.0,0.0,0,0
2026-06-16 17:34:52.720,251991,L_Hip,-0.8692,0.396,0.2875,4.79,-5.8,-5.54,35.23,9.01,18.73,0.826044,0.151036,0.536363,0.08414,0.0,0.0,0.0,0,0
2026-06-16 17:34:52.722,252011,L_Hip,-0.8663,0.4058,0.2827,4.74,-5.76,-5.53,0.0,0.0,0.0,0.825922,0.151494,0.536454,0.084109,0.0,0.0,0.0,0,0
2026-06-16 17:34:52.724,252031,L_Hip,-0.8869,0.4019,0.2754,4.68,-5.73,-5.52,36.58,9.03,18.71,0.8258,0.151891,0.536546,0.084078,0.0,0.0,0.0,0,0
2026-06-16 17:34:52.726,252051,L_Hip,-0.8771,0.4127,0.2696,4.61,-5.74,-5.52,34.9,9.65,19.31,0.825587,0.152318,0.536729,0.084078,0.0,0.0,0.0,0,0
2026-06-16 17:34:52.820,252091,L_Hip,-0.8878,0.3995,0.2783,4.25,-5.82,-5.54,36.29,10.32,17.55,0.825373,0.152715,0.536943,0.08414,0.0,0.0,0.0,0,0
2026-06-16 17:34:52.822,252111,L_Hip,-0.8923,0.4019,0.2812,4.12,-5.9,-5.52,0.0,0.0,0.0,0.825159,0.15302,0.537156,0.084231,0.0,0.0,0.0,0,0
2026-06-16 17:34:52.824,252131,L_Hip,-0.8854,0.3945,0.2657,4.04,-5.91,-5.52,36.38,8.54,19.73,0.825007,0.153233,0.537339,0.084414,0.0,0.0,0.0,0,0
2026-06-16 17:34:52.826,252151,L_Hip,-0.8825,0.3813,0.2657,3.96,-5.87,-5.51,35.55,8.05,18.44,0.824824,0.153325,0.537523,0.084628,0.0,0.0,0.0,0,0
2026-06-16 17:34:52.844,252116,L_Hip,-0.8967,0.3636,0.2841,3.75,-5.94,-5.54,35.24,9.01,17.86,0.824702,0.153325,0.537675,0.084872,0.0,0.0,0.0,0,0
2026-06-16 17:34:52.846,252136,L_Hip,-0.9035,0.3606,0.2793,3.73,-5.95,-5.57,0.0,0.0,0.0,0.82461,0.153203,0.537828,0.085147,0.0,0.0,0.0,0,0
2026-06-16 17:34:52.848,252156,L_Hip,-0.8937,0.3538,0.2701,3.71,-5.96,-5.57,35.37,7.88,19.17,0.824519,0.152989,0.53798,0.085482,0.0,0.0,0.0,0,0
2026-06-16 17:34:52.851,252176,L_Hip,-0.9026,0.3439,0.2768,3.68,-6.01,-5.61,36.11,9.84,17.7,0.824488,0.152715,0.538072,0.085757,0.0,0.0,0.0,0,0
2026-06-16 17:34:52.895,252166,L_Hip,-0.9232,0.3297,0.304,3.66,-6.04,-5.66,34.02,8.5,19.77,0.824458,0.152348,0.538163,0.086032,0.0,0.0,0.0,0,0
2026-06-16 17:34:52.897,252186,L_Hip,-0.9241,0.3381,0.2972,3.7,-6.09,-5.62,35.74,8.54,17.71,0.824458,0.151891,0.538255,0.086245,0.0,0.0,0.0,0,0
2026-06-16 17:34:52.899,252206,L_Hip,-0.9168,0.3238,0.3117,3.69,-6.07,-5.62,0.0,0.0,0.0,0.824488,0.151433,0.538316,0.086459,0.0,0.0,0.0,0,0
2026-06-16 17:34:52.901,252226,L_Hip,-0.9266,0.3272,0.2991,3.73,-6.12,-5.6,34.88,8.68,19.32,0.824549,0.150945,0.538316,0.086612,0.0,0.0,0.0,0,0
2026-06-16 17:34:52.920,252191,L_Hip,-0.9168,0.3189,0.3127,3.86,-6.16,-5.54,35.73,8.86,18.87,0.82458,0.150456,0.538347,0.086795,0.0,0.0,0.0,0,0
2026-06-16 17:34:52.922,252211,L_Hip,-0.9261,0.3135,0.3054,3.95,-6.15,-5.48,35.74,9.18,18.87,0.824671,0.149968,0.538316,0.086947,0.0,0.0,0.0,0,0
2026-06-16 17:34:52.924,252231,L_Hip,-0.9188,0.3101,0.3156,4.02,-6.15,-5.43,0.0,0.0,0.0,0.824763,0.149541,0.538316,0.0871,0.0,0.0,0.0,0,0
2026-06-16 17:34:52.926,252251,L_Hip,-0.9099,0.3051,0.3214,4.09,-6.14,-5.41,36.23,8.38,18.72,0.824854,0.149174,0.538255,0.087222,0.0,0.0,0.0,0,0
2026-06-16 17:34:52.945,252216,L_Hip,-0.905,0.3204,0.3136,4.31,-6.12,-5.41,34.89,9.0,18.73,0.824946,0.148869,0.538194,0.087344,0.0,0.0,0.0,0,0
2026-06-16 17:34:52.947,252236,L_Hip,-0.9045,0.3189,0.3088,4.38,-6.19,-5.43,36.41,8.87,18.86,0.825007,0.148656,0.538133,0.087436,0.0,0.0,0.0,0,0
2026-06-16 17:34:52.949,252256,L_Hip,-0.8898,0.3253,0.3219,4.42,-6.18,-5.41,0.0,0.0,0.0,0.825037,0.148534,0.538072,0.087527,0.0,0.0,0.0,0,0
2026-06-16 17:34:52.951,252276,L_Hip,-0.8918,0.3322,0.3078,4.45,-6.12,-5.43,35.09,9.81,18.0,0.825129,0.148473,0.53798,0.087558,0.0,0.0,0.0,0,0
2026-06-16 17:34:53.045,252316,L_Hip,-0.8854,0.3351,0.3049,4.57,-6.16,-5.41,36.21,7.73,19.3,0.82519,0.148473,0.537889,0.087588,0.0,0.0,0.0,0,0
2026-06-16 17:34:53.047,252336,L_Hip,-0.8888,0.3415,0.3069,4.58,-6.13,-5.42,35.56,8.69,18.72,0.82519,0.148534,0.537828,0.087588,0.0,0.0,0.0,0,0
2026-06-16 17:34:53.049,252356,L_Hip,-0.8903,0.3498,0.2923,4.57,-6.11,-5.46,0.0,0.0,0.0,0.82522,0.148625,0.537767,0.087588,0.0,0.0,0.0,0,0
2026-06-16 17:34:53.051,252376,L_Hip,-0.8903,0.3518,0.3044,4.56,-6.12,-5.46,36.91,9.04,18.99,0.82522,0.148778,0.537706,0.087588,0.0,0.0,0.0,0,0
2026-06-16 17:34:53.095,252366,L_Hip,-0.8854,0.34,0.3054,4.52,-6.17,-5.53,35.39,9.49,20.03,0.82522,0.148961,0.537706,0.087588,0.0,0.0,0.0,0,0
2026-06-16 17:34:53.097,252386,L_Hip,-0.8903,0.3439,0.302,4.51,-6.19,-5.57,35.04,8.52,19.17,0.82522,0.149113,0.537645,0.087588,0.0,0.0,0.0,0,0
2026-06-16 17:34:53.099,252406,L_Hip,-0.8859,0.3489,0.3083,4.52,-6.21,-5.6,0.0,0.0,0.0,0.82522,0.149205,0.537614,0.087527,0.0,0.0,0.0,0,0
2026-06-16 17:34:53.101,252426,L_Hip,-0.8849,0.3415,0.3083,4.52,-6.22,-5.62,35.58,9.34,18.14,0.82522,0.149327,0.537584,0.087497,0.0,0.0,0.0,0,0
2026-06-16 17:34:53.119,252391,L_Hip,-0.8883,0.3454,0.3064,4.51,-6.22,-5.7,34.37,9.15,19.76,0.825282,0.149388,0.537523,0.087436,0.0,0.0,0.0,0,0
2026-06-16 17:34:53.122,252411,L_Hip,-0.8923,0.3479,0.2986,4.53,-6.2,-5.7,35.71,8.21,19.45,0.825312,0.14948,0.537431,0.087313,0.0,0.0,0.0,0,0
2026-06-16 17:34:53.124,252431,L_Hip,-0.8908,0.3577,0.287,4.53,-6.19,-5.67,0.0,0.0,0.0,0.825343,0.149571,0.5374,0.087191,0.0,0.0,0.0,0,0
2026-06-16 17:34:53.126,252451,L_Hip,-0.8942,0.3543,0.2957,4.52,-6.17,-5.67,36.94,9.04,17.54,0.825373,0.149602,0.537339,0.087069,0.0,0.0,0.0,0,0
2026-06-16 17:34:53.144,252416,L_Hip,-0.8937,0.3435,0.2899,4.53,-6.12,-5.67,36.75,8.88,18.27,0.825373,0.149693,0.537339,0.086947,0.0,0.0,0.0,0,0
2026-06-16 17:34:53.147,252436,L_Hip,-0.8991,0.3459,0.3127,4.55,-6.16,-5.66,35.91,8.38,17.56,0.825373,0.149754,0.537339,0.086825,0.0,0.0,0.0,0,0
2026-06-16 17:34:53.149,252456,L_Hip,-0.8957,0.3351,0.3112,4.58,-6.2,-5.67,37.08,8.88,18.85,0.825373,0.149815,0.537339,0.086703,0.0,0.0,0.0,0,0
2026-06-16 17:34:53.151,252476,L_Hip,-0.8878,0.3479,0.3253,4.6,-6.17,-5.66,0.0,0.0,0.0,0.825373,0.149846,0.537339,0.08655,0.0,0.0,0.0,0,0
2026-06-16 17:34:53.194,252466,L_Hip,-0.8918,0.3503,0.3093,4.65,-6.14,-5.57,35.07,9.17,18.59,0.825434,0.149907,0.537278,0.086398,0.0,0.0,0.0,0,0
2026-06-16 17:34:53.197,252486,L_Hip,-0.9001,0.3479,0.3136,4.67,-6.09,-5.56,35.23,9.01,19.02,0.825465,0.150029,0.537248,0.086276,0.0,0.0,0.0,0,0
2026-06-16 17:34:53.199,252506,L_Hip,-0.9094,0.3548,0.3098,4.69,-6.08,-5.54,36.56,9.35,20.45,0.825465,0.150151,0.537217,0.086154,0.0,0.0,0.0,0,0
2026-06-16 17:34:53.201,252526,L_Hip,-0.9104,0.3567,0.3112,4.7,-6.14,-5.55,0.0,0.0,0.0,0.825465,0.150334,0.537187,0.086032,0.0,0.0,0.0,0,0
2026-06-16 17:34:53.220,252491,L_Hip,-0.9104,0.3523,0.3011,4.67,-6.25,-5.58,35.07,9.17,18.59,0.825434,0.150517,0.537187,0.08594,0.0,0.0,0.0,0,0
2026-06-16 17:34:53.222,252511,L_Hip,-0.9134,0.3513,0.3001,4.67,-6.28,-5.58,34.9,9.32,18.73,0.825434,0.150731,0.537156,0.085818,0.0,0.0,0.0,0,0
2026-06-16 17:34:53.224,252531,L_Hip,-0.9094,0.3641,0.3069,4.67,-6.26,-5.58,34.89,9.0,18.73,0.825434,0.150914,0.537095,0.085696,0.0,0.0,0.0,0,0
2026-06-16 17:34:53.226,252551,L_Hip,-0.9129,0.3543,0.3059,4.66,-6.26,-5.55,0.0,0.0,0.0,0.825465,0.151097,0.537034,0.085543,0.0,0.0,0.0,0,0
2026-06-16 17:34:53.270,252541,L_Hip,-0.8663,0.3552,0.2889,4.67,-6.21,-5.52,35.58,8.7,17.56,0.82577,0.152013,0.536393,0.085086,0.0,0.0,0.0,0,0
2026-06-16 17:34:53.272,252561,L_Hip,-0.88,0.3439,0.3127,4.67,-6.2,-5.55,0.0,0.0,0.0,0.8258,0.152226,0.536271,0.085055,0.0,0.0,0.0,0,0
2026-06-16 17:34:53.274,252581,L_Hip,-0.8815,0.3621,0.3064,4.7,-6.2,-5.6,35.24,9.01,18.15,0.825831,0.15244,0.53618,0.085025,0.0,0.0,0.0,0,0
2026-06-16 17:34:53.276,252601,L_Hip,-0.8795,0.369,0.2928,4.72,-6.23,-5.61,35.58,9.66,19.01,0.825831,0.152654,0.536119,0.084933,0.0,0.0,0.0,0,0
2026-06-16 17:34:53.294,252566,L_Hip,-0.8805,0.3729,0.287,4.59,-6.21,-5.54,35.57,8.69,18.43,0.825861,0.152867,0.536027,0.08478,0.0,0.0,0.0,0,0
2026-06-16 17:34:53.297,252586,L_Hip,-0.8893,0.3808,0.2822,4.58,-6.13,-5.51,0.0,0.0,0.0,0.825892,0.153111,0.535966,0.084658,0.0,0.0,0.0,0,0
2026-06-16 17:34:53.299,252606,L_Hip,-0.8937,0.3808,0.2735,4.55,-6.06,-5.48,36.91,8.72,18.7,0.825922,0.153325,0.535844,0.084597,0.0,0.0,0.0,0,0
2026-06-16 17:34:53.301,252626,L_Hip,-0.8756,0.3842,0.2725,4.51,-6.0,-5.39,36.76,8.88,17.69,0.825892,0.153569,0.535844,0.084567,0.0,0.0,0.0,0,0
2026-06-16 17:34:53.320,252591,L_Hip,-0.88,0.3931,0.272,4.3,-5.9,-5.46,35.6,9.99,18.14,0.8258,0.153813,0.535905,0.084628,0.0,0.0,0.0,0,0
2026-06-16 17:34:53.322,252611,L_Hip,-0.8736,0.3896,0.2725,4.25,-5.9,-5.49,0.0,0.0,0.0,0.825648,0.154057,0.536027,0.08478,0.0,0.0,0.0,0,0
2026-06-16 17:34:53.324,252631,L_Hip,-0.8775,0.3862,0.2652,4.19,-5.9,-5.54,35.58,9.02,18.14,0.825495,0.154271,0.536149,0.084964,0.0,0.0,0.0,0,0
2026-06-16 17:34:53.326,252651,L_Hip,-0.8839,0.3783,0.2739,4.07,-5.91,-5.63,35.04,9.48,20.33,0.825373,0.154393,0.536302,0.085147,0.0,0.0,0.0,0,0
2026-06-16 17:34:53.344,252616,L_Hip,-0.8864,0.3715,0.2686,3.91,-6.13,-5.76,35.38,9.17,19.74,0.825251,0.154424,0.536454,0.08533,0.0,0.0,0.0,0,0
2026-06-16 17:34:53.346,252636,L_Hip,-0.8869,0.367,0.2614,3.87,-6.13,-5.77,0.0,0.0,0.0,0.825159,0.154302,0.536637,0.085482,0.0,0.0,0.0,0,0
2026-06-16 17:34:53.349,252656,L_Hip,-0.8795,0.3744,0.273,3.81,-6.12,-5.83,35.62,9.99,16.69,0.825098,0.154118,0.536729,0.085604,0.0,0.0,0.0,0,0
2026-06-16 17:34:53.351,252676,L_Hip,-0.8903,0.3651,0.2681,3.76,-6.09,-5.85,36.05,7.25,18.29,0.825129,0.153844,0.53676,0.085696,0.0,0.0,0.0,0,0
2026-06-16 17:34:53.369,252641,L_Hip,-0.8972,0.3548,0.2749,3.61,-6.05,-5.82,36.75,9.2,18.85,0.825129,0.153539,0.536821,0.085788,0.0,0.0,0.0,0,0
2026-06-16 17:34:53.372,252661,L_Hip,-0.9006,0.3548,0.2802,3.6,-6.03,-5.86,0.0,0.0,0.0,0.825159,0.153111,0.536912,0.085879,0.0,0.0,0.0,0,0
2026-06-16 17:34:53.374,252681,L_Hip,-0.8952,0.341,0.2788,3.6,-6.04,-5.82,35.92,8.7,17.56,0.82519,0.152654,0.536943,0.086032,0.0,0.0,0.0,0,0
2026-06-16 17:34:53.376,252701,L_Hip,-0.9075,0.3351,0.2856,3.6,-6.0,-5.83,36.04,8.21,20.03,0.82522,0.152135,0.537034,0.086154,0.0,0.0,0.0,0,0
2026-06-16 17:34:53.420,252691,L_Hip,-0.908,0.3218,0.3059,3.6,-6.0,-5.9,36.95,10.01,17.83,0.825251,0.151616,0.537095,0.086306,0.0,0.0,0.0,0,0
2026-06-16 17:34:53.422,252711,L_Hip,-0.906,0.3204,0.3049,3.61,-5.99,-5.9,34.89,9.0,18.73,0.825282,0.151006,0.537187,0.086398,0.0,0.0,0.0,0,0
2026-06-16 17:34:53.424,252731,L_Hip,-0.9134,0.3194,0.3272,3.64,-5.99,-5.9,0.0,0.0,0.0,0.825343,0.150395,0.537309,0.086489,0.0,0.0,0.0,0,0
2026-06-16 17:34:53.427,252751,L_Hip,-0.9237,0.311,0.317,3.72,-5.96,-5.88,36.91,8.72,18.99,0.825404,0.149724,0.537339,0.08655,0.0,0.0,0.0,0,0
2026-06-16 17:34:53.445,252716,L_Hip,-0.9281,0.3042,0.3364,3.86,-5.97,-5.78,35.89,8.7,19.01,0.825495,0.149083,0.5374,0.086581,0.0,0.0,0.0,0,0
2026-06-16 17:34:53.447,252736,L_Hip,-0.9188,0.2973,0.3408,3.88,-5.98,-5.77,36.05,8.86,19.73,0.825556,0.148473,0.537492,0.086581,0.0,0.0,0.0,0,0
2026-06-16 17:34:53.449,252756,L_Hip,-0.9315,0.2948,0.3412,3.96,-6.04,-5.77,0.0,0.0,0.0,0.825617,0.147862,0.537523,0.08655,0.0,0.0,0.0,0,0
2026-06-16 17:34:53.451,252776,L_Hip,-0.9291,0.2904,0.3567,4.01,-6.1,-5.76,35.73,9.5,19.45,0.825739,0.147343,0.537523,0.08655,0.0,0.0,0.0,0,0
2026-06-16 17:34:53.470,252741,L_Hip,-0.934,0.2958,0.3679,4.4,-6.16,-5.64,35.56,9.01,19.01,0.825831,0.146825,0.537492,0.08652,0.0,0.0,0.0,0,0
2026-06-16 17:34:53.472,252761,L_Hip,-0.9237,0.2997,0.3543,4.49,-6.16,-5.61,35.4,9.49,19.16,0.825983,0.146367,0.537431,0.086428,0.0,0.0,0.0,0,0
2026-06-16 17:34:53.474,252781,L_Hip,-0.9183,0.3101,0.3587,4.69,-6.2,-5.54,0.0,0.0,0.0,0.826106,0.146062,0.537309,0.086276,0.0,0.0,0.0,0,0
2026-06-16 17:34:53.476,252801,L_Hip,-0.9178,0.3214,0.3393,4.76,-6.26,-5.51,36.79,9.21,16.52,0.826258,0.145878,0.537156,0.086123,0.0,0.0,0.0,0,0
2026-06-16 17:34:53.495,252766,L_Hip,-0.8991,0.3385,0.3282,4.96,-6.33,-5.44,36.93,9.68,18.99,0.82638,0.145878,0.537004,0.08591,0.0,0.0,0.0,0,0
2026-06-16 17:34:53.497,252786,L_Hip,-0.9026,0.3439,0.3296,5.01,-6.32,-5.41,35.72,8.85,19.45,0.826472,0.146031,0.536851,0.085726,0.0,0.0,0.0,0,0
2026-06-16 17:34:53.499,252806,L_Hip,-0.8869,0.3503,0.317,5.08,-6.28,-5.38,36.27,10.0,18.13,0.826563,0.146336,0.536699,0.085543,0.0,0.0,0.0,0,0
2026-06-16 17:34:53.501,252826,L_Hip,-0.8893,0.3513,0.3078,5.12,-6.29,-5.38,0.0,0.0,0.0,0.826624,0.146702,0.536515,0.08536,0.0,0.0,0.0,0,0
2026-06-16 17:34:53.545,252816,L_Hip,-0.8761,0.3823,0.3093,5.12,-6.24,-5.32,37.44,9.86,18.55,0.826655,0.147191,0.536363,0.085208,0.0,0.0,0.0,0,0
2026-06-16 17:34:53.547,252836,L_Hip,-0.8795,0.3823,0.2952,5.08,-6.24,-5.33,34.03,8.82,19.47,0.826655,0.14774,0.536241,0.085055,0.0,0.0,0.0,0,0
2026-06-16 17:34:53.549,252856,L_Hip,-0.8795,0.3734,0.2986,5.0,-6.32,-5.36,0.0,0.0,0.0,0.826624,0.148381,0.536119,0.084964,0.0,0.0,0.0,0,0
2026-06-16 17:34:53.551,252876,L_Hip,-0.8751,0.3945,0.2841,4.92,-6.35,-5.38,36.07,9.19,18.86,0.826594,0.149022,0.535997,0.084902,0.0,0.0,0.0,0,0
2026-06-16 17:34:53.569,252841,L_Hip,-0.8722,0.3896,0.2638,4.64,-6.35,-5.53,36.25,9.35,18.42,0.826563,0.149602,0.535875,0.084811,0.0,0.0,0.0,0,0
2026-06-16 17:34:53.572,252861,L_Hip,-0.8687,0.3945,0.2662,4.55,-6.32,-5.55,36.6,9.04,17.55,0.826533,0.150151,0.535752,0.084811,0.0,0.0,0.0,0,0
2026-06-16 17:34:53.574,252881,L_Hip,-0.8756,0.3906,0.2643,4.41,-6.29,-5.61,35.89,8.7,19.01,0.826502,0.150609,0.535661,0.084811,0.0,0.0,0.0,0,0
2026-06-16 17:34:53.576,252901,L_Hip,-0.8682,0.3891,0.2667,4.35,-6.28,-5.63,0.0,0.0,0.0,0.826502,0.150914,0.5356,0.084811,0.0,0.0,0.0,0,0
2026-06-16 17:34:53.594,252866,L_Hip,-0.8864,0.3818,0.2793,4.09,-6.16,-5.71,36.07,8.86,18.57,0.826502,0.151158,0.535539,0.084872,0.0,0.0,0.0,0,0
2026-06-16 17:34:53.597,252886,L_Hip,-0.8795,0.3886,0.2701,4.03,-6.11,-5.75,35.23,9.33,19.02,0.826502,0.15128,0.535478,0.084933,0.0,0.0,0.0,0,0
2026-06-16 17:34:53.599,252906,L_Hip,-0.8923,0.3911,0.2759,3.85,-6.11,-5.85,35.9,8.38,18.43,0.826502,0.151311,0.535447,0.084994,0.0,0.0,0.0,0,0
2026-06-16 17:34:53.601,252926,L_Hip,-0.9055,0.3621,0.3069,3.77,-6.09,-5.85,36.44,9.52,17.4,0.826502,0.151219,0.535478,0.085116,0.0,0.0,0.0,0,0
2026-06-16 17:34:53.644,252916,L_Hip,-0.9104,0.3616,0.2943,3.9,-6.0,-5.66,36.61,10.33,18.41,0.826502,0.151006,0.535539,0.085208,0.0,0.0,0.0,0,0
2026-06-16 17:34:53.647,252936,L_Hip,-0.9001,0.3562,0.3011,3.86,-6.03,-5.67,0.0,0.0,0.0,0.826533,0.150609,0.535539,0.08533,0.0,0.0,0.0,0,0
2026-06-16 17:34:53.649,252956,L_Hip,-0.9031,0.3494,0.3054,3.82,-5.98,-5.68,36.71,8.22,20.31,0.826533,0.150334,0.53563,0.085482,0.0,0.0,0.0,0,0
2026-06-16 17:34:53.651,252976,L_Hip,-0.9232,0.3376,0.2962,3.86,-6.03,-5.68,35.41,9.17,18.29,0.826502,0.15006,0.535722,0.085604,0.0,0.0,0.0,0,0
2026-06-16 17:34:53.669,252941,L_Hip,-0.9129,0.3214,0.318,3.93,-6.11,-5.61,36.41,8.87,18.57,0.826533,0.149693,0.535783,0.085757,0.0,0.0,0.0,0,0
2026-06-16 17:34:53.672,252961,L_Hip,-0.9104,0.3238,0.2991,3.98,-6.08,-5.59,0.0,0.0,0.0,0.826563,0.149297,0.535813,0.085879,0.0,0.0,0.0,0,0
2026-06-16 17:34:53.674,252981,L_Hip,-0.9065,0.311,0.3112,4.06,-6.14,-5.54,36.07,8.86,18.57,0.826624,0.148961,0.535783,0.085971,0.0,0.0,0.0,0,0
2026-06-16 17:34:53.676,253001,L_Hip,-0.9094,0.3179,0.319,4.12,-6.12,-5.55,36.25,9.67,19.29,0.826685,0.148625,0.535752,0.086062,0.0,0.0,0.0,0,0
2026-06-16 17:34:53.745,253016,L_Hip,-0.8996,0.3263,0.3156,4.25,-6.24,-5.59,35.72,8.21,18.87,0.826746,0.14835,0.535752,0.086123,0.0,0.0,0.0,0,0
2026-06-16 17:34:53.747,253036,L_Hip,-0.8957,0.3223,0.3127,4.26,-6.22,-5.6,0.0,0.0,0.0,0.826807,0.148106,0.535691,0.086154,0.0,0.0,0.0,0,0
2026-06-16 17:34:53.749,253056,L_Hip,-0.8986,0.3174,0.3262,4.29,-6.22,-5.57,35.55,8.37,19.02,0.826899,0.147954,0.53563,0.086154,0.0,0.0,0.0,0,0
2026-06-16 17:34:53.751,253076,L_Hip,-0.8903,0.3263,0.3069,4.31,-6.22,-5.56,36.74,8.87,19.14,0.82696,0.147832,0.535539,0.086123,0.0,0.0,0.0,0,0
2026-06-16 17:34:53.770,253041,L_Hip,-0.8981,0.3302,0.3243,4.45,-6.18,-5.48,36.09,9.51,18.57,0.827052,0.14771,0.535447,0.086093,0.0,0.0,0.0,0,1
2026-06-16 17:34:53.772,253061,L_Hip,-0.8957,0.3307,0.3098,4.48,-6.14,-5.51,36.06,8.22,18.57,0.827113,0.147618,0.535386,0.086062,0.0,0.0,0.0,0,1
2026-06-16 17:34:53.774,253081,L_Hip,-0.8859,0.3346,0.3025,4.49,-6.15,-5.52,0.0,0.0,0.0,0.827204,0.147618,0.535264,0.086062,0.0,0.0,0.0,0,1
2026-06-16 17:34:53.776,253101,L_Hip,-0.88,0.3272,0.303,4.51,-6.16,-5.53,35.95,10.32,17.55,0.827235,0.147649,0.535173,0.086032,0.0,0.0,0.0,0,1
2026-06-16 17:34:53.845,253116,L_Hip,-0.8883,0.3439,0.2962,4.51,-6.16,-5.58,36.44,10.48,18.85,0.827265,0.14771,0.535142,0.086001,0.0,0.0,0.0,0,1
2026-06-16 17:34:53.847,253136,L_Hip,-0.8839,0.3444,0.2904,4.46,-6.14,-5.62,35.42,8.86,17.13,0.827296,0.147771,0.535112,0.085971,0.0,0.0,0.0,0,1
2026-06-16 17:34:53.849,253156,L_Hip,-0.8898,0.3523,0.3112,4.47,-6.16,-5.61,0.0,0.0,0.0,0.827326,0.147832,0.535051,0.08591,0.0,0.0,0.0,0,1
2026-06-16 17:34:53.851,253176,L_Hip,-0.8834,0.3494,0.3161,4.46,-6.14,-5.63,35.54,8.37,19.6,0.827326,0.147893,0.53502,0.085849,0.0,0.0,0.0,0,1
2026-06-16 17:34:53.869,253141,L_Hip,-0.8898,0.3611,0.3001,4.39,-6.0,-5.64,35.55,9.01,19.6,0.827326,0.147954,0.534989,0.085788,0.0,0.0,0.0,0,1
2026-06-16 17:34:53.872,253161,L_Hip,-0.8908,0.3513,0.3069,4.35,-6.0,-5.65,35.24,9.33,18.44,0.827357,0.148015,0.534959,0.085726,0.0,0.0,0.0,0,1
2026-06-16 17:34:53.874,253181,L_Hip,-0.8839,0.3543,0.2981,4.35,-6.03,-5.64,0.0,0.0,0.0,0.827296,0.148045,0.53502,0.085696,1.07,0.13,1.33,0,1
2026-06-16 17:34:53.876,253201,L_Hip,-0.8908,0.3459,0.3064,4.32,-6.02,-5.64,34.9,9.0,18.15,0.827235,0.148045,0.535112,0.085696,1.09,0.14,1.35,0,1
2026-06-16 17:34:53.919,253191,L_Hip,-0.8928,0.3572,0.3001,4.33,-6.04,-5.64,36.77,8.88,17.4,0.827235,0.148045,0.535142,0.085696,1.09,0.15,1.35,0,1
2026-06-16 17:34:53.922,253211,L_Hip,-0.8972,0.3508,0.3098,4.32,-6.04,-5.64,36.08,8.87,17.99,0.827204,0.148015,0.535203,0.085696,1.1,0.16,1.36,0,1
2026-06-16 17:34:53.924,253231,L_Hip,-0.8962,0.3449,0.3059,4.32,-6.05,-5.67,0.0,0.0,0.0,0.827174,0.147954,0.535264,0.085696,1.1,0.16,1.36,0,1
2026-06-16 17:34:53.926,253251,L_Hip,-0.9055,0.3484,0.3088,4.32,-6.05,-5.67,35.71,8.21,19.45,0.827143,0.147923,0.535295,0.085665,1.09,0.17,1.36,0,1
2026-06-16 17:34:53.944,253216,L_Hip,-0.9045,0.3567,0.3069,4.32,-6.09,-5.67,34.76,9.17,16.85,0.827143,0.147893,0.535325,0.085665,1.09,0.17,1.36,0,1
2026-06-16 17:34:53.947,253236,L_Hip,-0.9045,0.3538,0.3185,4.3,-6.09,-5.66,35.74,9.82,19.15,0.827143,0.147801,0.535356,0.085635,1.08,0.18,1.35,0,1
2026-06-16 17:34:53.949,253256,L_Hip,-0.8981,0.3494,0.317,4.32,-6.09,-5.64,0.0,0.0,0.0,0.827143,0.14774,0.535386,0.085574,1.07,0.19,1.34,0,1
2026-06-16 17:34:53.951,253276,L_Hip,-0.8932,0.3435,0.3088,4.32,-6.09,-5.63,35.74,9.82,19.15,0.827143,0.147679,0.535386,0.085543,1.05,0.19,1.33,0,1
2026-06-16 17:34:53.970,253241,L_Hip,-0.9045,0.3523,0.3098,4.34,-6.07,-5.56,37.24,8.4,18.7,0.827174,0.147618,0.535386,0.085543,1.04,0.2,1.33,0,1
2026-06-16 17:34:53.972,253261,L_Hip,-0.9026,0.3513,0.3083,4.32,-6.11,-5.57,35.26,9.98,17.85,0.827174,0.147588,0.535386,0.085543,1.04,0.2,1.32,0,1
2026-06-16 17:34:53.974,253281,L_Hip,-0.8942,0.3518,0.3093,4.3,-6.14,-5.55,36.07,8.54,18.57,0.827113,0.147588,0.535447,0.085543,1.05,0.2,1.33,0,1
2026-06-16 17:34:53.976,253301,L_Hip,-0.8981,0.3385,0.3146,4.3,-6.16,-5.56,0.0,0.0,0.0,0.827113,0.147588,0.535447,0.085604,1.05,0.2,1.34,0,1
2026-06-16 17:34:54.019,253290,L_Hip,-0.9035,0.3454,0.3243,4.34,-6.14,-5.55,37.79,9.86,18.25,0.827143,0.147557,0.535417,0.085635,1.04,0.2,1.34,0,1
2026-06-16 17:34:54.021,253310,L_Hip,-0.906,0.3435,0.3146,4.35,-6.16,-5.56,35.71,7.89,18.87,0.827174,0.147526,0.535356,0.085665,1.03,0.19,1.33,0,1
2026-06-16 17:34:54.023,253330,L_Hip,-0.907,0.34,0.3301,4.39,-6.16,-5.58,0.0,0.0,0.0,0.827204,0.147496,0.535325,0.085696,1.02,0.19,1.33,0,1
2026-06-16 17:34:54.025,253350,L_Hip,-0.8977,0.3484,0.3117,4.4,-6.13,-5.55,35.57,9.34,18.72,0.827265,0.147496,0.535264,0.085696,1.01,0.18,1.32,0,1
2026-06-16 17:34:54.044,253316,L_Hip,-0.9065,0.3616,0.3175,4.43,-6.11,-5.51,34.56,9.32,19.03,0.827296,0.147465,0.535203,0.085696,1.0,0.18,1.31,0,1
2026-06-16 17:34:54.047,253336,L_Hip,-0.9094,0.3538,0.3098,4.42,-6.19,-5.48,36.77,9.85,18.27,0.827326,0.147496,0.535142,0.085696,0.99,0.17,1.3,0,1
2026-06-16 17:34:54.049,253356,L_Hip,-0.9006,0.3528,0.3098,4.42,-6.22,-5.48,36.07,8.86,18.57,0.827357,0.147557,0.535112,0.085696,1.0,0.17,1.3,0,1
2026-06-16 17:34:54.051,253376,L_Hip,-0.8996,0.3592,0.2981,4.42,-6.22,-5.49,0.0,0.0,0.0,0.827357,0.147649,0.535081,0.085726,1.02,0.16,1.31,0,1
2026-06-16 17:34:54.070,253341,L_Hip,-0.8967,0.3538,0.2914,4.39,-6.24,-5.5,34.02,7.53,18.61,0.827357,0.14771,0.53502,0.085757,1.02,0.14,1.31,0,1
2026-06-16 17:34:54.072,253361,L_Hip,-0.8883,0.3498,0.3025,4.37,-6.25,-5.48,35.56,9.33,19.59,0.827387,0.147832,0.534928,0.085788,1.03,0.13,1.32,0,1
2026-06-16 17:34:54.075,253381,L_Hip,-0.8977,0.3513,0.3011,4.35,-6.21,-5.49,34.91,9.65,18.44,0.827448,0.147893,0.534837,0.085849,1.03,0.11,1.32,0,1
2026-06-16 17:34:54.077,253401,L_Hip,-0.8795,0.3557,0.3006,4.35,-6.22,-5.48,35.73,7.89,17.71,0.827448,0.147954,0.534776,0.085879,1.04,0.1,1.32,0,1
2026-06-16 17:34:54.120,253391,L_Hip,-0.8849,0.3459,0.2977,4.34,-6.12,-5.47,37.1,10.17,19.13,0.827479,0.147984,0.534715,0.08594,1.04,0.09,1.32,0,1
2026-06-16 17:34:54.122,253411,L_Hip,-0.878,0.3454,0.2991,4.3,-6.16,-5.47,0.0,0.0,0.0,0.827509,0.148076,0.534654,0.086001,1.05,0.08,1.33,0,1
2026-06-16 17:34:54.124,253431,L_Hip,-0.8864,0.3444,0.2962,4.29,-6.15,-5.5,36.96,10.01,17.54,0.82754,0.148137,0.534562,0.086123,1.06,0.06,1.34,0,1
2026-06-16 17:34:54.126,253451,L_Hip,-0.8928,0.3464,0.2894,4.31,-6.13,-5.51,35.75,9.18,18.28,0.82754,0.148198,0.534532,0.086215,1.07,0.05,1.36,0,1
2026-06-16 17:34:54.170,253441,L_Hip,-0.8874,0.3494,0.2928,4.29,-6.09,-5.52,33.21,9.29,19.05,0.82757,0.148198,0.534471,0.086276,1.07,0.04,1.36,0,1
2026-06-16 17:34:54.172,253461,L_Hip,-0.8937,0.3444,0.2967,4.23,-6.12,-5.57,0.0,0.0,0.0,0.82757,0.148198,0.534471,0.086337,1.07,0.04,1.37,0,1
2026-06-16 17:34:54.174,253481,L_Hip,-0.8928,0.3405,0.3025,4.22,-6.16,-5.57,35.07,9.49,18.58,0.82757,0.148198,0.534471,0.086398,1.08,0.04,1.38,0,1
2026-06-16 17:34:54.176,253501,L_Hip,-0.9045,0.3469,0.3073,4.18,-6.18,-5.61,36.44,9.84,17.98,0.82754,0.148167,0.534471,0.086489,1.08,0.03,1.39,0,1
2026-06-16 17:34:54.195,253466,L_Hip,-0.9119,0.341,0.3069,4.16,-6.21,-5.62,36.58,9.68,19.58,0.82757,0.148106,0.534471,0.08652,1.07,0.03,1.39,0,1
2026-06-16 17:34:54.197,253486,L_Hip,-0.9006,0.3385,0.3141,4.19,-6.26,-5.62,0.0,0.0,0.0,0.827601,0.147984,0.53444,0.086581,1.05,0.03,1.39,0,1
2026-06-16 17:34:54.200,253506,L_Hip,-0.907,0.3385,0.2977,4.17,-6.25,-5.61,36.25,8.71,17.84,0.827662,0.147832,0.53441,0.086581,1.02,0.04,1.37,0,1
2026-06-16 17:34:54.202,253526,L_Hip,-0.8996,0.3376,0.3035,4.17,-6.16,-5.61,37.09,9.53,18.84,0.827723,0.147679,0.534349,0.086612,0.98,0.03,1.35,0,1
2026-06-16 17:34:54.244,253516,L_Hip,-0.8947,0.3317,0.3199,4.24,-6.19,-5.63,36.56,7.74,18.42,0.827815,0.147557,0.534227,0.086612,0.94,0.03,1.32,0,1
2026-06-16 17:34:54.246,253536,L_Hip,-0.882,0.3307,0.2928,4.27,-6.18,-5.64,0.0,0.0,0.0,0.827845,0.147404,0.534196,0.086642,0.91,0.03,1.31,0,1
2026-06-16 17:34:54.249,253556,L_Hip,-0.8883,0.3277,0.3059,4.28,-6.17,-5.65,35.72,9.5,20.03,0.827876,0.147252,0.534196,0.086673,0.89,0.03,1.3,0,1
2026-06-16 17:34:54.251,253576,L_Hip,-0.8981,0.3346,0.302,4.28,-6.15,-5.66,36.54,7.42,19.0,0.827937,0.14713,0.534135,0.086642,0.85,0.03,1.27,0,1
2026-06-16 17:34:54.269,253541,L_Hip,-0.8903,0.3489,0.3069,4.31,-6.14,-5.67,36.22,9.34,20.17,0.827967,0.147038,0.534104,0.086612,0.83,0.03,1.25,0,1
2026-06-16 17:34:54.271,253561,L_Hip,-0.8947,0.3405,0.2967,4.29,-6.17,-5.7,0.0,0.0,0.0,0.828028,0.146916,0.534104,0.08655,0.8,0.04,1.23,0,1
2026-06-16 17:34:54.274,253581,L_Hip,-0.8981,0.343,0.3093,4.27,-6.17,-5.71,36.1,9.51,17.99,0.828059,0.146825,0.534074,0.08652,0.78,0.04,1.21,0,1
2026-06-16 17:34:54.276,253601,L_Hip,-0.9011,0.3494,0.3136,4.29,-6.15,-5.69,34.38,8.19,18.02,0.828089,0.146764,0.534043,0.086489,0.76,0.04,1.2,0,1
2026-06-16 17:34:54.319,253591,L_Hip,-0.9138,0.3518,0.3107,4.29,-6.1,-5.62,36.71,7.26,19.15,0.82812,0.146672,0.534013,0.086428,0.74,0.05,1.17,0,1
2026-06-16 17:34:54.322,253611,L_Hip,-0.908,0.3484,0.3059,4.32,-6.09,-5.58,36.25,9.03,18.42,0.82815,0.14658,0.534013,0.086398,0.72,0.05,1.16,0,1
2026-06-16 17:34:54.324,253631,L_Hip,-0.8991,0.3459,0.3044,4.31,-6.12,-5.58,0.0,0.0,0.0,0.828181,0.146519,0.533982,0.086367,0.7,0.05,1.14,0,1
2026-06-16 17:34:54.326,253651,L_Hip,-0.9035,0.3489,0.3127,4.3,-6.19,-5.59,36.76,9.52,18.85,0.82815,0.146489,0.534013,0.086367,0.7,0.05,1.14,0,1
2026-06-16 17:34:54.370,253641,L_Hip,-0.9045,0.3494,0.3069,4.22,-6.25,-5.63,36.1,9.83,18.28,0.82815,0.146458,0.534013,0.086367,0.69,0.06,1.14,0,1
2026-06-16 17:34:54.372,253661,L_Hip,-0.8952,0.3523,0.3044,4.21,-6.25,-5.61,35.75,9.18,18.28,0.828181,0.146428,0.534013,0.086398,0.69,0.06,1.14,0,1
2026-06-16 17:34:54.374,253681,L_Hip,-0.8962,0.3479,0.3054,4.2,-6.22,-5.61,0.0,0.0,0.0,0.828211,0.146367,0.533952,0.086398,0.67,0.05,1.13,0,1
2026-06-16 17:34:54.376,253701,L_Hip,-0.9035,0.3528,0.3054,4.23,-6.27,-5.62,35.78,10.47,17.7,0.828272,0.146306,0.533891,0.086428,0.65,0.05,1.12,0,1
2026-06-16 17:34:54.395,253666,L_Hip,-0.8888,0.3439,0.3175,4.26,-6.23,-5.64,35.4,9.49,19.16,0.828333,0.146214,0.533799,0.086459,0.62,0.04,1.1,0,1
2026-06-16 17:34:54.397,253686,L_Hip,-0.8932,0.339,0.3248,4.29,-6.25,-5.62,36.93,9.68,18.99,0.828394,0.146153,0.533708,0.086459,0.6,0.03,1.08,0,1
2026-06-16 17:34:54.399,253706,L_Hip,-0.8864,0.3415,0.3132,4.29,-6.26,-5.64,0.0,0.0,0.0,0.828486,0.146062,0.533616,0.086459,0.57,0.03,1.06,0,1
2026-06-16 17:34:54.401,253726,L_Hip,-0.8795,0.3395,0.3141,4.29,-6.26,-5.64,36.92,9.04,18.7,0.828547,0.146001,0.533525,0.086459,0.54,0.02,1.04,0,1
2026-06-16 17:34:54.470,253741,L_Hip,-0.8937,0.3444,0.3136,4.31,-6.16,-5.64,36.24,9.03,18.71,0.828639,0.145909,0.533433,0.086428,0.51,0.01,1.01,0,1
2026-06-16 17:34:54.472,253761,L_Hip,-0.8962,0.3459,0.3224,4.33,-6.19,-5.67,35.43,9.5,17.71,0.82873,0.145848,0.533311,0.086428,0.48,0.0,0.99,0,1
2026-06-16 17:34:54.474,253781,L_Hip,-0.8981,0.3449,0.3175,4.32,-6.2,-5.69,35.24,9.98,19.02,0.828791,0.145756,0.53325,0.086367,0.45,0.0,0.96,0,1
2026-06-16 17:34:54.476,253801,L_Hip,-0.8903,0.3459,0.3228,4.32,-6.24,-5.73,0.0,0.0,0.0,0.828852,0.145695,0.533189,0.086337,0.43,0.0,0.94,0,1
2026-06-16 17:34:54.494,253766,L_Hip,-0.8947,0.3405,0.3262,4.36,-6.28,-5.72,36.22,8.06,19.01,0.828883,0.145634,0.533128,0.086306,0.4,-0.0,0.92,0,1
2026-06-16 17:34:54.497,253786,L_Hip,-0.8903,0.3395,0.3209,4.38,-6.25,-5.71,35.6,9.99,17.85,0.828974,0.145573,0.533036,0.086245,0.37,-0.01,0.89,0,1
2026-06-16 17:34:54.499,253806,L_Hip,-0.8991,0.3405,0.3354,4.4,-6.25,-5.71,0.0,0.0,0.0,0.829066,0.145482,0.532914,0.086123,0.33,-0.01,0.84,0,1
2026-06-16 17:34:54.501,253826,L_Hip,-0.9138,0.3513,0.3156,4.45,-6.52,-5.82,35.24,9.65,19.02,0.829157,0.145421,0.532792,0.086032,0.29,-0.02,0.8,0,1
2026-06-16 17:34:54.520,253791,L_Hip,-0.9129,0.3356,0.3461,4.35,-6.21,-5.8,36.59,9.68,18.71,0.829249,0.14539,0.532731,0.08591,0.26,-0.02,0.76,0,1
2026-06-16 17:34:54.522,253811,L_Hip,-0.8834,0.3361,0.3364,4.41,-6.38,-5.64,37.94,9.06,18.4,0.829371,0.14536,0.532548,0.085726,0.21,-0.03,0.7,0,1
2026-06-16 17:34:54.524,253831,L_Hip,-0.8923,0.3351,0.3185,4.44,-6.31,-5.66,35.59,8.7,17.27,0.829524,0.145299,0.532365,0.085635,0.17,-0.04,0.65,0,1
2026-06-16 17:34:54.526,253851,L_Hip,-0.8859,0.3435,0.319,4.42,-6.19,-5.6,0.0,0.0,0.0,0.829646,0.145207,0.532243,0.085513,0.12,-0.04,0.6,0,1
2026-06-16 17:34:54.570,253841,L_Hip,-0.8844,0.342,0.3262,4.41,-6.11,-5.59,35.77,10.15,18.28,0.829768,0.145207,0.532029,0.085421,0.08,-0.06,0.55,0,1
2026-06-16 17:34:54.572,253861,L_Hip,-0.8977,0.341,0.3083,4.41,-6.07,-5.58,36.24,9.03,18.71,0.829829,0.145238,0.531968,0.08536,0.07,-0.07,0.54,0,1
2026-06-16 17:34:54.574,253881,L_Hip,-0.8937,0.3351,0.3228,4.43,-5.99,-5.57,36.25,9.03,18.13,0.829829,0.145238,0.531938,0.085299,0.06,-0.07,0.52,0,1
2026-06-16 17:34:54.576,253901,L_Hip,-0.8962,0.34,0.3103,4.45,-6.02,-5.53,36.95,10.01,17.83,0.829829,0.145238,0.531938,0.085299,0.06,-0.07,0.52,0,1
2026-06-16 17:34:54.620,253891,L_Hip,-0.8937,0.3425,0.3141,4.43,-6.01,-5.57,36.62,10.65,18.12,0.829798,0.145268,0.531999,0.085269,0.07,-0.06,0.53,0,1
2026-06-16 17:34:54.622,253911,L_Hip,-0.8874,0.3341,0.3248,4.45,-6.13,-5.63,0.0,0.0,0.0,0.829768,0.145299,0.532029,0.085299,0.09,-0.06,0.54,0,1
2026-06-16 17:34:54.624,253931,L_Hip,-0.8859,0.343,0.3136,4.45,-6.16,-5.66,34.72,8.19,18.3,0.829707,0.14536,0.53209,0.085299,0.11,-0.06,0.56,0,1
2026-06-16 17:34:54.626,253951,L_Hip,-0.8825,0.343,0.3122,4.42,-6.16,-5.66,35.93,9.67,17.84,0.829676,0.14539,0.532121,0.085299,0.12,-0.06,0.56,0,1
2026-06-16 17:34:54.695,253966,L_Hip,-0.8986,0.3489,0.3175,4.4,-6.12,-5.68,35.89,8.38,18.72,0.829737,0.14539,0.53206,0.085208,0.1,-0.06,0.54,0,1
2026-06-16 17:34:54.697,253986,L_Hip,-0.8844,0.3469,0.3069,4.41,-6.12,-5.66,0.0,0.0,0.0,0.829768,0.145421,0.532029,0.085147,0.09,-0.06,0.53,0,1
2026-06-16 17:34:54.699,254006,L_Hip,-0.8893,0.3439,0.3025,4.42,-6.06,-5.67,34.05,8.5,18.31,0.829737,0.145451,0.53206,0.085086,0.1,-0.06,0.52,0,1
2026-06-16 17:34:54.702,254026,L_Hip,-0.8883,0.3479,0.3064,4.41,-5.98,-5.68,36.09,10.15,19.15,0.829768,0.145451,0.532029,0.085025,0.09,-0.06,0.51,0,1
2026-06-16 17:34:54.719,253991,L_Hip,-0.9026,0.3538,0.3112,4.41,-6.04,-5.69,36.75,8.23,17.69,0.829737,0.145451,0.53206,0.084994,0.09,-0.05,0.51,0,1
2026-06-16 17:34:54.722,254011,L_Hip,-0.9045,0.3523,0.3001,4.38,-6.06,-5.65,0.0,0.0,0.0,0.829676,0.145482,0.532182,0.084933,0.11,-0.04,0.52,0,1
2026-06-16 17:34:54.724,254031,L_Hip,-0.8986,0.3508,0.2986,4.38,-6.06,-5.64,35.87,7.09,18.73,0.829646,0.145482,0.532243,0.084872,0.11,-0.03,0.52,0,1
2026-06-16 17:34:54.726,254051,L_Hip,-0.8991,0.3449,0.304,4.33,-6.02,-5.61,35.24,9.01,18.15,0.829615,0.145482,0.532304,0.084811,0.12,-0.02,0.52,0,1
2026-06-16 17:34:54.744,254016,L_Hip,-0.8986,0.3302,0.3175,4.35,-6.0,-5.64,35.26,9.34,17.56,0.829554,0.145512,0.532395,0.08478,0.13,-0.01,0.53,0,1
2026-06-16 17:34:54.747,254036,L_Hip,-0.8928,0.3464,0.3044,4.37,-6.06,-5.74,0.0,0.0,0.0,0.829493,0.145482,0.532456,0.08478,0.14,-0.0,0.54,0,1
2026-06-16 17:34:54.749,254056,L_Hip,-0.8967,0.3513,0.2802,4.35,-6.09,-5.8,37.43,8.89,17.97,0.829463,0.145451,0.532548,0.08478,0.15,0.01,0.55,0,1
2026-06-16 17:34:54.751,254076,L_Hip,-0.9266,0.3719,0.2686,4.16,-6.41,-6.08,35.7,7.24,18.58,0.829432,0.14539,0.532609,0.084719,0.14,0.02,0.54,0,1
2026-06-16 17:34:54.770,254041,L_Hip,-0.9222,0.2948,0.3301,3.93,-6.45,-6.19,36.11,9.84,17.7,0.829432,0.145329,0.53264,0.084628,0.13,0.03,0.52,0,1
2026-06-16 17:34:54.773,254061,L_Hip,-0.8981,0.3469,0.3025,4.25,-6.54,-5.92,35.61,9.99,17.56,0.829463,0.145207,0.532701,0.084445,0.1,0.06,0.49,0,1
2026-06-16 17:34:54.775,254081,L_Hip,-0.9021,0.3351,0.3015,4.16,-6.61,-5.97,37.76,8.89,18.84,0.829737,0.144719,0.532426,0.084262,-0.05,0.05,0.37,0,1
2026-06-16 17:34:54.777,254101,L_Hip,-0.8947,0.3327,0.3219,4.09,-6.66,-5.96,0.0,0.0,0.0,0.829951,0.14423,0.532243,0.083987,-0.19,0.06,0.25,0,1
2026-06-16 17:34:54.795,254066,L_Hip,-0.905,0.3204,0.3238,4.0,-7.03,-6.15,35.44,10.79,18.28,0.830134,0.144047,0.532029,0.083773,-0.27,0.05,0.16,0,1
2026-06-16 17:34:54.797,254086,L_Hip,-0.882,0.3164,0.3243,4.06,-7.07,-6.07,36.76,8.56,17.69,0.830348,0.143803,0.531785,0.08359,-0.37,0.04,0.07,0,1
2026-06-16 17:34:54.799,254106,L_Hip,-0.8722,0.3189,0.3248,4.13,-6.92,-5.93,0.0,0.0,0.0,0.830653,0.143468,0.531449,0.083377,-0.5,0.03,-0.05,0,1
2026-06-16 17:34:54.801,254126,L_Hip,-0.9261,0.3331,0.3146,4.25,-6.45,-5.96,35.23,8.37,17.86,0.83105,0.14301,0.531022,0.083041,-0.68,0.02,-0.22,0,1
2026-06-16 17:34:54.870,254141,L_Hip,-0.8668,0.3214,0.3272,4.3,-6.62,-5.72,35.25,9.66,18.44,0.831446,0.142705,0.530503,0.082797,-0.83,-0.02,-0.37,0,1
2026-06-16 17:34:54.872,254161,L_Hip,-0.88,0.3189,0.3262,4.34,-6.36,-5.76,36.97,10.02,16.96,0.83166,0.142491,0.530229,0.082583,-0.93,-0.03,-0.47,0,1
2026-06-16 17:34:54.874,254181,L_Hip,-0.8672,0.3243,0.3253,4.38,-6.31,-5.71,0.0,0.0,0.0,0.831843,0.142338,0.530045,0.082369,-1.0,-0.03,-0.54,0,1
2026-06-16 17:34:54.876,254201,L_Hip,-0.8702,0.3214,0.2986,4.41,-6.16,-5.67,34.74,9.48,18.3,0.832057,0.142247,0.52974,0.082278,-1.07,-0.06,-0.61,0,1
2026-06-16 17:34:54.920,254191,L_Hip,-0.878,0.3228,0.3374,4.42,-5.88,-5.61,36.61,9.04,17.25,0.832179,0.142155,0.529588,0.082125,-1.13,-0.07,-0.67,0,1
2026-06-16 17:34:54.922,254211,L_Hip,-0.8898,0.3263,0.3335,4.5,-5.76,-5.61,36.76,9.2,18.27,0.83224,0.142125,0.529527,0.082064,-1.15,-0.07,-0.7,0,1
2026-06-16 17:34:54.924,254231,L_Hip,-0.8898,0.3346,0.3233,4.52,-5.76,-5.56,0.0,0.0,0.0,0.832209,0.142125,0.529588,0.082003,-1.14,-0.06,-0.7,0,1
2026-06-16 17:34:54.927,254251,L_Hip,-0.8918,0.3371,0.3243,4.59,-5.83,-5.52,37.6,9.38,18.69,0.832118,0.142125,0.52971,0.082003,-1.12,-0.05,-0.68,0,1
2026-06-16 17:34:54.945,254216,L_Hip,-0.904,0.3489,0.3282,4.48,-5.87,-5.6,34.74,9.48,18.3,0.832026,0.142186,0.529893,0.081973,-1.09,-0.03,-0.65,0,1
2026-06-16 17:34:54.947,254236,L_Hip,-0.9026,0.3425,0.3306,4.51,-5.84,-5.53,35.25,9.01,17.57,0.831874,0.142308,0.530045,0.081942,-1.05,-0.02,-0.62,0,1
2026-06-16 17:34:54.950,254256,L_Hip,-0.9094,0.3405,0.3306,4.53,-5.87,-5.48,35.46,10.15,16.54,0.831782,0.14243,0.530198,0.081942,-1.0,-0.0,-0.59,0,1
2026-06-16 17:34:54.951,254276,L_Hip,-0.8923,0.339,0.319,4.52,-5.83,-5.45,0.0,0.0,0.0,0.83166,0.142491,0.53032,0.081942,-0.97,0.01,-0.56,0,1
2026-06-16 17:34:54.970,254241,L_Hip,-0.905,0.3331,0.3398,4.45,-5.83,-5.59,37.07,8.56,18.85,0.831568,0.142613,0.530473,0.081942,-0.93,0.02,-0.53,0,1
2026-06-16 17:34:54.972,254261,L_Hip,-0.8908,0.3277,0.3441,4.57,-5.88,-5.68,36.58,9.03,19.0,0.831446,0.142735,0.530595,0.082003,-0.88,0.02,-0.49,0,1
2026-06-16 17:34:54.974,254281,L_Hip,-0.9148,0.3253,0.3316,4.63,-5.78,-5.75,0.0,0.0,0.0,0.831294,0.142827,0.530808,0.082003,-0.83,0.04,-0.45,0,1
2026-06-16 17:34:54.976,254301,L_Hip,-0.9011,0.3096,0.3412,4.65,-5.96,-5.99,36.11,9.84,17.4,0.831233,0.142857,0.530931,0.081973,-0.81,0.06,-0.43,0,1
2026-06-16 17:34:54.995,254266,L_Hip,-0.8702,0.3017,0.3301,5.03,-5.61,-6.15,36.59,9.36,18.42,0.831172,0.142888,0.531053,0.08182,-0.8,0.08,-0.44,0,1
2026-06-16 17:34:54.997,254286,L_Hip,-0.853,0.2757,0.3708,5.16,-5.57,-6.29,35.57,9.34,19.01,0.831111,0.142857,0.531175,0.081515,-0.82,0.11,-0.47,0,1
2026-06-16 17:34:54.999,254306,L_Hip,-0.8697,0.288,0.333,5.4,-5.42,-6.35,35.59,9.66,18.43,0.831111,0.142796,0.531266,0.081027,-0.86,0.14,-0.55,0,1
2026-06-16 17:34:55.001,254326,L_Hip,-0.9089,0.3533,0.2633,5.64,-5.25,-6.44,0.0,0.0,0.0,0.830958,0.142827,0.531602,0.080447,-0.86,0.2,-0.6,0,1
2026-06-16 17:34:55.045,254316,L_Hip,-0.9168,0.3508,0.2851,5.16,-6.0,-6.39,35.31,11.6,17.27,0.830805,0.142918,0.531938,0.079684,-0.86,0.27,-0.67,0,1
2026-06-16 17:34:55.047,254336,L_Hip,-0.9344,0.3489,0.2967,5.04,-5.81,-6.23,36.76,9.2,17.98,0.83047,0.143193,0.532517,0.078768,-0.8,0.36,-0.71,0,1
2026-06-16 17:34:55.049,254356,L_Hip,-0.9389,0.3528,0.3049,5.05,-5.88,-6.13,34.94,9.98,16.99,0.830226,0.143468,0.532945,0.077914,-0.77,0.44,-0.77,0,1
2026-06-16 17:34:55.051,254376,L_Hip,-0.9413,0.3744,0.2914,4.88,-6.55,-5.82,37.27,9.69,18.4,0.830073,0.143681,0.533219,0.077242,-0.75,0.49,-0.83,0,1
2026-06-16 17:34:55.094,254366,L_Hip,-1.0016,0.367,0.2676,4.51,-6.63,-5.64,34.91,9.33,18.15,0.82992,0.143834,0.533464,0.076662,-0.74,0.53,-0.88,0,1
2026-06-16 17:34:55.096,254386,L_Hip,-0.9511,0.3749,0.287,4.44,-7.05,-5.33,0.0,0.0,0.0,0.829798,0.144169,0.533647,0.076235,-0.69,0.56,-0.89,0,1
2026-06-16 17:34:55.099,254406,L_Hip,-0.8977,0.3911,0.2851,4.32,-7.3,-5.2,35.11,10.14,17.13,0.82989,0.144627,0.533403,0.076083,-0.65,0.52,-0.91,0,1
2026-06-16 17:34:55.101,254426,L_Hip,-0.8501,0.3194,0.2977,4.19,-6.28,-5.26,36.12,10.48,17.4,0.829981,0.144841,0.533219,0.076022,-0.65,0.5,-0.93,0,1
2026-06-16 17:34:55.120,254391,L_Hip,-0.9129,0.3494,0.302,4.48,-5.64,-5.22,36.95,9.69,17.83,0.830256,0.145146,0.532701,0.076144,-0.66,0.42,-0.95,0,1
2026-06-16 17:34:55.122,254411,L_Hip,-0.8923,0.3464,0.2841,4.3,-6.15,-5.38,0.0,0.0,0.0,0.830439,0.14536,0.532273,0.076449,-0.66,0.35,-0.94,0,1
2026-06-16 17:34:55.124,254431,L_Hip,-0.8972,0.3381,0.2991,4.2,-6.09,-5.53,35.57,9.02,18.43,0.830103,0.145451,0.532731,0.076754,-0.54,0.38,-0.81,0,1
2026-06-16 17:34:55.126,254451,L_Hip,-0.9119,0.34,0.2996,4.05,-6.26,-5.7,34.58,9.64,17.86,0.829981,0.145604,0.532914,0.076907,-0.47,0.4,-0.74,0,1
2026-06-16 17:34:55.170,254441,L_Hip,-0.8952,0.3233,0.3291,4.01,-6.38,-5.61,35.24,9.65,19.02,0.82992,0.145665,0.532914,0.077059,-0.45,0.38,-0.71,0,1
2026-06-16 17:34:55.172,254461,L_Hip,-0.8967,0.3174,0.3132,4.09,-6.21,-5.49,0.0,0.0,0.0,0.829951,0.145482,0.532914,0.07712,-0.48,0.39,-0.72,0,1
2026-06-16 17:34:55.174,254481,L_Hip,-0.8996,0.3243,0.317,4.15,-6.26,-5.48,35.75,9.5,18.28,0.830134,0.145268,0.532701,0.077181,-0.54,0.37,-0.76,0,1
2026-06-16 17:34:55.176,254501,L_Hip,-0.8908,0.3218,0.3044,4.14,-6.37,-5.54,35.91,9.99,19.3,0.830256,0.145054,0.532548,0.077273,-0.6,0.36,-0.79,0,1
2026-06-16 17:34:55.195,254466,L_Hip,-0.8996,0.3297,0.3103,4.15,-6.61,-5.67,36.45,10.16,17.98,0.830348,0.144902,0.532426,0.077364,-0.63,0.35,-0.81,0,1
2026-06-16 17:34:55.197,254486,L_Hip,-0.9055,0.3076,0.3383,4.17,-6.67,-5.7,0.0,0.0,0.0,0.83047,0.14478,0.532243,0.077456,-0.68,0.33,-0.83,0,1
2026-06-16 17:34:55.199,254506,L_Hip,-0.9035,0.3164,0.3286,4.2,-6.67,-5.68,35.75,9.5,18.28,0.830653,0.144627,0.53206,0.077425,-0.73,0.32,-0.88,0,1
2026-06-16 17:34:55.201,254526,L_Hip,-0.907,0.3209,0.3359,4.26,-6.71,-5.63,37.47,10.18,17.38,0.830866,0.144475,0.531724,0.077395,-0.81,0.28,-0.95,0,1
2026-06-16 17:34:55.245,254516,L_Hip,-0.9104,0.3174,0.3374,4.37,-6.48,-5.56,36.1,10.15,18.57,0.831141,0.144292,0.531358,0.077303,-0.91,0.25,-1.04,0,1
2026-06-16 17:34:55.247,254536,L_Hip,-0.9026,0.3228,0.3243,4.37,-6.43,-5.54,0.0,0.0,0.0,0.831416,0.144169,0.531022,0.077212,-0.99,0.23,-1.12,0,1
2026-06-16 17:34:55.249,254556,L_Hip,-0.9055,0.3214,0.3194,4.35,-6.4,-5.53,35.6,9.99,17.85,0.831629,0.144108,0.530686,0.077151,-1.06,0.2,-1.18,0,1
2026-06-16 17:34:55.251,254576,L_Hip,-0.906,0.3302,0.3277,4.4,-6.36,-5.5,34.75,10.13,18.59,0.831812,0.144108,0.530381,0.07709,-1.11,0.16,-1.24,0,1
2026-06-16 17:34:55.345,254616,L_Hip,-0.9011,0.3287,0.3194,4.39,-6.45,-5.48,35.62,10.31,16.97,0.831935,0.144108,0.530198,0.077059,-1.14,0.14,-1.27,0,1
2026-06-16 17:34:55.347,254636,L_Hip,-0.8991,0.3238,0.318,4.39,-6.53,-5.49,35.93,9.99,18.13,0.832026,0.144139,0.530045,0.077059,-1.15,0.13,-1.29,0,1
2026-06-16 17:34:55.350,254656,L_Hip,-0.8962,0.3238,0.3078,4.39,-6.6,-5.52,0.0,0.0,0.0,0.832118,0.144169,0.529893,0.077059,-1.17,0.11,-1.31,0,1
2026-06-16 17:34:55.352,254676,L_Hip,-0.8883,0.3277,0.3132,4.39,-6.65,-5.56,36.64,11.3,17.54,0.83224,0.14423,0.52971,0.07709,-1.18,0.09,-1.33,0,1
2026-06-16 17:34:55.370,254641,L_Hip,-0.905,0.3302,0.319,4.42,-6.62,-5.41,36.63,10.65,17.54,0.832392,0.144261,0.529435,0.077059,-1.22,0.05,-1.37,0,1
2026-06-16 17:34:55.372,254661,L_Hip,-0.8923,0.3597,0.3064,4.42,-6.61,-5.35,36.61,9.36,17.54,0.832575,0.144292,0.52916,0.076968,-1.26,0.03,-1.42,0,1
2026-06-16 17:34:55.374,254681,L_Hip,-0.9001,0.3533,0.3006,4.35,-6.64,-5.39,0.0,0.0,0.0,0.832759,0.144353,0.528855,0.076937,-1.3,-0.01,-1.47,0,1
2026-06-16 17:34:55.376,254701,L_Hip,-0.8923,0.3292,0.3374,4.17,-6.64,-5.51,36.47,10.49,17.11,0.832942,0.144444,0.52855,0.076937,-1.33,-0.05,-1.5,0,1
2026-06-16 17:34:55.395,254666,L_Hip,-0.8849,0.3243,0.333,4.35,-6.37,-5.45,36.62,10.33,17.83,0.833094,0.144597,0.528275,0.076998,-1.34,-0.08,-1.52,0,1
2026-06-16 17:34:55.397,254686,L_Hip,-0.8834,0.3351,0.3228,4.37,-6.38,-5.42,36.77,9.52,17.98,0.833277,0.144627,0.52794,0.07712,-1.37,-0.13,-1.55,0,1
2026-06-16 17:34:55.399,254706,L_Hip,-0.8761,0.3361,0.3151,4.38,-6.33,-5.42,0.0,0.0,0.0,0.83346,0.144597,0.527665,0.077181,-1.41,-0.16,-1.58,0,1
2026-06-16 17:34:55.402,254726,L_Hip,-0.8741,0.3356,0.3383,4.31,-6.29,-5.49,36.97,9.69,16.67,0.833583,0.144627,0.527482,0.077212,-1.43,-0.18,-1.6,0,1
2026-06-16 17:34:55.420,254691,L_Hip,-0.8923,0.3268,0.3374,4.33,-6.35,-5.57,37.45,9.86,18.26,0.833674,0.144688,0.527299,0.077273,-1.44,-0.21,-1.61,0,1
2026-06-16 17:34:55.422,254711,L_Hip,-0.8888,0.3317,0.3316,4.38,-6.34,-5.57,35.6,9.34,17.27,0.833735,0.144749,0.527146,0.077364,-1.44,-0.23,-1.61,0,1
2026-06-16 17:34:55.424,254731,L_Hip,-0.8928,0.3336,0.3316,4.41,-6.32,-5.54,36.79,10.49,17.68,0.833857,0.14478,0.526963,0.077395,-1.46,-0.25,-1.63,0,1
2026-06-16 17:34:55.426,254751,L_Hip,-0.8972,0.341,0.3132,4.48,-6.31,-5.49,0.0,0.0,0.0,0.833979,0.144749,0.52678,0.077395,-1.49,-0.27,-1.65,0,1
2026-06-16 17:34:55.470,254741,L_Hip,-0.8898,0.3385,0.3228,4.42,-6.33,-5.54,36.62,10.97,18.41,0.834071,0.14478,0.526627,0.077364,-1.51,-0.29,-1.68,0,1
2026-06-16 17:34:55.472,254761,L_Hip,-0.8928,0.3459,0.3238,4.4,-6.37,-5.58,35.94,9.99,17.84,0.834132,0.144871,0.526505,0.077364,-1.51,-0.31,-1.69,0,1
2026-06-16 17:34:55.474,254781,L_Hip,-0.8888,0.341,0.3224,4.4,-6.4,-5.57,0.0,0.0,0.0,0.834162,0.144993,0.526414,0.077364,-1.5,-0.32,-1.69,0,1
2026-06-16 17:34:55.476,254801,L_Hip,-0.8942,0.3336,0.3316,4.38,-6.42,-5.58,37.81,11.15,18.54,0.834254,0.145054,0.526261,0.077334,-1.51,-0.34,-1.71,0,1
2026-06-16 17:34:55.495,254766,L_Hip,-0.8883,0.3405,0.319,4.35,-6.22,-5.57,36.44,8.88,16.82,0.834346,0.145116,0.526078,0.077334,-1.53,-0.36,-1.73,0,1
2026-06-16 17:34:55.497,254786,L_Hip,-0.9094,0.3322,0.3136,4.36,-6.2,-5.57,36.78,9.2,17.11,0.834468,0.145177,0.525925,0.077303,-1.54,-0.38,-1.75,0,1
2026-06-16 17:34:55.499,254806,L_Hip,-0.8849,0.3395,0.3107,4.37,-6.27,-5.58,35.76,10.47,18.86,0.834559,0.145207,0.525742,0.077273,-1.57,-0.4,-1.78,0,1
2026-06-16 17:34:55.501,254826,L_Hip,-0.8977,0.3223,0.3374,4.31,-6.25,-5.62,0.0,0.0,0.0,0.83459,0.145238,0.525681,0.077273,-1.57,-0.41,-1.79,0,1
2026-06-16 17:34:55.520,254791,L_Hip,-0.8888,0.3248,0.3233,4.35,-6.22,-5.57,36.3,10.0,16.67,0.83462,0.145238,0.525651,0.077242,-1.58,-0.41,-1.8,0,1
2026-06-16 17:34:55.522,254811,L_Hip,-0.8893,0.3272,0.3127,4.35,-6.16,-5.59,36.63,10.01,16.96,0.834651,0.145238,0.52559,0.077242,-1.58,-0.42,-1.81,0,1
2026-06-16 17:34:55.524,254831,L_Hip,-0.8918,0.3218,0.3398,4.33,-6.12,-5.59,36.63,10.65,17.54,0.834742,0.145146,0.525498,0.077181,-1.62,-0.42,-1.84,0,1
2026-06-16 17:34:55.526,254851,L_Hip,-0.9031,0.3233,0.3369,4.3,-6.15,-5.61,35.93,9.03,16.97,0.834773,0.145146,0.525437,0.077181,-1.63,-0.43,-1.85,0,1
2026-06-16 17:34:55.570,254841,L_Hip,-0.8854,0.3169,0.3378,4.34,-6.32,-5.61,37.43,9.53,18.84,0.834773,0.145116,0.525468,0.077181,-1.63,-0.42,-1.85,0,1
2026-06-16 17:34:55.572,254861,L_Hip,-0.8893,0.315,0.3393,4.36,-6.31,-5.62,0.0,0.0,0.0,0.834803,0.145054,0.525407,0.077151,-1.65,-0.43,-1.87,0,1
2026-06-16 17:34:55.574,254881,L_Hip,-0.8864,0.3174,0.3238,4.38,-6.26,-5.61,36.43,9.84,18.27,0.834895,0.144963,0.525315,0.07712,-1.68,-0.43,-1.89,0,1
2026-06-16 17:34:55.576,254901,L_Hip,-0.8854,0.3272,0.332,4.47,-6.27,-5.6,36.45,10.16,17.69,0.834986,0.144871,0.525193,0.077059,-1.72,-0.44,-1.93,0,1
2026-06-16 17:34:55.595,254866,L_Hip,-0.8972,0.3331,0.3161,4.53,-6.12,-5.54,36.61,9.04,16.67,0.835078,0.14481,0.525101,0.076968,-1.75,-0.44,-1.96,0,1
2026-06-16 17:34:55.597,254886,L_Hip,-0.9001,0.339,0.3311,4.54,-6.09,-5.51,0.0,0.0,0.0,0.835139,0.144841,0.524979,0.076876,-1.78,-0.46,-2.0,0,1
2026-06-16 17:34:55.599,254906,L_Hip,-0.8996,0.3317,0.3272,4.53,-6.07,-5.48,36.94,9.69,18.12,0.83517,0.144902,0.524949,0.076815,-1.77,-0.46,-2.0,0,1
2026-06-16 17:34:55.601,254926,L_Hip,-0.8903,0.3425,0.3354,4.54,-6.12,-5.48,36.25,9.03,18.13,0.835139,0.144993,0.524949,0.076785,-1.76,-0.46,-2.0,0,1
2026-06-16 17:34:55.645,254916,L_Hip,-0.9031,0.341,0.3354,4.51,-6.16,-5.48,35.26,9.34,17.27,0.835108,0.145116,0.524949,0.076754,-1.74,-0.47,-1.99,0,1
2026-06-16 17:34:55.647,254936,L_Hip,-0.8893,0.3381,0.3316,4.48,-6.35,-5.53,37.97,10.35,17.81,0.835078,0.145268,0.524979,0.076754,-1.71,-0.47,-1.98,0,1
2026-06-16 17:34:55.649,254956,L_Hip,-0.8923,0.3518,0.3306,4.44,-6.37,-5.55,0.0,0.0,0.0,0.835078,0.145421,0.524949,0.076785,-1.68,-0.47,-1.96,0,1
2026-06-16 17:34:55.652,254976,L_Hip,-0.8937,0.3484,0.3345,4.45,-6.35,-5.58,36.94,10.65,18.99,0.835047,0.145573,0.524949,0.076785,-1.66,-0.48,-1.95,0,1
2026-06-16 17:34:55.670,254941,L_Hip,-0.879,0.3533,0.3238,4.38,-6.25,-5.53,34.57,9.32,18.45,0.835108,0.145695,0.524796,0.076754,-1.66,-0.5,-1.96,0,1
2026-06-16 17:34:55.672,254961,L_Hip,-0.88,0.3518,0.319,4.38,-6.19,-5.5,36.82,10.82,16.52,0.8352,0.145787,0.524644,0.076754,-1.66,-0.52,-1.97,0,1
2026-06-16 17:34:55.674,254981,L_Hip,-0.8722,0.3449,0.3209,4.36,-6.08,-5.48,0.0,0.0,0.0,0.835261,0.145878,0.524522,0.076724,-1.67,-0.54,-1.99,0,1
2026-06-16 17:34:55.676,255001,L_Hip,-0.8717,0.3395,0.319,4.34,-6.02,-5.46,36.61,9.68,17.54,0.835292,0.14597,0.52443,0.076754,-1.66,-0.55,-1.99,0,1
2026-06-16 17:34:55.720,254991,L_Hip,-0.879,0.3449,0.318,4.25,-5.92,-5.54,36.11,10.48,18.27,0.835292,0.146092,0.524369,0.076846,-1.64,-0.57,-1.97,0,1
2026-06-16 17:34:55.722,255011,L_Hip,-0.8918,0.3503,0.3238,4.22,-5.89,-5.54,0.0,0.0,0.0,0.835261,0.146153,0.5244,0.076937,-1.62,-0.57,-1.94,0,1
2026-06-16 17:34:55.724,255031,L_Hip,-0.8923,0.3361,0.317,4.19,-5.92,-5.56,36.09,9.19,17.99,0.8352,0.146184,0.524491,0.077059,-1.59,-0.57,-1.91,0,1
2026-06-16 17:34:55.726,255051,L_Hip,-0.8844,0.34,0.3238,4.12,-5.99,-5.57,36.96,9.69,17.25,0.835139,0.146153,0.524583,0.077151,-1.57,-0.56,-1.88,0,1
2026-06-16 17:34:55.769,255041,L_Hip,-0.8893,0.3263,0.3248,4.06,-6.09,-5.64,36.07,8.54,18.57,0.835078,0.146123,0.524674,0.077273,-1.55,-0.55,-1.85,0,1
2026-06-16 17:34:55.772,255061,L_Hip,-0.8908,0.3115,0.3635,4.08,-6.07,-5.64,35.95,10.0,16.97,0.835017,0.146001,0.524766,0.077395,-1.55,-0.55,-1.83,0,1
2026-06-16 17:34:55.775,255081,L_Hip,-0.9143,0.3331,0.3388,4.16,-6.0,-5.59,35.58,9.02,17.85,0.835017,0.145848,0.524796,0.077486,-1.57,-0.54,-1.82,0,1
2026-06-16 17:34:55.777,255101,L_Hip,-0.9055,0.312,0.3209,4.14,-6.12,-5.55,0.0,0.0,0.0,0.835047,0.145604,0.524796,0.077578,-1.6,-0.54,-1.83,0,1
2026-06-16 17:34:55.795,255066,L_Hip,-0.906,0.311,0.3509,4.24,-6.14,-5.58,37.1,9.53,18.55,0.835108,0.14536,0.524796,0.077609,-1.64,-0.52,-1.85,0,1
2026-06-16 17:34:55.797,255086,L_Hip,-0.9045,0.3189,0.3553,4.25,-6.18,-5.58,36.61,9.36,17.54,0.835139,0.145207,0.524796,0.077639,-1.67,-0.52,-1.86,0,1
2026-06-16 17:34:55.799,255106,L_Hip,-0.9011,0.3042,0.3621,4.32,-6.24,-5.62,37.29,9.38,17.24,0.83517,0.144993,0.524796,0.07767,-1.7,-0.51,-1.87,0,1
2026-06-16 17:34:55.801,255126,L_Hip,-0.8977,0.3169,0.3437,4.36,-6.24,-5.61,0.0,0.0,0.0,0.835231,0.14481,0.524735,0.07767,-1.75,-0.51,-1.9,0,1
2026-06-16 17:34:55.845,255116,L_Hip,-0.9026,0.3056,0.3432,4.46,-6.2,-5.55,36.25,9.03,18.13,0.835322,0.144688,0.524644,0.077639,-1.78,-0.52,-1.93,0,1
2026-06-16 17:34:55.847,255136,L_Hip,-0.9006,0.3209,0.3446,4.51,-6.14,-5.53,36.64,10.01,16.38,0.835414,0.144566,0.524522,0.077578,-1.83,-0.53,-1.97,0,1
2026-06-16 17:34:55.849,255156,L_Hip,-0.8908,0.3189,0.3403,4.53,-6.08,-5.52,0.0,0.0,0.0,0.835475,0.144505,0.524461,0.077486,-1.85,-0.53,-2.0,0,1
2026-06-16 17:34:55.851,255176,L_Hip,-0.8908,0.3272,0.3417,4.55,-6.02,-5.51,35.25,9.98,18.43,0.835505,0.144475,0.5244,0.077425,-1.87,-0.53,-2.02,0,1
2026-06-16 17:34:55.895,255166,L_Hip,-0.8893,0.3307,0.3437,4.54,-6.13,-5.55,36.93,9.37,18.12,0.835505,0.144536,0.5244,0.077364,-1.87,-0.53,-2.02,0,1
2026-06-16 17:34:55.897,255186,L_Hip,-0.8785,0.3312,0.3374,4.54,-6.12,-5.57,36.79,9.21,16.52,0.835475,0.144597,0.52443,0.077303,-1.86,-0.53,-2.02,0,1
2026-06-16 17:34:55.899,255206,L_Hip,-0.8898,0.3395,0.347,4.55,-6.12,-5.58,37.33,10.67,16.08,0.835475,0.144719,0.52443,0.077273,-1.84,-0.53,-2.02,0,1
2026-06-16 17:34:55.901,255226,L_Hip,-0.878,0.339,0.3316,4.57,-6.18,-5.61,0.0,0.0,0.0,0.835444,0.14481,0.52443,0.077212,-1.83,-0.53,-2.02,0,1
2026-06-16 17:34:55.944,255216,L_Hip,-0.882,0.341,0.3257,4.56,-6.16,-5.64,36.61,9.04,16.96,0.835475,0.144902,0.5244,0.077151,-1.82,-0.53,-2.02,0,1
2026-06-16 17:34:55.946,255236,L_Hip,-0.8795,0.3371,0.3156,4.51,-6.16,-5.67,37.61,9.38,17.82,0.835505,0.145024,0.524339,0.077059,-1.82,-0.54,-2.04,0,1
2026-06-16 17:34:55.949,255256,L_Hip,-0.8859,0.3508,0.334,4.48,-6.15,-5.66,0.0,0.0,0.0,0.835505,0.145146,0.524308,0.076998,-1.8,-0.55,-2.04,0,1
2026-06-16 17:34:55.951,255276,L_Hip,-0.8785,0.3508,0.3277,4.42,-6.11,-5.64,37.12,9.86,17.39,0.835505,0.145268,0.524308,0.076876,-1.79,-0.54,-2.05,0,1
2026-06-16 17:34:55.995,255266,L_Hip,-0.8878,0.3494,0.3204,4.33,-6.09,-5.64,36.43,9.52,17.98,0.835475,0.14536,0.524308,0.076815,-1.78,-0.55,-2.05,0,1
2026-06-16 17:34:55.997,255286,L_Hip,-0.8859,0.3454,0.332,4.29,-6.08,-5.62,36.95,9.37,17.25,0.835475,0.145421,0.524308,0.076785,-1.77,-0.55,-2.05,0,1
2026-06-16 17:34:55.999,255306,L_Hip,-0.8932,0.3449,0.3199,4.29,-6.0,-5.63,36.63,10.33,17.54,0.835444,0.145451,0.524369,0.076754,-1.76,-0.54,-2.05,0,1
2026-06-16 17:34:56.001,255326,L_Hip,-0.8932,0.34,0.333,4.29,-5.93,-5.62,0.0,0.0,0.0,0.835414,0.145451,0.5244,0.076754,-1.76,-0.54,-2.04,0,1
2026-06-16 17:34:56.045,255316,L_Hip,-0.8883,0.3385,0.3359,4.27,-6.0,-5.62,36.29,10.64,17.84,0.835383,0.145421,0.52443,0.076785,-1.76,-0.54,-2.03,0,1
2026-06-16 17:34:56.047,255336,L_Hip,-0.8893,0.3405,0.3325,4.27,-6.0,-5.64,36.11,10.16,17.69,0.835322,0.14539,0.524522,0.076815,-1.75,-0.53,-2.02,0,1
2026-06-16 17:34:56.049,255356,L_Hip,-0.8991,0.341,0.3461,4.25,-6.02,-5.65,37.12,9.86,17.39,0.835322,0.145329,0.524583,0.076846,-1.75,-0.51,-2.01,0,1
2026-06-16 17:34:56.051,255376,L_Hip,-0.8893,0.3341,0.3335,4.27,-6.03,-5.61,36.0,11.61,16.38,0.835292,0.145268,0.524613,0.076907,-1.75,-0.51,-2.0,0,1
2026-06-16 17:34:56.069,255341,L_Hip,-0.8942,0.343,0.3277,4.27,-5.93,-5.54,37.29,10.66,18.69,0.835292,0.145177,0.524644,0.076907,-1.76,-0.51,-2.01,0,1
2026-06-16 17:34:56.072,255361,L_Hip,-0.8849,0.3346,0.3364,4.26,-5.93,-5.51,0.0,0.0,0.0,0.835292,0.145116,0.524674,0.076937,-1.76,-0.5,-2.0,0,1
2026-06-16 17:34:56.074,255381,L_Hip,-0.8795,0.3439,0.3282,4.25,-5.9,-5.51,36.28,10.0,17.55,0.835261,0.145054,0.524705,0.076968,-1.77,-0.5,-2.0,0,1
2026-06-16 17:34:56.076,255401,L_Hip,-0.8893,0.3356,0.3446,4.25,-5.88,-5.51,36.61,9.68,17.83,0.8352,0.145024,0.524827,0.077059,-1.75,-0.49,-1.97,0,1
2026-06-16 17:34:56.095,255366,L_Hip,-0.8928,0.3297,0.3127,4.22,-5.87,-5.49,36.97,10.66,17.24,0.835139,0.144993,0.524888,0.077151,-1.74,-0.48,-1.95,0,1
2026-06-16 17:34:56.097,255386,L_Hip,-0.8918,0.3444,0.3272,4.21,-5.88,-5.49,0.0,0.0,0.0,0.835078,0.144993,0.52501,0.077303,-1.71,-0.47,-1.9,0,1
2026-06-16 17:34:56.099,255406,L_Hip,-0.8923,0.3405,0.3209,4.22,-5.92,-5.5,35.93,9.67,17.84,0.834986,0.144932,0.525101,0.077425,-1.69,-0.47,-1.87,0,1
2026-06-16 17:34:56.101,255426,L_Hip,-0.8854,0.3336,0.3209,4.19,-5.96,-5.51,34.25,9.0,16.71,0.834925,0.144902,0.525224,0.077578,-1.67,-0.46,-1.83,0,1
2026-06-16 17:34:56.144,255415,L_Hip,-0.8942,0.3361,0.3257,4.12,-6.02,-5.58,36.08,8.87,17.99,0.834834,0.144841,0.525346,0.0777,-1.65,-0.45,-1.8,0,1
2026-06-16 17:34:56.146,255435,L_Hip,-0.8967,0.3356,0.3296,4.11,-6.04,-5.58,0.0,0.0,0.0,0.834773,0.14481,0.525407,0.077853,-1.63,-0.45,-1.77,0,1
2026-06-16 17:34:56.148,255455,L_Hip,-0.8952,0.3263,0.3301,4.11,-6.04,-5.59,36.25,8.71,17.84,0.834742,0.144688,0.525498,0.077975,-1.63,-0.44,-1.75,0,1
2026-06-16 17:34:56.150,255475,L_Hip,-0.8977,0.3233,0.334,4.1,-6.06,-5.6,37.78,8.9,17.38,0.834681,0.144566,0.52559,0.078036,-1.64,-0.43,-1.73,0,1
2026-06-16 17:34:56.170,255441,L_Hip,-0.9055,0.316,0.3253,4.15,-6.06,-5.62,36.27,9.68,18.13,0.834681,0.144414,0.52562,0.078158,-1.65,-0.42,-1.72,0,1
2026-06-16 17:34:56.172,255461,L_Hip,-0.8962,0.316,0.3301,4.19,-6.07,-5.62,0.0,0.0,0.0,0.834681,0.14423,0.525681,0.078219,-1.67,-0.41,-1.72,0,1
2026-06-16 17:34:56.174,255481,L_Hip,-0.8986,0.3076,0.3291,4.2,-6.07,-5.61,36.1,9.83,18.28,0.834712,0.144047,0.525651,0.07828,-1.7,-0.41,-1.73,0,1
2026-06-16 17:34:56.176,255501,L_Hip,-0.8986,0.3105,0.3228,4.22,-6.07,-5.61,35.92,9.67,18.43,0.834742,0.143834,0.525681,0.07831,-1.73,-0.4,-1.74,0,1
2026-06-16 17:34:56.195,255466,L_Hip,-0.9021,0.312,0.3403,4.28,-6.11,-5.64,34.95,11.26,17.85,0.834742,0.143651,0.525712,0.07831,-1.76,-0.39,-1.76,0,1
2026-06-16 17:34:56.196,255486,L_Hip,-0.8977,0.3042,0.3267,4.32,-6.09,-5.64,0.0,0.0,0.0,0.834773,0.143468,0.525742,0.07831,-1.79,-0.38,-1.77,0,1
2026-06-16 17:34:56.199,255506,L_Hip,-0.9035,0.3081,0.3345,4.35,-6.07,-5.64,36.12,10.16,17.4,0.834803,0.143315,0.525742,0.07828,-1.82,-0.37,-1.79,0,1
2026-06-16 17:34:56.201,255526,L_Hip,-0.8952,0.3135,0.3393,4.38,-6.04,-5.61,36.78,9.85,17.98,0.834834,0.143162,0.525742,0.078219,-1.85,-0.36,-1.81,0,1
2026-06-16 17:34:56.245,255516,L_Hip,-0.8991,0.3209,0.3446,4.47,-5.97,-5.58,36.45,10.48,18.27,0.834834,0.14304,0.525742,0.078158,-1.88,-0.36,-1.84,0,1
2026-06-16 17:34:56.247,255536,L_Hip,-0.9006,0.3135,0.3325,4.48,-5.94,-5.57,36.26,8.71,17.55,0.834834,0.142979,0.525803,0.078097,-1.88,-0.35,-1.84,0,1
2026-06-16 17:34:56.249,255556,L_Hip,-0.8908,0.315,0.3262,4.54,-5.99,-5.55,0.0,0.0,0.0,0.834803,0.142949,0.525834,0.078036,-1.89,-0.34,-1.85,0,1
2026-06-16 17:34:56.251,255576,L_Hip,-0.8981,0.3248,0.3408,4.54,-6.09,-5.58,36.62,10.01,17.54,0.834773,0.142918,0.525925,0.077975,-1.89,-0.33,-1.85,0,1
2026-06-16 17:34:56.270,255541,L_Hip,-0.8937,0.3351,0.333,4.56,-6.04,-5.57,37.29,9.7,17.53,0.834742,0.142949,0.525987,0.077914,-1.88,-0.32,-1.85,0,1
2026-06-16 17:34:56.272,255561,L_Hip,-0.8898,0.3395,0.3359,4.56,-6.03,-5.55,35.89,8.05,18.43,0.834712,0.14304,0.526017,0.077853,-1.87,-0.31,-1.85,0,1
2026-06-16 17:34:56.274,255581,L_Hip,-0.8923,0.3317,0.332,4.55,-6.01,-5.54,0.0,0.0,0.0,0.834681,0.143132,0.526048,0.077761,-1.85,-0.31,-1.85,0,1
2026-06-16 17:34:56.276,255601,L_Hip,-0.8932,0.3376,0.3378,4.54,-6.06,-5.55,36.57,8.71,19.0,0.834651,0.143223,0.526109,0.0777,-1.83,-0.3,-1.84,0,1
2026-06-16 17:34:56.320,255591,L_Hip,-0.8888,0.3444,0.3311,4.41,-6.17,-5.69,36.77,9.2,17.69,0.83459,0.143376,0.526139,0.07767,-1.8,-0.31,-1.83,0,1
2026-06-16 17:34:56.322,255611,L_Hip,-0.8834,0.3381,0.3243,4.4,-6.15,-5.71,37.11,10.49,19.13,0.834559,0.143498,0.52617,0.077639,-1.78,-0.3,-1.82,0,1
2026-06-16 17:34:56.324,255631,L_Hip,-0.8785,0.3425,0.3451,4.39,-6.16,-5.69,0.0,0.0,0.0,0.834559,0.14359,0.526139,0.077578,-1.77,-0.31,-1.83,0,1
2026-06-16 17:34:56.326,255651,L_Hip,-0.8775,0.343,0.3277,4.38,-6.13,-5.67,35.75,9.83,18.57,0.834559,0.143651,0.526139,0.077517,-1.77,-0.31,-1.83,0,1
2026-06-16 17:34:56.370,255641,L_Hip,-0.8746,0.3381,0.3185,4.37,-5.97,-5.58,36.08,9.51,18.86,0.83459,0.143681,0.526109,0.077456,-1.77,-0.31,-1.84,0,1
2026-06-16 17:34:56.372,255661,L_Hip,-0.8854,0.3385,0.3286,4.35,-5.93,-5.6,36.44,9.2,17.11,0.83462,0.143681,0.526048,0.077395,-1.79,-0.32,-1.86,0,1
2026-06-16 17:34:56.374,255681,L_Hip,-0.8849,0.3385,0.333,4.34,-5.98,-5.62,0.0,0.0,0.0,0.83459,0.143712,0.526078,0.077395,-1.78,-0.31,-1.86,0,1
2026-06-16 17:34:56.377,255701,L_Hip,-0.8839,0.3371,0.3253,4.31,-6.0,-5.64,36.79,9.85,17.1,0.834559,0.143773,0.526139,0.077456,-1.75,-0.31,-1.83,0,1
2026-06-16 17:34:56.395,255666,L_Hip,-0.8942,0.3523,0.3345,4.29,-6.0,-5.63,36.27,9.36,17.26,0.834498,0.143773,0.5262,0.077486,-1.74,-0.31,-1.82,0,1
2026-06-16 17:34:56.397,255686,L_Hip,-0.8986,0.3459,0.3398,4.28,-5.99,-5.62,36.43,8.87,17.4,0.834468,0.143742,0.526261,0.077486,-1.74,-0.3,-1.81,0,1
2026-06-16 17:34:56.399,255706,L_Hip,-0.9075,0.3518,0.3412,4.26,-5.98,-5.58,35.75,8.22,17.13,0.834437,0.143712,0.526322,0.077517,-1.73,-0.29,-1.8,0,1
2026-06-16 17:34:56.401,255726,L_Hip,-0.8878,0.3523,0.3475,4.25,-5.97,-5.56,0.0,0.0,0.0,0.834407,0.143681,0.526383,0.077548,-1.72,-0.28,-1.79,0,1
2026-06-16 17:34:56.445,255716,L_Hip,-0.8874,0.3395,0.3291,4.17,-5.99,-5.53,36.91,8.72,18.99,0.834376,0.143681,0.526414,0.077609,-1.71,-0.28,-1.77,0,1
2026-06-16 17:34:56.447,255736,L_Hip,-0.9031,0.3523,0.3151,4.16,-5.97,-5.52,37.12,9.85,17.68,0.834346,0.143651,0.526444,0.0777,-1.71,-0.28,-1.76,0,1
2026-06-16 17:34:56.449,255756,L_Hip,-0.8996,0.3523,0.3272,4.12,-5.97,-5.52,36.1,9.51,17.99,0.834315,0.14362,0.526475,0.077822,-1.7,-0.28,-1.73,0,1
2026-06-16 17:34:56.451,255776,L_Hip,-0.8893,0.341,0.3214,4.09,-6.01,-5.51,0.0,0.0,0.0,0.834284,0.143559,0.526536,0.077944,-1.69,-0.28,-1.71,0,1
2026-06-16 17:34:56.470,255741,L_Hip,-0.8923,0.3351,0.3224,4.05,-6.06,-5.51,36.75,8.88,18.56,0.834223,0.143498,0.526627,0.078097,-1.67,-0.27,-1.68,0,1
2026-06-16 17:34:56.472,255761,L_Hip,-0.8805,0.3189,0.3209,4.04,-6.07,-5.52,36.56,8.71,19.58,0.834193,0.143406,0.526658,0.078249,-1.67,-0.27,-1.65,0,1
2026-06-16 17:34:56.474,255781,L_Hip,-0.879,0.3243,0.3267,4.05,-6.06,-5.52,37.11,8.57,16.81,0.834193,0.143284,0.526688,0.078433,-1.67,-0.27,-1.63,0,1
2026-06-16 17:34:56.476,255801,L_Hip,-0.8839,0.312,0.3243,4.04,-6.0,-5.55,36.59,9.04,18.13,0.834193,0.143132,0.526719,0.078616,-1.68,-0.27,-1.61,0,1
2026-06-16 17:34:56.520,255791,L_Hip,-0.8844,0.3125,0.3272,4.06,-6.03,-5.62,35.23,8.37,18.15,0.834193,0.142949,0.526719,0.078768,-1.7,-0.27,-1.6,0,1
2026-06-16 17:34:56.522,255811,L_Hip,-0.8893,0.3115,0.3272,4.08,-6.01,-5.64,0.0,0.0,0.0,0.834193,0.142766,0.526749,0.07889,-1.72,-0.27,-1.59,0,1
2026-06-16 17:34:56.524,255831,L_Hip,-0.8937,0.3071,0.3301,4.08,-6.0,-5.66,35.21,8.68,19.31,0.834223,0.142552,0.526749,0.078982,-1.75,-0.26,-1.6,0,1
2026-06-16 17:34:56.526,255851,L_Hip,-0.8977,0.3022,0.3383,4.11,-6.03,-5.67,35.58,8.7,17.85,0.834223,0.142338,0.52678,0.079073,-1.77,-0.26,-1.6,0,1
2026-06-16 17:34:56.595,255866,L_Hip,-0.906,0.3017,0.3403,4.19,-6.02,-5.65,35.79,10.48,17.12,0.834254,0.142094,0.526841,0.079104,-1.81,-0.24,-1.6,0,1
2026-06-16 17:34:56.597,255886,L_Hip,-0.9158,0.3047,0.3417,4.23,-6.01,-5.64,0.0,0.0,0.0,0.834284,0.14182,0.526841,0.079104,-1.86,-0.23,-1.63,0,1
2026-06-16 17:34:56.600,255906,L_Hip,-0.9188,0.3071,0.3461,4.27,-6.01,-5.64,35.58,8.7,17.85,0.834315,0.141545,0.526872,0.079073,-1.9,-0.21,-1.66,0,1
2026-06-16 17:34:56.602,255926,L_Hip,-0.9119,0.2997,0.3669,4.32,-6.06,-5.6,34.06,9.79,18.89,0.834315,0.141331,0.526933,0.079043,-1.94,-0.2,-1.67,0,1
2026-06-16 17:34:56.620,255891,L_Hip,-0.906,0.3076,0.3408,4.47,-6.12,-5.58,36.08,9.83,19.15,0.834315,0.141118,0.526994,0.079012,-1.97,-0.18,-1.69,0,1
2026-06-16 17:34:56.622,255911,L_Hip,-0.8942,0.314,0.3378,4.51,-6.15,-5.54,0.0,0.0,0.0,0.834346,0.140965,0.526994,0.078951,-2.0,-0.17,-1.72,0,1
2026-06-16 17:34:56.624,255931,L_Hip,-0.9045,0.3164,0.3403,4.54,-6.17,-5.58,36.77,8.88,17.4,0.834407,0.140843,0.526933,0.07889,-2.04,-0.17,-1.75,0,1
2026-06-16 17:34:56.627,255951,L_Hip,-0.8981,0.3223,0.3427,4.55,-6.21,-5.57,36.09,9.19,17.7,0.834437,0.140812,0.526933,0.078829,-2.05,-0.17,-1.76,0,1
2026-06-16 17:34:56.644,255916,L_Hip,-0.9011,0.3322,0.3267,4.58,-6.22,-5.58,36.78,9.85,17.98,0.834437,0.140873,0.526872,0.078738,-2.06,-0.18,-1.78,0,1
2026-06-16 17:34:56.647,255936,L_Hip,-0.8928,0.3317,0.3316,4.58,-6.24,-5.58,0.0,0.0,0.0,0.834498,0.140934,0.526811,0.078616,-2.06,-0.18,-1.8,0,1
2026-06-16 17:34:56.649,255956,L_Hip,-0.8928,0.3327,0.3132,4.58,-6.25,-5.58,37.44,9.22,17.68,0.834529,0.141026,0.526719,0.078524,-2.07,-0.19,-1.82,0,1
2026-06-16 17:34:56.651,255976,L_Hip,-0.8878,0.3376,0.3272,4.57,-6.23,-5.58,36.42,10.48,20.01,0.834559,0.141148,0.526688,0.078433,-2.06,-0.19,-1.83,0,1
2026-06-16 17:34:56.670,255941,L_Hip,-0.882,0.3405,0.3219,4.51,-6.22,-5.61,35.6,10.31,18.43,0.83459,0.141301,0.526627,0.078341,-2.05,-0.2,-1.84,0,1
2026-06-16 17:34:56.672,255961,L_Hip,-0.8771,0.343,0.3243,4.5,-6.19,-5.62,0.0,0.0,0.0,0.83459,0.141453,0.526597,0.078249,-2.03,-0.21,-1.85,0,1
2026-06-16 17:34:56.674,255981,L_Hip,-0.8766,0.34,0.3136,4.47,-6.16,-5.62,35.24,9.33,18.44,0.83462,0.141575,0.526505,0.078188,-2.03,-0.22,-1.86,0,1
2026-06-16 17:34:56.677,256001,L_Hip,-0.8795,0.3498,0.3219,4.43,-6.14,-5.6,35.44,9.82,17.42,0.83462,0.141697,0.526475,0.078127,-2.02,-0.23,-1.86,0,1
2026-06-16 17:34:56.720,255991,L_Hip,-0.8805,0.3523,0.3214,4.38,-6.09,-5.62,36.44,10.16,18.56,0.834651,0.14182,0.526414,0.078097,-2.01,-0.23,-1.87,0,1
2026-06-16 17:34:56.722,256011,L_Hip,-0.8844,0.3528,0.3122,4.35,-6.09,-5.62,37.29,9.38,16.95,0.83462,0.141911,0.526414,0.078066,-1.99,-0.24,-1.86,0,1
2026-06-16 17:34:56.724,256031,L_Hip,-0.8874,0.3636,0.317,4.31,-6.06,-5.64,0.0,0.0,0.0,0.83462,0.142003,0.526383,0.078066,-1.98,-0.25,-1.86,0,1
2026-06-16 17:34:56.727,256051,L_Hip,-0.9026,0.3484,0.3233,4.28,-6.03,-5.63,36.47,11.45,18.27,0.83462,0.142064,0.526414,0.078097,-1.96,-0.24,-1.84,0,1
2026-06-16 17:34:56.794,256066,L_Hip,-0.8972,0.3538,0.3412,4.22,-6.0,-5.54,36.41,8.23,17.99,0.83459,0.142125,0.526414,0.078127,-1.95,-0.25,-1.83,0,1
2026-06-16 17:34:56.797,256086,L_Hip,-0.8986,0.3523,0.3204,4.19,-6.0,-5.51,37.61,8.73,17.53,0.834529,0.142155,0.526475,0.078188,-1.93,-0.25,-1.81,0,1
2026-06-16 17:34:56.799,256106,L_Hip,-0.8977,0.3444,0.3291,4.16,-6.03,-5.51,36.09,9.83,18.86,0.834468,0.142155,0.526566,0.078249,-1.91,-0.24,-1.79,0,1
2026-06-16 17:34:56.801,256126,L_Hip,-0.8972,0.3415,0.3345,4.12,-6.03,-5.51,0.0,0.0,0.0,0.834437,0.142155,0.526597,0.078372,-1.9,-0.24,-1.76,0,1
2026-06-16 17:34:56.820,256091,L_Hip,-0.8942,0.3282,0.3316,4.07,-6.17,-5.53,37.09,9.21,18.55,0.834407,0.142125,0.526658,0.078524,-1.88,-0.24,-1.73,0,1
2026-06-16 17:34:56.822,256111,L_Hip,-0.8874,0.3174,0.3253,4.05,-6.16,-5.58,35.75,9.5,18.28,0.834376,0.142094,0.526688,0.078677,-1.87,-0.24,-1.7,0,1
2026-06-16 17:34:56.824,256131,L_Hip,-0.8923,0.3228,0.3301,4.06,-6.13,-5.56,36.44,8.88,16.82,0.834376,0.142003,0.526688,0.078829,-1.87,-0.24,-1.68,0,1
2026-06-16 17:34:56.826,256151,L_Hip,-0.8888,0.3125,0.3277,4.08,-6.11,-5.58,0.0,0.0,0.0,0.834407,0.141881,0.526658,0.078982,-1.88,-0.25,-1.67,0,1
2026-06-16 17:34:56.845,256116,L_Hip,-0.9001,0.3155,0.3311,4.11,-6.03,-5.58,36.43,8.55,17.11,0.834468,0.141667,0.526597,0.079073,-1.92,-0.25,-1.69,0,1
2026-06-16 17:34:56.847,256136,L_Hip,-0.9045,0.316,0.3291,4.11,-6.03,-5.56,35.28,10.3,17.56,0.834498,0.141484,0.526566,0.079196,-1.95,-0.25,-1.69,0,1
2026-06-16 17:34:56.849,256156,L_Hip,-0.8903,0.3066,0.348,4.13,-6.05,-5.57,0.0,0.0,0.0,0.834529,0.141301,0.526566,0.079257,-1.97,-0.25,-1.69,0,1
2026-06-16 17:34:56.852,256176,L_Hip,-0.8962,0.2993,0.3403,4.15,-6.05,-5.58,35.76,9.83,18.28,0.834529,0.141087,0.526597,0.079318,-2.0,-0.24,-1.7,0,1
2026-06-16 17:34:56.870,256141,L_Hip,-0.9021,0.2865,0.3311,4.29,-6.01,-5.59,36.09,10.15,18.86,0.834529,0.140873,0.526627,0.079409,-2.03,-0.23,-1.7,0,1
2026-06-16 17:34:56.872,256161,L_Hip,-0.8952,0.2889,0.3277,4.32,-6.01,-5.61,35.75,9.82,18.86,0.83459,0.14066,0.526627,0.07944,-2.07,-0.22,-1.71,0,1
2026-06-16 17:34:56.874,256181,L_Hip,-0.8962,0.2958,0.3475,4.41,-6.03,-5.59,35.93,9.03,17.56,0.83459,0.140477,0.526658,0.07947,-2.09,-0.22,-1.72,0,1
2026-06-16 17:34:56.876,256201,L_Hip,-0.9026,0.2938,0.3437,4.47,-6.07,-5.59,0.0,0.0,0.0,0.83459,0.140294,0.526688,0.07944,-2.12,-0.21,-1.74,0,1
2026-06-16 17:34:56.920,256191,L_Hip,-0.9011,0.3061,0.3446,4.57,-6.1,-5.6,36.8,11.46,18.55,0.83459,0.140141,0.52678,0.079348,-2.15,-0.18,-1.76,0,1
2026-06-16 17:34:56.922,256211,L_Hip,-0.9001,0.3174,0.3461,4.6,-6.12,-5.6,34.74,9.81,18.59,0.83459,0.14008,0.52678,0.079287,-2.16,-0.18,-1.77,0,1
2026-06-16 17:34:56.924,256231,L_Hip,-0.9031,0.313,0.3519,4.61,-6.18,-5.61,36.09,9.19,17.7,0.83462,0.140049,0.526749,0.079165,-2.18,-0.18,-1.8,0,1
2026-06-16 17:34:56.926,256251,L_Hip,-0.9089,0.3263,0.333,4.64,-6.22,-5.63,0.0,0.0,0.0,0.834651,0.14008,0.526719,0.079043,-2.19,-0.18,-1.83,0,1
2026-06-16 17:34:56.970,256241,L_Hip,-0.8972,0.3253,0.3325,4.64,-6.27,-5.64,37.46,10.18,17.67,0.834681,0.140141,0.526688,0.07889,-2.2,-0.18,-1.85,0,1
2026-06-16 17:34:56.972,256261,L_Hip,-0.8928,0.3356,0.332,4.64,-6.25,-5.62,35.78,10.8,17.99,0.834742,0.140233,0.526597,0.078738,-2.21,-0.18,-1.88,0,1
2026-06-16 17:34:56.974,256281,L_Hip,-0.8947,0.3312,0.3257,4.64,-6.25,-5.63,34.91,9.97,19.02,0.834742,0.140385,0.526536,0.078585,-2.21,-0.19,-1.9,0,1
2026-06-16 17:34:56.977,256301,L_Hip,-0.8844,0.3297,0.318,4.63,-6.26,-5.59,36.46,10.49,17.4,0.834803,0.140538,0.526444,0.078433,-2.2,-0.2,-1.93,0,1
2026-06-16 17:34:57.019,256291,L_Hip,-0.8844,0.3425,0.3335,4.58,-6.09,-5.58,37.15,10.5,16.52,0.834834,0.14069,0.526383,0.07828,-2.2,-0.2,-1.95,0,1
2026-06-16 17:34:57.021,256311,L_Hip,-0.8771,0.3508,0.3161,4.58,-6.1,-5.59,0.0,0.0,0.0,0.834864,0.140873,0.526322,0.078158,-2.19,-0.21,-1.96,0,1
2026-06-16 17:34:57.024,256331,L_Hip,-0.8805,0.3489,0.3122,4.55,-6.09,-5.57,35.76,9.18,17.7,0.834864,0.141057,0.526261,0.078066,-2.17,-0.22,-1.97,0,1
2026-06-16 17:34:57.026,256351,L_Hip,-0.8854,0.3567,0.3359,4.52,-6.04,-5.57,35.4,9.17,18.58,0.834803,0.14124,0.526322,0.078005,-2.13,-0.22,-1.95,0,1
2026-06-16 17:34:57.045,256316,L_Hip,-0.8766,0.3597,0.3214,4.42,-6.08,-5.6,36.08,8.87,17.99,0.834773,0.141423,0.526322,0.077975,-2.1,-0.23,-1.94,0,1
2026-06-16 17:34:57.047,256336,L_Hip,-0.8864,0.3616,0.3224,4.42,-6.06,-5.58,0.0,0.0,0.0,0.834712,0.141606,0.526383,0.077975,-2.06,-0.22,-1.91,0,1
2026-06-16 17:34:57.049,256356,L_Hip,-0.8878,0.3562,0.3248,4.39,-5.96,-5.56,36.47,11.13,17.39,0.834681,0.141758,0.526414,0.078005,-2.03,-0.23,-1.89,0,1
2026-06-16 17:34:57.051,256376,L_Hip,-0.8903,0.3538,0.3248,4.38,-5.97,-5.55,35.77,10.15,17.99,0.83462,0.141881,0.526414,0.078036,-2.0,-0.24,-1.87,0,1
2026-06-16 17:34:57.069,256341,L_Hip,-0.8844,0.3503,0.2943,4.29,-5.99,-5.47,35.24,9.33,18.44,0.83459,0.142033,0.526444,0.078097,-1.96,-0.24,-1.84,0,1
2026-06-16 17:34:57.072,256361,L_Hip,-0.8854,0.3543,0.3136,4.26,-5.98,-5.49,0.0,0.0,0.0,0.834498,0.142155,0.526536,0.078158,-1.92,-0.24,-1.81,0,1
2026-06-16 17:34:57.074,256381,L_Hip,-0.882,0.3405,0.3103,4.13,-6.02,-5.51,35.56,8.69,18.72,0.834437,0.142247,0.526597,0.078249,-1.89,-0.24,-1.77,0,1
2026-06-16 17:34:57.076,256401,L_Hip,-0.8883,0.3503,0.3122,4.06,-6.04,-5.55,35.27,10.3,17.85,0.834346,0.142338,0.526658,0.078433,-1.85,-0.24,-1.72,0,1
2026-06-16 17:34:57.120,256391,L_Hip,-0.8928,0.3248,0.3262,4.0,-6.08,-5.59,37.13,10.5,17.68,0.834284,0.142369,0.52678,0.078585,-1.81,-0.23,-1.68,0,1
2026-06-16 17:34:57.122,256411,L_Hip,-0.8923,0.3272,0.3233,3.96,-6.06,-5.58,0.0,0.0,0.0,0.834254,0.142308,0.526811,0.078738,-1.8,-0.24,-1.65,0,1
2026-06-16 17:34:57.124,256431,L_Hip,-0.8883,0.3174,0.3248,3.99,-6.04,-5.61,37.13,10.5,17.97,0.834254,0.142155,0.526841,0.078921,-1.81,-0.23,-1.63,0,1
2026-06-16 17:34:57.127,256451,L_Hip,-0.8962,0.3081,0.3194,3.99,-6.03,-5.6,35.45,10.47,17.41,0.834284,0.141972,0.526811,0.079073,-1.84,-0.24,-1.63,0,1
2026-06-16 17:34:57.169,256441,L_Hip,-0.8991,0.2973,0.3267,4.07,-5.96,-5.64,34.24,10.28,18.74,0.834284,0.141728,0.526841,0.079196,-1.86,-0.23,-1.62,0,1
2026-06-16 17:34:57.172,256461,L_Hip,-0.9006,0.3051,0.3335,4.09,-6.0,-5.61,0.0,0.0,0.0,0.834315,0.141453,0.526872,0.079318,-1.9,-0.22,-1.62,0,1
2026-06-16 17:34:57.174,256481,L_Hip,-0.9094,0.2993,0.3296,4.15,-6.1,-5.64,35.4,9.17,18.58,0.834315,0.141148,0.526933,0.079409,-1.94,-0.21,-1.63,0,1
2026-06-16 17:34:57.176,256501,L_Hip,-0.9104,0.2894,0.3408,4.16,-6.12,-5.67,36.11,9.84,17.7,0.834315,0.140873,0.526994,0.07944,-1.97,-0.19,-1.64,0,1
2026-06-16 17:34:57.219,256491,L_Hip,-0.9065,0.2963,0.3524,4.36,-6.12,-5.67,35.1,9.5,16.84,0.834346,0.140599,0.527024,0.07947,-2.02,-0.18,-1.66,0,1
2026-06-16 17:34:57.222,256511,L_Hip,-0.9163,0.3017,0.3524,4.4,-6.15,-5.64,35.76,9.18,17.7,0.834376,0.140324,0.527024,0.07944,-2.07,-0.17,-1.69,0,1
2026-06-16 17:34:57.224,256531,L_Hip,-0.9045,0.2865,0.348,4.49,-6.19,-5.62,0.0,0.0,0.0,0.834437,0.14008,0.526994,0.079348,-2.13,-0.16,-1.73,0,1
2026-06-16 17:34:57.226,256551,L_Hip,-0.9026,0.2919,0.3519,4.54,-6.21,-5.61,35.9,8.38,18.14,0.834498,0.139897,0.526994,0.079196,-2.17,-0.15,-1.78,0,1
