python_time,esp32_hw_time,sensor_name,ax,ay,az,gx,gy,gz,mx,my,mz,q0,q1,q2,q3,quat_roll,quat_pitch,quat_yaw,is_paused_flag,t_pose_flag
2026-06-16 15:33:47.022,40207,R_Ankle,0.0199,-0.0131,1.0024,0.76,-1.71,-0.49,-28.33,29.16,-31.25,0.259407,0.091433,0.01236,0.961333,0.0,0.0,0.0,0,0
2026-06-16 15:33:47.028,40194,R_Shank,0.0355,0.698,1.008,-0.08,-1.46,-8.42,-22.14,23.58,-20.43,0.955962,0.033235,-0.024659,0.290475,0.0,0.0,0.0,0,0
2026-06-16 15:33:47.029,40214,R_Shank,0.0409,-0.0724,1.0268,-0.08,-1.45,-8.41,0.0,0.0,0.0,0.955962,0.033235,-0.024659,0.290475,0.0,0.0,0.0,0,0
2026-06-16 15:33:47.031,40234,R_Shank,0.038,-0.4612,1.0095,-0.08,-1.45,-8.42,-20.93,23.05,-21.51,0.955962,0.033265,-0.024659,0.290506,0.0,0.0,0.0,0,0
2026-06-16 15:33:47.033,40336,L_Shank,0.0047,-0.0273,0.9983,1.75,-1.18,-0.19,-5.35,13.82,-24.85,0.992065,-0.005036,-0.025849,0.122776,0.0,0.0,0.0,0,0
2026-06-16 15:33:47.035,40254,R_Shank,0.0434,-2.6436,1.0196,-0.09,-1.46,-8.42,-20.27,23.05,-20.61,0.955962,0.033265,-0.024628,0.290506,0.0,0.0,0.0,0,0
2026-06-16 15:33:47.036,40356,L_Shank,0.0111,-0.0185,0.9916,1.77,-1.18,-0.19,0.0,0.0,0.0,0.992065,-0.005036,-0.02588,0.122776,0.0,0.0,0.0,0,0
2026-06-16 15:33:47.037,40199,R_Ankle,0.0194,-0.0146,1.0158,0.77,-1.7,-0.5,-27.65,28.84,-30.62,0.259377,0.091464,0.01236,0.961333,0.0,0.0,0.0,0,0
2026-06-16 15:33:47.038,40376,L_Shank,0.0028,-0.017,1.0007,1.74,-1.18,-0.2,-5.53,14.33,-24.39,0.992065,-0.005005,-0.02588,0.122806,0.0,0.0,0.0,0,0
2026-06-16 15:33:47.039,40219,R_Ankle,0.0194,-0.0181,1.0105,0.76,-1.72,-0.49,-28.32,28.82,-29.71,0.259407,0.091464,0.01236,0.961333,0.0,0.0,0.0,0,0
2026-06-16 15:33:47.040,40337,L_Shank,0.0013,-0.0141,0.9959,1.75,-1.17,-0.2,-6.59,14.99,-23.45,0.992065,-0.004975,-0.02591,0.122806,0.0,0.0,0.0,0,0
2026-06-16 15:33:47.042,40239,R_Ankle,0.0263,-0.0156,1.0029,0.76,-1.71,-0.48,0.0,0.0,0.0,0.259377,0.091464,0.01236,0.961333,0.0,0.0,0.0,0,0
2026-06-16 15:33:47.043,40344,L_Ankle,0.1271,0.0202,0.9976,5.4,-0.82,-10.29,-54.99,-29.48,-36.02,0.982452,0.034364,-0.073336,0.167882,0.0,0.0,0.0,0,0
2026-06-16 15:33:47.044,40259,R_Ankle,0.0282,-0.022,1.0134,0.76,-1.7,-0.49,-27.97,29.78,-29.41,0.259377,0.091494,0.01236,0.961333,0.0,0.0,0.0,0,0
2026-06-16 15:33:47.045,40364,L_Ankle,0.1271,0.0207,1.0134,5.4,-0.82,-10.29,-55.49,-31.07,-35.87,0.982452,0.034364,-0.073305,0.167882,0.0,0.0,0.0,0,0
2026-06-16 15:33:47.046,40212,R_Hip,0.0481,0.0045,0.9885,0.26,-1.56,1.76,-20.87,26.71,-31.62,0.909268,-0.007263,-0.041932,-0.414014,0.0,0.0,0.0,0,0
2026-06-16 15:33:47.047,40384,L_Ankle,0.13,0.0222,1.0077,5.4,-0.82,-10.29,0.0,0.0,0.0,0.982452,0.034364,-0.073305,0.167882,0.0,0.0,0.0,0,0
2026-06-16 15:33:47.049,40232,R_Hip,0.0476,0.0103,0.9953,0.25,-1.55,1.77,0.0,0.0,0.0,0.909268,-0.007263,-0.041963,-0.413984,0.0,0.0,0.0,0,0
2026-06-16 15:33:47.050,40404,L_Ankle,0.1271,0.0178,0.9966,5.39,-0.83,-10.29,-53.37,-31.81,-35.83,0.982452,0.034364,-0.073305,0.167882,0.0,0.0,0.0,0,0
2026-06-16 15:33:47.051,40252,R_Hip,0.0565,0.0054,0.99,0.26,-1.55,1.77,-21.24,27.44,-32.99,0.909268,-0.007263,-0.041963,-0.413984,0.0,0.0,0.0,0,0
2026-06-16 15:33:47.052,40354,L_Hip,0.1264,-0.071,0.9929,-4.15,4.54,2.96,-11.74,24.91,-27.82,0.994629,-0.022004,-0.073885,0.068972,0.0,0.0,0.0,0,0
2026-06-16 15:33:47.053,40272,R_Hip,0.0486,0.0049,0.9905,0.24,-1.57,1.76,-20.69,27.63,-32.82,0.909268,-0.007294,-0.041963,-0.413984,0.0,0.0,0.0,0,0
2026-06-16 15:33:47.054,40374,L_Hip,0.12,-0.0705,0.9996,-4.15,4.54,2.98,-11.08,24.92,-27.25,0.994629,-0.022034,-0.073855,0.068972,0.0,0.0,0.0,0,0
2026-06-16 15:33:47.056,40394,L_Hip,0.1274,-0.0739,0.9866,-4.16,4.54,2.96,0.0,0.0,0.0,0.994629,-0.022065,-0.073855,0.068972,0.0,0.0,0.0,0,0
2026-06-16 15:33:47.056,40222,R_Ankle,0.0145,-0.0151,1.0048,0.77,-1.7,-0.49,-28.34,28.85,-31.56,0.259377,0.091464,0.012329,0.961333,0.0,0.0,0.0,0,0
2026-06-16 15:33:47.058,40414,L_Hip,0.1195,-0.0705,0.9938,-4.16,4.54,2.98,-11.07,24.28,-28.41,0.994629,-0.022065,-0.073855,0.068972,0.0,0.0,0.0,0,0
2026-06-16 15:33:47.058,40242,R_Ankle,0.0233,-0.0131,1.001,0.77,-1.7,-0.48,-29.67,31.05,-30.67,0.259377,0.091464,0.012329,0.961333,0.0,0.0,0.0,0,0
2026-06-16 15:33:47.060,40361,L_Shank,-0.001,-0.0141,0.9945,1.77,-1.16,-0.2,-6.23,13.64,-24.06,0.992065,-0.004975,-0.02591,0.122806,0.0,0.0,0.0,0,0
2026-06-16 15:33:47.060,40262,R_Ankle,0.017,-0.0235,1.0096,0.76,-1.71,-0.49,0.0,0.0,0.0,0.259377,0.091464,0.01236,0.961333,0.0,0.0,0.0,0,0
2026-06-16 15:33:47.061,40381,L_Shank,-0.0069,-0.0165,1.0031,1.76,-1.15,-0.2,0.0,0.0,0.0,0.992065,-0.004975,-0.025941,0.122806,0.0,0.0,0.0,0,0
2026-06-16 15:33:47.062,40282,R_Ankle,0.0228,-0.0072,1.0105,0.77,-1.7,-0.48,-29.34,31.06,-31.28,0.259377,0.091464,0.01236,0.961333,0.0,0.0,0.0,0,0
2026-06-16 15:33:47.063,40401,L_Shank,0.0067,-0.0268,0.9858,1.75,-1.18,-0.2,-5.19,15.0,-24.09,0.992065,-0.004975,-0.02591,0.122806,0.0,0.0,0.0,0,0
2026-06-16 15:33:47.065,40421,L_Shank,0.0057,-0.016,0.9954,1.75,-1.18,-0.2,-5.71,14.83,-24.24,0.992065,-0.004975,-0.02588,0.122806,0.0,0.0,0.0,0,0
2026-06-16 15:33:47.067,40366,L_Ankle,0.1335,0.0202,0.9962,5.41,-0.82,-10.29,-55.14,-30.72,-35.86,0.982452,0.034364,-0.073275,0.167882,0.0,0.0,0.0,0,0
2026-06-16 15:33:47.068,40386,L_Ankle,0.131,0.0124,0.9923,5.41,-0.82,-10.29,-54.47,-30.03,-36.86,0.982452,0.034364,-0.073275,0.167882,0.0,0.0,0.0,0,0
2026-06-16 15:33:47.070,40406,L_Ankle,0.1364,0.0212,0.9933,5.4,-0.83,-10.29,-54.47,-29.67,-36.52,0.982452,0.034333,-0.073275,0.167882,0.0,0.0,0.0,0,0
2026-06-16 15:33:47.071,40426,L_Ankle,0.1364,0.0173,0.9803,5.41,-0.81,-10.29,0.0,0.0,0.0,0.982452,0.034333,-0.073275,0.167882,0.0,0.0,0.0,0,0
2026-06-16 15:33:47.072,40238,R_Hip,0.0343,0.0089,1.0049,0.25,-1.56,1.77,-20.51,26.35,-33.33,0.909268,-0.007263,-0.041963,-0.414014,0.0,0.0,0.0,0,0
2026-06-16 15:33:47.073,40258,R_Hip,0.0367,0.0045,0.989,0.25,-1.57,1.77,0.0,0.0,0.0,0.909268,-0.007263,-0.041932,-0.414014,0.0,0.0,0.0,0,0
2026-06-16 15:33:47.074,40376,L_Hip,0.1264,-0.072,0.9885,-4.15,4.54,2.96,-13.26,25.36,-27.08,0.994629,-0.022065,-0.073855,0.068972,0.0,0.0,0.0,0,0
2026-06-16 15:33:47.075,40396,L_Hip,0.12,-0.073,0.99,-4.16,4.54,2.97,-12.54,25.71,-29.7,0.994629,-0.022065,-0.073855,0.068972,0.0,0.0,0.0,0,0
2026-06-16 15:33:47.075,40278,R_Hip,0.0377,-0.0003,0.9861,0.25,-1.56,1.78,-21.06,27.26,-32.82,0.909268,-0.007263,-0.041902,-0.414014,0.0,0.0,0.0,0,0
2026-06-16 15:33:47.077,40416,L_Hip,0.1274,-0.0636,0.9875,-4.14,4.54,2.96,0.0,0.0,0.0,0.994629,-0.022065,-0.073824,0.068972,0.0,0.0,0.0,0,0
2026-06-16 15:33:47.077,40298,R_Hip,0.0441,0.0157,0.9919,0.25,-1.55,1.77,-19.96,26.16,-32.13,0.909268,-0.007263,-0.041902,-0.414014,0.0,0.0,0.0,0,0
2026-06-16 15:33:47.079,40436,L_Hip,0.1303,-0.0705,0.9982,-4.15,4.54,2.97,-12.41,24.9,-28.4,0.994629,-0.022065,-0.073824,0.068972,0.0,0.0,0.0,0,0
2026-06-16 15:33:47.080,40239,R_Shank,0.0443,3.1396,1.0071,-0.09,-1.45,-8.42,-19.26,23.03,-20.62,0.955962,0.033265,-0.024628,0.290506,0.0,0.0,0.0,0,0
2026-06-16 15:33:47.081,40259,R_Shank,0.0497,-1.6136,1.0229,-0.09,-1.44,-8.41,0.0,0.0,0.0,0.955962,0.033296,-0.024598,0.290506,0.0,0.0,0.0,0,0
2026-06-16 15:33:47.083,40279,R_Shank,0.0404,-3.0256,1.0172,-0.09,-1.45,-8.41,-22.14,23.91,-20.73,0.955962,0.033265,-0.024598,0.290506,0.0,0.0,0.0,0,0
2026-06-16 15:33:47.084,40299,R_Shank,0.0389,0.5684,1.0095,-0.09,-1.45,-8.43,-21.81,24.24,-20.43,0.955962,0.033265,-0.024598,0.290506,0.0,0.0,0.0,0,0
2026-06-16 15:33:47.096,40262,R_Hip,0.0545,0.0059,1.0001,0.26,-1.57,1.77,-19.96,26.16,-32.82,0.909268,-0.007263,-0.041902,-0.414014,0.0,0.0,0.0,0,0
2026-06-16 15:33:47.097,40282,R_Hip,0.0353,0.0015,0.9991,0.25,-1.55,1.76,0.0,0.0,0.0,0.909238,-0.007263,-0.041902,-0.414014,0.0,0.0,0.0,0,0
2026-06-16 15:33:47.098,40302,R_Hip,0.0397,0.0059,0.9803,0.25,-1.55,1.76,-20.88,27.08,-33.33,0.909238,-0.007294,-0.041871,-0.414014,0.0,0.0,0.0,0,0
2026-06-16 15:33:47.100,40322,R_Hip,0.0436,0.0045,1.0001,0.26,-1.55,1.76,-19.42,27.81,-33.33,0.909238,-0.007294,-0.041841,-0.414045,0.0,0.0,0.0,0,0
2026-06-16 15:33:47.103,40267,R_Ankle,0.0263,-0.0156,0.9914,0.76,-1.7,-0.5,-29.01,29.15,-30.64,0.259377,0.091464,0.01236,0.961333,0.0,0.0,0.0,0,0
2026-06-16 15:33:47.104,40287,R_Ankle,0.0248,-0.0151,1.023,0.77,-1.71,-0.49,-29.35,27.87,-30.02,0.259377,0.091464,0.01236,0.961333,0.0,0.0,0.0,0,0
2026-06-16 15:33:47.106,40307,R_Ankle,0.0214,-0.0146,0.9847,0.77,-1.7,-0.49,-28.15,29.31,-30.17,0.259377,0.091464,0.01236,0.961333,0.0,0.0,0.0,0,0
2026-06-16 15:33:47.107,40411,L_Shank,0.0047,-0.0273,0.9849,1.74,-1.17,-0.18,-5.19,13.63,-23.45,0.992065,-0.004975,-0.02588,0.122837,0.0,0.0,0.0,0,0
2026-06-16 15:33:47.108,40327,R_Ankle,0.0194,-0.0121,0.9976,0.77,-1.7,-0.49,0.0,0.0,0.0,0.259377,0.091494,0.01236,0.961333,0.0,0.0,0.0,0,0
2026-06-16 15:33:47.109,40431,L_Shank,0.0018,-0.0023,0.9964,1.77,-1.14,-0.18,0.0,0.0,0.0,0.992065,-0.004975,-0.025849,0.122837,0.0,0.0,0.0,0,0
2026-06-16 15:33:47.111,40412,L_Shank,0.012,-0.0185,1.0084,1.77,-1.13,-0.19,-6.07,16.18,-23.32,0.992065,-0.004944,-0.025849,0.122837,0.0,0.0,0.0,0,0
2026-06-16 15:33:47.112,40432,L_Shank,-0.004,-0.019,0.9849,1.76,-1.14,-0.2,-6.06,15.85,-23.94,0.992065,-0.004975,-0.02588,0.122837,0.0,0.0,0.0,0,0
2026-06-16 15:33:47.121,40287,R_Hip,0.057,0.0069,0.9842,0.27,-1.55,1.77,-19.6,26.53,-32.13,0.909238,-0.007294,-0.041841,-0.414045,0.0,0.0,0.0,0,0
2026-06-16 15:33:47.124,40307,R_Hip,0.0451,0.0093,1.001,0.27,-1.54,1.77,0.0,0.0,0.0,0.909238,-0.007263,-0.041871,-0.414045,0.0,0.0,0.0,0,0
2026-06-16 15:33:47.125,40327,R_Hip,0.0491,0.004,0.9982,0.27,-1.55,1.76,-19.6,26.16,-32.47,0.909238,-0.007263,-0.041871,-0.414045,0.0,0.0,0.0,0,0
2026-06-16 15:33:47.127,40347,R_Hip,0.051,0.0059,0.9943,0.27,-1.55,1.78,-20.69,26.53,-32.48,0.909238,-0.007263,-0.041841,-0.414045,0.0,0.0,0.0,0,0
2026-06-16 15:33:47.139,40443,L_Hip,0.1166,-0.072,0.9841,-4.16,4.54,2.97,-10.88,25.73,-27.99,0.994629,-0.022065,-0.073824,0.068972,0.0,0.0,0.0,0,0
2026-06-16 15:33:47.141,40463,L_Hip,0.1161,-0.0651,0.9948,-4.13,4.54,2.99,-12.07,24.26,-28.98,0.994629,-0.022034,-0.073855,0.068972,0.0,0.0,0.0,0,0
2026-06-16 15:33:47.143,40483,L_Hip,0.1323,-0.0602,0.988,-4.13,4.55,2.98,0.0,0.0,0.0,0.994629,-0.022034,-0.073855,0.068972,0.0,0.0,0.0,0,0
2026-06-16 15:33:47.146,40503,L_Hip,0.1205,-0.0813,0.9885,-4.14,4.54,2.96,-12.24,25.38,-27.67,0.994629,-0.022034,-0.073824,0.068972,0.0,0.0,0.0,0,0
2026-06-16 15:33:47.153,40456,L_Ankle,0.1227,0.0202,0.9971,5.41,-0.81,-10.29,-54.11,-30.74,-36.86,0.982452,0.034333,-0.073305,0.167882,0.0,0.0,0.0,0,0
2026-06-16 15:33:47.155,40457,L_Ankle,0.1315,0.0183,0.9885,5.41,-0.82,-10.29,-54.29,-28.79,-35.67,0.982452,0.034333,-0.073336,0.167882,0.0,0.0,0.0,0,0
2026-06-16 15:33:47.158,40477,L_Ankle,0.129,0.0266,0.9885,5.4,-0.83,-10.29,-54.12,-30.74,-37.54,0.982452,0.034333,-0.073336,0.167882,0.0,0.0,0.0,0,0
2026-06-16 15:33:47.160,40497,L_Ankle,0.1237,0.0217,0.9914,5.41,-0.81,-10.3,0.0,0.0,0.0,0.982452,0.034333,-0.073305,0.167882,0.0,0.0,0.0,0,0
2026-06-16 15:33:47.163,40461,L_Shank,0.0057,-0.0219,0.9945,1.74,-1.18,-0.19,-6.25,15.32,-22.84,0.992065,-0.005005,-0.02588,0.122868,0.0,0.0,0.0,0,0
2026-06-16 15:33:47.165,40481,L_Shank,-0.0025,-0.0204,0.9801,1.74,-1.16,-0.19,0.0,0.0,0.0,0.992065,-0.004944,-0.02588,0.122868,0.0,0.0,0.0,0,0
2026-06-16 15:33:47.167,40501,L_Shank,0.0106,-0.0136,0.9902,1.74,-1.17,-0.19,-5.19,15.0,-23.78,0.992065,-0.004944,-0.025849,0.122868,0.0,0.0,0.0,0,0
2026-06-16 15:33:47.170,40521,L_Shank,-0.001,-0.0204,0.9954,1.74,-1.18,-0.19,-4.48,14.33,-24.4,0.992065,-0.004975,-0.025819,0.122868,0.0,0.0,0.0,0,0
2026-06-16 15:33:47.171,40335,R_Ankle,0.0145,-0.0225,0.9909,0.76,-1.71,-0.51,-27.82,28.04,-30.16,0.259346,0.091525,0.01236,0.961333,0.0,0.0,0.0,0,0
2026-06-16 15:33:47.173,40466,L_Hip,0.1171,-0.073,0.9924,-4.15,4.54,2.96,-12.75,24.89,-27.81,0.994629,-0.022004,-0.073824,0.068972,0.0,0.0,0.0,0,0
2026-06-16 15:33:47.174,40355,R_Ankle,0.0086,-0.022,1.0062,0.76,-1.7,-0.49,-28.65,30.41,-30.04,0.259377,0.091494,0.01236,0.961333,0.0,0.0,0.0,0,0
2026-06-16 15:33:47.176,40375,R_Ankle,0.0243,-0.0185,0.9986,0.76,-1.7,-0.48,0.0,0.0,0.0,0.259346,0.091464,0.01236,0.961333,0.0,0.0,0.0,0,0
2026-06-16 15:33:47.176,40486,L_Hip,0.1229,-0.0759,0.9977,-4.14,4.54,2.98,-12.06,25.55,-28.4,0.994629,-0.021973,-0.073824,0.068972,0.0,0.0,0.0,0,0
2026-06-16 15:33:47.178,40395,R_Ankle,0.0258,-0.022,0.9976,0.76,-1.71,-0.49,-28.14,29.61,-29.25,0.259377,0.091464,0.012329,0.961333,0.0,0.0,0.0,0,0
2026-06-16 15:33:47.178,40506,L_Hip,0.1254,-0.0666,0.9745,-4.16,4.54,2.98,-12.57,25.38,-28.25,0.994629,-0.022004,-0.073824,0.068972,0.0,0.0,0.0,0,0
2026-06-16 15:33:47.181,40526,L_Hip,0.1244,-0.0715,0.9774,-4.16,4.54,2.97,0.0,0.0,0.0,0.994629,-0.022004,-0.073824,0.068972,0.0,0.0,0.0,0,0
2026-06-16 15:33:47.181,40337,R_Hip,0.0461,0.0054,1.0044,0.26,-1.55,1.77,-20.87,26.71,-32.99,0.909238,-0.007263,-0.041871,-0.414014,0.0,0.0,0.0,0,0
2026-06-16 15:33:47.183,40357,R_Hip,0.0422,0.0123,0.9909,0.26,-1.57,1.77,0.0,0.0,0.0,0.909238,-0.007294,-0.041871,-0.414014,0.0,0.0,0.0,0,0
2026-06-16 15:33:47.183,40479,L_Ankle,0.13,0.0236,0.9837,5.39,-0.81,-10.29,-54.14,-29.32,-37.2,0.982452,0.034333,-0.073305,0.167882,0.0,0.0,0.0,0,0
2026-06-16 15:33:47.186,40377,R_Hip,0.0466,0.0069,0.9905,0.26,-1.58,1.77,-21.42,26.53,-32.14,0.909238,-0.007263,-0.041841,-0.414014,0.0,0.0,0.0,0,0
2026-06-16 15:33:47.186,40499,L_Ankle,0.1276,0.0183,0.988,5.4,-0.83,-10.29,-55.87,-32.14,-38.94,0.982452,0.034333,-0.073275,0.167882,0.0,0.0,0.0,0,0
2026-06-16 15:33:47.189,40397,R_Hip,0.0436,0.0045,0.9972,0.25,-1.55,1.77,-21.97,27.44,-32.31,0.909238,-0.007294,-0.041871,-0.414014,0.0,0.0,0.0,0,0
2026-06-16 15:33:47.189,40519,L_Ankle,0.1344,0.0119,0.9827,5.39,-0.81,-10.29,0.0,0.0,0.0,0.982452,0.034333,-0.073275,0.167882,0.0,0.0,0.0,0,0
2026-06-16 15:33:47.192,40539,L_Ankle,0.1305,0.0349,0.9798,5.41,-0.81,-10.29,-55.51,-29.65,-35.86,0.982452,0.034364,-0.073275,0.167882,0.0,0.0,0.0,0,0
2026-06-16 15:33:47.192,40352,R_Shank,0.0443,-1.1024,1.0114,-0.08,-1.48,-8.41,-20.95,24.37,-21.8,0.955962,0.033296,-0.024598,0.290506,0.0,0.0,0.0,0,0
2026-06-16 15:33:47.195,40486,L_Shank,0.0072,-0.0195,0.9998,1.76,-1.16,-0.19,-4.85,14.99,-23.16,0.992065,-0.004975,-0.025849,0.122898,0.0,0.0,0.0,0,0
2026-06-16 15:33:47.196,40372,R_Shank,0.0492,-2.6436,1.0066,-0.09,-1.46,-8.41,0.0,0.0,0.0,0.955962,0.033296,-0.024567,0.290536,0.0,0.0,0.0,0,0
2026-06-16 15:33:47.199,40506,L_Shank,-0.001,-0.02,0.9892,1.77,-1.15,-0.2,0.0,0.0,0.0,0.992065,-0.004944,-0.025849,0.122898,0.0,0.0,0.0,0,0
2026-06-16 15:33:47.200,40392,R_Shank,0.0507,2.2392,1.0234,-0.1,-1.45,-8.41,-21.45,23.23,-21.05,0.955962,0.033296,-0.024598,0.290536,0.0,0.0,0.0,0,0
2026-06-16 15:33:47.202,40526,L_Shank,-0.0006,-0.0146,0.9873,1.77,-1.16,-0.19,-6.41,15.84,-23.62,0.992065,-0.004975,-0.025849,0.122898,0.0,0.0,0.0,0,0
2026-06-16 15:33:47.203,40412,R_Shank,0.0365,-1.7432,1.0066,-0.09,-1.46,-8.41,-19.77,23.2,-20.76,0.955931,0.033296,-0.024598,0.290536,0.0,0.0,0.0,0,0
2026-06-16 15:33:47.205,40546,L_Shank,0.0076,-0.0229,0.9911,1.75,-1.16,-0.19,-5.36,15.17,-23.93,0.992065,-0.005005,-0.025849,0.122898,0.0,0.0,0.0,0,0
2026-06-16 15:33:47.206,40357,R_Ankle,0.0175,-0.02,0.9861,0.77,-1.72,-0.48,-28.82,29.61,-29.57,0.259377,0.091494,0.012329,0.961333,0.0,0.0,0.0,0,0
2026-06-16 15:33:47.208,40377,R_Ankle,0.0135,-0.0156,0.9976,0.77,-1.7,-0.48,-28.66,29.47,-30.64,0.259346,0.091494,0.012329,0.961333,0.0,0.0,0.0,0,0
2026-06-16 15:33:47.210,40397,R_Ankle,0.013,-0.0131,0.999,0.77,-1.7,-0.49,-28.31,29.46,-29.71,0.259346,0.091494,0.01236,0.961333,0.0,0.0,0.0,0,0
2026-06-16 15:33:47.212,40417,R_Ankle,0.0248,-0.0176,0.9986,0.77,-1.71,-0.5,0.0,0.0,0.0,0.259346,0.091494,0.012391,0.961333,0.0,0.0,0.0,0,0
2026-06-16 15:33:47.214,40362,R_Hip,0.053,0.0074,1.0044,0.25,-1.56,1.78,-21.42,26.16,-31.79,0.909238,-0.007294,-0.041841,-0.414014,0.0,0.0,0.0,0,0
2026-06-16 15:33:47.215,40382,R_Hip,0.0505,0.0113,0.9924,0.25,-1.56,1.77,0.0,0.0,0.0,0.909238,-0.007294,-0.041871,-0.414014,0.0,0.0,0.0,0,0
2026-06-16 15:33:47.217,40402,R_Hip,0.0431,0.0015,0.9962,0.27,-1.55,1.76,-19.96,28.72,-32.14,0.909238,-0.007263,-0.041871,-0.414014,0.0,0.0,0.0,0,0
2026-06-16 15:33:47.218,40422,R_Hip,0.0461,0.0098,0.9982,0.26,-1.55,1.79,-20.69,27.62,-31.8,0.909268,-0.007294,-0.041841,-0.414014,0.0,0.0,0.0,0,0
2026-06-16 15:33:47.220,40374,R_Shank,0.0399,3.1396,1.0215,-0.09,-1.45,-8.41,-20.58,23.04,-22.72,0.955931,0.033296,-0.024598,0.290536,0.0,0.0,0.0,0,0
2026-06-16 15:33:47.222,40394,R_Shank,0.0429,0.5684,1.0071,-0.08,-1.47,-8.43,-20.94,23.06,-20.9,0.955931,0.033326,-0.024567,0.290536,0.0,0.0,0.0,0,0
2026-06-16 15:33:47.223,40414,R_Shank,0.0424,-1.3548,1.0032,-0.09,-1.46,-8.42,-21.96,23.41,-20.89,0.955931,0.033326,-0.024567,0.290536,0.0,0.0,0.0,0,0
2026-06-16 15:33:47.225,40434,R_Shank,0.0355,-2.514,1.0066,-0.09,-1.45,-8.43,0.0,0.0,0.0,0.955931,0.033326,-0.024567,0.290536,0.0,0.0,0.0,0,0
2026-06-16 15:33:47.230,40535,L_Hip,0.1274,-0.073,1.0064,-4.16,4.53,2.96,-13.41,24.88,-28.67,0.994629,-0.022034,-0.073855,0.068972,0.0,0.0,0.0,0,0
2026-06-16 15:33:47.232,40555,L_Hip,0.12,-0.0715,0.9778,-4.15,4.54,2.98,-12.1,23.93,-27.52,0.994629,-0.022034,-0.073855,0.068972,0.0,0.0,0.0,0,0
2026-06-16 15:33:47.234,40575,L_Hip,0.122,-0.0744,0.9982,-4.12,4.54,2.97,0.0,0.0,0.0,0.994629,-0.022034,-0.073885,0.068972,0.0,0.0,0.0,0,0
2026-06-16 15:33:47.236,40595,L_Hip,0.1215,-0.07,0.9909,-4.16,4.54,2.97,-12.08,24.26,-28.69,0.994629,-0.022034,-0.073885,0.068972,0.0,0.0,0.0,0,0
2026-06-16 15:33:47.236,40402,R_Ankle,0.0175,-0.022,0.9952,0.77,-1.72,-0.48,-27.98,30.75,-31.27,0.259346,0.091464,0.012391,0.961333,0.0,0.0,0.0,0,0
2026-06-16 15:33:47.238,40536,L_Shank,0.0042,-0.0195,0.9806,1.77,-1.2,-0.19,-5.01,15.52,-24.56,0.992065,-0.004975,-0.025849,0.122929,0.0,0.0,0.0,0,0
2026-06-16 15:33:47.238,40422,R_Ankle,0.016,-0.0096,1.0096,0.75,-1.72,-0.48,-28.65,29.77,-29.41,0.259346,0.091494,0.012391,0.961333,0.0,0.0,0.0,0,0
2026-06-16 15:33:47.240,40556,L_Shank,-0.0025,-0.0165,1.0026,1.75,-1.16,-0.19,0.0,0.0,0.0,0.992065,-0.004975,-0.025819,0.122929,0.0,0.0,0.0,0,0
2026-06-16 15:33:47.240,40442,R_Ankle,0.014,-0.0126,1.0014,0.77,-1.71,-0.5,0.0,0.0,0.0,0.259346,0.091494,0.012391,0.961333,0.0,0.0,0.0,0,0
2026-06-16 15:33:47.242,40576,L_Shank,0.0028,-0.0224,0.9906,1.76,-1.16,-0.18,-3.97,14.82,-23.01,0.992035,-0.004975,-0.025819,0.122929,0.0,0.0,0.0,0,0
2026-06-16 15:33:47.242,40462,R_Ankle,0.0194,-0.0161,1.0053,0.77,-1.7,-0.48,-28.49,28.66,-29.24,0.259346,0.091464,0.012421,0.961333,0.0,0.0,0.0,0,0
2026-06-16 15:33:47.244,40596,L_Shank,-0.001,-0.0219,1.006,1.75,-1.17,-0.19,-4.49,15.33,-23.48,0.992035,-0.004944,-0.025819,0.122959,0.0,0.0,0.0,0,0
2026-06-16 15:33:47.246,40547,L_Ankle,0.1315,0.0236,0.9981,5.39,-0.83,-10.29,-54.28,-29.85,-35.67,0.982452,0.034333,-0.073275,0.167882,0.0,0.0,0.0,0,0
2026-06-16 15:33:47.248,40567,L_Ankle,0.1379,0.0315,0.9846,5.39,-0.81,-10.29,-53.92,-30.92,-36.35,0.982452,0.034364,-0.073275,0.167882,0.0,0.0,0.0,0,0
2026-06-16 15:33:47.249,40587,L_Ankle,0.1398,0.0183,0.9818,5.39,-0.83,-10.3,-52.88,-30.23,-35.99,0.982452,0.034333,-0.073244,0.167882,0.0,0.0,0.0,0,0
2026-06-16 15:33:47.251,40607,L_Ankle,0.1276,0.0153,0.9851,5.4,-0.8,-10.29,0.0,0.0,0.0,0.982452,0.034333,-0.073244,0.167913,0.0,0.0,0.0,0,0
2026-06-16 15:33:47.252,40556,L_Hip,0.1058,-0.0818,0.9914,-4.14,4.54,2.98,-11.55,26.04,-27.98,0.994629,-0.022034,-0.073885,0.068972,0.0,0.0,0.0,0,0
2026-06-16 15:33:47.254,40576,L_Hip,0.1249,-0.0744,0.9972,-4.14,4.54,2.98,-13.92,25.68,-27.94,0.994629,-0.022034,-0.073855,0.068972,0.0,0.0,0.0,0,0
2026-06-16 15:33:47.256,40557,L_Hip,0.1279,-0.0774,0.9972,-4.13,4.54,2.97,-12.06,25.55,-28.11,0.994629,-0.022034,-0.073855,0.068972,0.0,0.0,0.0,0,0
2026-06-16 15:33:47.257,40577,L_Hip,0.1239,-0.0685,0.9929,-4.15,4.54,2.98,0.0,0.0,0.0,0.994629,-0.022065,-0.073794,0.068972,0.0,0.0,0.0,0,0
2026-06-16 15:33:47.259,40424,R_Ankle,0.016,-0.0121,1.0225,0.76,-1.7,-0.49,-28.33,28.83,-30.32,0.259346,0.091494,0.012452,0.961333,0.0,0.0,0.0,0,0
2026-06-16 15:33:47.260,40561,L_Shank,0.0023,-0.0165,0.9878,1.76,-1.17,-0.19,-4.13,14.67,-24.72,0.992035,-0.004944,-0.025819,0.122959,0.0,0.0,0.0,0,0
2026-06-16 15:33:47.262,40444,R_Ankle,0.016,-0.0146,1.0158,0.76,-1.69,-0.5,-28.66,29.78,-30.34,0.259346,0.091464,0.012421,0.961333,0.0,0.0,0.0,0,0
2026-06-16 15:33:47.262,40581,L_Shank,0.0023,-0.0092,0.9906,1.76,-1.15,-0.19,0.0,0.0,0.0,0.992035,-0.004944,-0.025819,0.122959,0.0,0.0,0.0,0,0
2026-06-16 15:33:47.264,40464,R_Ankle,0.0184,-0.0181,0.9909,0.75,-1.71,-0.5,-28.32,28.83,-30.02,0.259377,0.091433,0.012452,0.961333,0.0,0.0,0.0,0,0
2026-06-16 15:33:47.265,40601,L_Shank,0.012,-0.0234,0.9858,1.76,-1.16,-0.19,-4.31,14.15,-24.24,0.992035,-0.004944,-0.025819,0.122959,0.0,0.0,0.0,0,0
2026-06-16 15:33:47.266,40484,R_Ankle,0.0155,-0.0161,1.0134,0.76,-1.71,-0.5,0.0,0.0,0.0,0.259377,0.091464,0.012421,0.961333,0.0,0.0,0.0,0,0
2026-06-16 15:33:47.267,40621,L_Shank,0.0072,-0.0229,0.9844,1.74,-1.16,-0.19,-5.88,15.0,-24.08,0.992035,-0.004944,-0.025819,0.12299,0.0,0.0,0.0,0,0
2026-06-16 15:33:47.269,40569,L_Ankle,0.131,0.0236,0.9914,5.39,-0.82,-10.29,-54.12,-29.32,-36.18,0.982452,0.034364,-0.073275,0.167882,0.0,0.0,0.0,0,0
2026-06-16 15:33:47.271,40589,L_Ankle,0.132,0.0207,0.9952,5.4,-0.81,-10.29,-53.55,-30.92,-35.32,0.982452,0.034333,-0.073275,0.167913,0.0,0.0,0.0,0,0
2026-06-16 15:33:47.271,40437,R_Hip,0.0441,0.0093,0.9909,0.25,-1.56,1.78,-19.96,26.53,-32.48,0.909268,-0.007294,-0.041871,-0.414014,0.0,0.0,0.0,0,0
2026-06-16 15:33:47.273,40457,R_Hip,0.0515,0.0069,1.0006,0.26,-1.55,1.77,0.0,0.0,0.0,0.909268,-0.007294,-0.041841,-0.414014,0.0,0.0,0.0,0,0
2026-06-16 15:33:47.274,40609,L_Ankle,0.1413,0.0197,0.9933,5.4,-0.81,-10.29,-54.82,-30.38,-37.21,0.982452,0.034333,-0.073275,0.167913,0.0,0.0,0.0,0,0
2026-06-16 15:33:47.275,40477,R_Hip,0.0496,0.0093,0.9958,0.27,-1.56,1.77,-21.42,26.16,-32.48,0.909268,-0.007294,-0.041871,-0.413984,0.0,0.0,0.0,0,0
2026-06-16 15:33:47.276,40629,L_Ankle,0.1227,0.0212,1.0,5.4,-0.8,-10.29,0.0,0.0,0.0,0.982452,0.034333,-0.073275,0.167913,0.0,0.0,0.0,0,0
2026-06-16 15:33:47.278,40497,R_Hip,0.0451,0.0147,0.9837,0.27,-1.57,1.77,-21.6,26.71,-32.65,0.909268,-0.007294,-0.041871,-0.413984,0.0,0.0,0.0,0,0
2026-06-16 15:33:47.278,40579,L_Hip,0.1239,-0.0739,0.9992,-4.16,4.54,2.98,-11.71,26.84,-27.54,0.994629,-0.022065,-0.073794,0.068972,0.0,0.0,0.0,0,0
2026-06-16 15:33:47.280,40442,R_Shank,0.0483,0.5684,1.0119,-0.11,-1.47,-8.42,-21.29,23.4,-20.6,0.955931,0.033326,-0.024567,0.290536,0.0,0.0,0.0,0,0
2026-06-16 15:33:47.280,40599,L_Hip,0.1249,-0.0759,0.987,-4.14,4.54,2.97,-12.08,24.9,-27.82,0.994629,-0.022065,-0.073794,0.068972,0.0,0.0,0.0,0,0
2026-06-16 15:33:47.283,40619,L_Hip,0.1239,-0.0705,0.9919,-4.16,4.54,2.98,-11.39,25.24,-28.41,0.994629,-0.022065,-0.073794,0.068972,0.0,0.0,0.0,0,0
2026-06-16 15:33:47.283,40462,R_Shank,0.0473,0.316,1.0114,-0.12,-1.48,-8.42,-20.6,23.37,-22.11,0.955931,0.033326,-0.024598,0.290536,0.0,0.0,0.0,0,0
2026-06-16 15:33:47.285,40482,R_Shank,0.0409,0.5684,1.0114,-0.1,-1.45,-8.41,-20.95,23.07,-19.7,0.955931,0.033296,-0.024598,0.290536,0.0,0.0,0.0,0,0
2026-06-16 15:33:47.285,40639,L_Hip,0.1323,-0.0754,0.9875,-4.16,4.55,2.99,-12.73,26.82,-27.23,0.994629,-0.022065,-0.073794,0.068972,0.0,0.0,0.0,0,0
2026-06-16 15:33:47.288,40502,R_Shank,0.0429,2.3688,1.0066,-0.09,-1.48,-8.41,-22.14,24.56,-21.93,0.955931,0.033296,-0.024628,0.290567,0.0,0.0,0.0,0,0
2026-06-16 15:33:47.288,40591,L_Ankle,0.1256,0.0212,1.0024,5.4,-0.82,-10.3,-53.44,-30.05,-37.87,0.982452,0.034333,-0.073275,0.167913,0.0,0.0,0.0,0,0
2026-06-16 15:33:47.291,40611,L_Ankle,0.1256,0.0163,0.988,5.41,-0.82,-10.3,-53.39,-31.1,-36.17,0.982452,0.034303,-0.073275,0.167913,0.0,0.0,0.0,0,0
2026-06-16 15:33:47.293,40592,L_Ankle,0.1271,0.0183,1.0067,5.39,-0.82,-10.29,-54.98,-29.84,-36.02,0.982452,0.034333,-0.073275,0.167913,0.0,0.0,0.0,0,0
2026-06-16 15:33:47.295,40612,L_Ankle,0.1335,0.0241,0.9899,5.39,-0.83,-10.28,-53.95,-30.93,-38.05,0.982452,0.034333,-0.073244,0.167913,0.0,0.0,0.0,0,0
2026-06-16 15:33:47.296,40462,R_Hip,0.0515,0.0035,0.9943,0.25,-1.56,1.77,-21.6,25.25,-31.28,0.909268,-0.007263,-0.041902,-0.413984,0.0,0.0,0.0,0,0
2026-06-16 15:33:47.298,40482,R_Hip,0.0422,0.0089,1.003,0.25,-1.57,1.77,0.0,0.0,0.0,0.909268,-0.007294,-0.041902,-0.413984,0.0,0.0,0.0,0,0
2026-06-16 15:33:47.299,40502,R_Hip,0.0471,0.0079,0.9909,0.25,-1.57,1.77,-19.78,24.89,-33.67,0.909268,-0.007324,-0.041902,-0.413984,0.0,0.0,0.0,0,0
2026-06-16 15:33:47.301,40522,R_Hip,0.051,0.0123,0.9972,0.27,-1.57,1.77,-19.05,25.62,-33.33,0.909268,-0.007324,-0.041902,-0.413984,0.0,0.0,0.0,0,0
2026-06-16 15:33:47.302,40464,R_Shank,0.0365,2.2392,1.0152,-0.09,-1.45,-8.42,-21.08,22.23,-21.66,0.955931,0.033265,-0.024628,0.290567,0.0,0.0,0.0,0,0
2026-06-16 15:33:47.304,40484,R_Shank,0.0434,0.9572,1.0205,-0.09,-1.45,-8.41,-21.28,23.72,-21.8,0.955931,0.033265,-0.024628,0.290567,0.0,0.0,0.0,0,0
2026-06-16 15:33:47.306,40504,R_Shank,0.035,1.4688,1.0176,-0.09,-1.48,-8.41,-21.3,24.39,-20.89,0.955931,0.033265,-0.024628,0.290567,0.0,0.0,0.0,0,0
2026-06-16 15:33:47.307,40611,L_Shank,0.0067,-0.0258,0.9988,1.76,-1.17,-0.19,-4.32,14.49,-23.62,0.992035,-0.004944,-0.025819,0.12299,0.0,0.0,0.0,0,0
2026-06-16 15:33:47.308,40524,R_Shank,0.0453,2.4984,1.0109,-0.09,-1.46,-8.41,0.0,0.0,0.0,0.955931,0.033265,-0.024628,0.290567,0.0,0.0,0.0,0,0
2026-06-16 15:33:47.310,40631,L_Shank,0.0101,-0.0258,0.9921,1.76,-1.16,-0.2,-5.18,15.01,-24.4,0.992035,-0.004913,-0.025819,0.12299,0.0,0.0,0.0,0,0
2026-06-16 15:33:47.310,40469,R_Ankle,0.0101,-0.0136,1.0115,0.77,-1.7,-0.5,-28.84,29.95,-31.73,0.259377,0.091433,0.012452,0.961333,0.0,0.0,0.0,0,0
2026-06-16 15:33:47.312,40651,L_Shank,-0.0045,-0.0126,0.9906,1.76,-1.15,-0.17,0.0,0.0,0.0,0.992035,-0.004944,-0.025819,0.12299,0.0,0.0,0.0,0,0
2026-06-16 15:33:47.313,40489,R_Ankle,0.0179,-0.0265,1.0129,0.78,-1.7,-0.48,-27.65,29.48,-31.25,0.259377,0.091403,0.012452,0.961333,0.0,0.0,0.0,0,0
2026-06-16 15:33:47.314,40671,L_Shank,0.0101,-0.0126,0.9762,1.77,-1.16,-0.17,-5.7,14.51,-25.17,0.992035,-0.004975,-0.025849,0.12299,0.0,0.0,0.0,0,0
2026-06-16 15:33:47.315,40509,R_Ankle,0.0224,-0.0161,1.0101,0.77,-1.7,-0.49,-28.14,30.26,-29.88,0.259377,0.091403,0.012452,0.961333,0.0,0.0,0.0,0,0
2026-06-16 15:33:47.316,40614,L_Ankle,0.1276,0.0158,0.9942,5.4,-0.81,-10.3,-54.83,-30.02,-37.21,0.982452,0.034303,-0.073244,0.167913,0.0,0.0,0.0,0,0
2026-06-16 15:33:47.317,40529,R_Ankle,0.0184,-0.0101,0.999,0.76,-1.71,-0.49,0.0,0.0,0.0,0.259377,0.091403,0.012452,0.961333,0.0,0.0,0.0,0,0
2026-06-16 15:33:47.318,40634,L_Ankle,0.1418,0.0158,1.0067,5.41,-0.82,-10.29,0.0,0.0,0.0,0.982452,0.034303,-0.073275,0.167913,0.0,0.0,0.0,0,0
2026-06-16 15:33:47.321,40654,L_Ankle,0.1354,0.0197,0.9957,5.41,-0.81,-10.3,-54.82,-30.02,-36.87,0.982452,0.034303,-0.073244,0.167913,0.0,0.0,0.0,0,0
2026-06-16 15:33:47.321,40487,R_Hip,0.0387,-0.0003,1.0116,0.25,-1.56,1.78,-20.87,26.71,-32.65,0.909268,-0.007324,-0.041902,-0.413984,0.0,0.0,0.0,0,0
2026-06-16 15:33:47.323,40674,L_Ankle,0.1276,0.0163,0.9861,5.39,-0.81,-10.29,-54.45,-30.73,-36.53,0.982452,0.034303,-0.073244,0.167913,0.0,0.0,0.0,0,0
2026-06-16 15:33:47.323,40507,R_Hip,0.0515,0.0191,1.0068,0.25,-1.55,1.78,0.0,0.0,0.0,0.909268,-0.007355,-0.041902,-0.413984,0.0,0.0,0.0,0,0
2026-06-16 15:33:47.325,40624,L_Hip,0.1283,-0.0749,0.9933,-4.15,4.54,2.97,-11.54,25.72,-28.56,0.994629,-0.022095,-0.073794,0.068972,0.0,0.0,0.0,0,0
2026-06-16 15:33:47.325,40527,R_Hip,0.0466,0.0108,1.0025,0.25,-1.54,1.77,-19.6,27.62,-32.48,0.909268,-0.007324,-0.041871,-0.413984,0.0,0.0,0.0,0,0
2026-06-16 15:33:47.327,40644,L_Hip,0.1215,-0.0749,0.9953,-4.14,4.53,2.97,0.0,0.0,0.0,0.994629,-0.022065,-0.073794,0.068972,0.0,0.0,0.0,0,0
2026-06-16 15:33:47.328,40547,R_Hip,0.0515,0.0069,1.0025,0.25,-1.58,1.77,-19.42,26.34,-32.65,0.909268,-0.007324,-0.041902,-0.413984,0.0,0.0,0.0,0,0
2026-06-16 15:33:47.329,40664,L_Hip,0.1274,-0.0617,0.9895,-4.16,4.55,2.97,-11.4,25.56,-27.25,0.994629,-0.022065,-0.073824,0.068972,0.0,0.0,0.0,0,0
2026-06-16 15:33:47.331,40684,L_Hip,0.121,-0.0646,0.9977,-4.15,4.54,2.97,-12.26,24.1,-28.25,0.994629,-0.022095,-0.073855,0.068972,0.0,0.0,0.0,0,0
2026-06-16 15:33:47.344,40510,R_Shank,0.0355,-2.0024,1.01,-0.09,-1.45,-8.43,-21.1,22.89,-21.05,0.955931,0.033265,-0.024659,0.290567,0.0,0.0,0.0,0,0
2026-06-16 15:33:47.346,40530,R_Shank,0.0419,0.5684,0.9994,-0.1,-1.46,-8.43,-19.76,23.85,-21.96,0.955931,0.033296,-0.024628,0.290567,0.0,0.0,0.0,0,0
2026-06-16 15:33:47.347,40550,R_Shank,0.0419,2.3688,1.0061,-0.09,-1.47,-8.41,0.0,0.0,0.0,0.955931,0.033296,-0.024628,0.290567,0.0,0.0,0.0,0,0
2026-06-16 15:33:47.349,40570,R_Shank,0.0389,3.2692,0.9975,-0.09,-1.47,-8.41,-22.13,22.92,-19.84,0.955931,0.033296,-0.024628,0.290567,0.0,0.0,0.0,0,0
2026-06-16 15:33:47.354,40659,L_Ankle,0.1369,0.0139,0.9899,5.41,-0.82,-10.29,-54.11,-30.74,-36.86,0.982452,0.034303,-0.073244,0.167913,0.0,0.0,0.0,0,0
2026-06-16 15:33:47.356,40679,L_Ankle,0.1271,0.0139,0.988,5.4,-0.82,-10.29,0.0,0.0,0.0,0.982452,0.034272,-0.073244,0.167913,0.0,0.0,0.0,0,0
2026-06-16 15:33:47.358,40699,L_Ankle,0.1388,0.0256,0.9995,5.41,-0.82,-10.3,-55.0,-30.55,-37.39,0.982452,0.034272,-0.073244,0.167913,0.0,0.0,0.0,0,0
2026-06-16 15:33:47.360,40719,L_Ankle,0.1281,0.0222,1.0,5.41,-0.83,-10.3,-54.95,-32.32,-36.37,0.982452,0.034242,-0.073275,0.167943,0.0,0.0,0.0,0,0
2026-06-16 15:33:47.361,40661,L_Shank,0.0125,-0.016,0.9758,1.76,-1.16,-0.19,-4.85,15.32,-22.85,0.992035,-0.004975,-0.025849,0.12302,0.0,0.0,0.0,0,0
2026-06-16 15:33:47.364,40681,L_Shank,0.0091,-0.0224,0.9729,1.75,-1.17,-0.2,-5.9,15.32,-22.53,0.992035,-0.004975,-0.025849,0.12302,0.0,0.0,0.0,0,0
2026-06-16 15:33:47.365,40701,L_Shank,0.0028,-0.019,0.9858,1.75,-1.16,-0.21,0.0,0.0,0.0,0.992035,-0.004944,-0.025849,0.123051,0.0,0.0,0.0,0,0
2026-06-16 15:33:47.367,40721,L_Shank,0.0081,-0.0278,0.9844,1.74,-1.16,-0.2,-5.02,14.48,-23.3,0.992035,-0.004944,-0.02588,0.123051,0.0,0.0,0.0,0,0
2026-06-16 15:33:47.369,40669,L_Hip,0.1215,-0.07,0.9909,-4.15,4.54,2.97,-12.9,25.37,-28.53,0.994629,-0.022095,-0.073855,0.068972,0.0,0.0,0.0,0,0
2026-06-16 15:33:47.371,40689,L_Hip,0.12,-0.0646,0.9929,-4.16,4.54,2.97,0.0,0.0,0.0,0.994629,-0.022065,-0.073824,0.068972,0.0,0.0,0.0,0,0
2026-06-16 15:33:47.371,40537,R_Hip,0.0387,0.0215,0.9861,0.25,-1.56,1.77,-20.15,28.18,-33.68,0.909268,-0.007355,-0.041902,-0.413984,0.0,0.0,0.0,0,0
2026-06-16 15:33:47.373,40557,R_Hip,0.052,0.0089,1.0035,0.25,-1.56,1.77,0.0,0.0,0.0,0.909268,-0.007355,-0.041871,-0.413984,0.0,0.0,0.0,0,0
2026-06-16 15:33:47.373,40709,L_Hip,0.1288,-0.0784,0.9948,-4.16,4.54,2.98,-12.41,24.58,-28.68,0.994629,-0.022065,-0.073824,0.068972,0.0,0.0,0.0,0,0
2026-06-16 15:33:47.376,40577,R_Hip,0.0481,0.0049,0.9967,0.26,-1.55,1.76,-21.06,26.53,-32.14,0.909268,-0.007355,-0.041871,-0.413984,0.0,0.0,0.0,0,0
2026-06-16 15:33:47.376,40729,L_Hip,0.1171,-0.0784,1.0016,-4.16,4.55,2.99,-12.57,25.06,-28.25,0.994629,-0.022034,-0.073824,0.068972,0.0,0.0,0.0,0,0
2026-06-16 15:33:47.377,40597,R_Hip,0.0515,0.0001,1.0001,0.27,-1.55,1.77,-19.41,25.24,-31.27,0.909268,-0.007355,-0.041871,-0.413984,0.0,0.0,0.0,0,0
2026-06-16 15:33:47.382,40686,L_Shank,0.0042,-0.0229,1.0017,1.75,-1.17,-0.19,-5.89,15.33,-23.46,0.992035,-0.004944,-0.02588,0.123051,0.0,0.0,0.0,0,0
2026-06-16 15:33:47.384,40706,L_Shank,0.0125,-0.0229,0.9806,1.76,-1.18,-0.19,-5.01,14.15,-23.92,0.992035,-0.004944,-0.02588,0.123051,0.0,0.0,0.0,0,0
2026-06-16 15:33:47.386,40726,L_Shank,0.0003,-0.0234,0.9791,1.75,-1.15,-0.2,0.0,0.0,0.0,0.992035,-0.004975,-0.02591,0.123051,0.0,0.0,0.0,0,0
2026-06-16 15:33:47.388,40746,L_Shank,0.0062,-0.0248,0.9858,1.74,-1.17,-0.21,-5.36,14.49,-23.92,0.992035,-0.005005,-0.02591,0.123051,0.0,0.0,0.0,0,0
2026-06-16 15:33:47.394,40560,R_Ankle,0.016,-0.0141,1.0034,0.75,-1.71,-0.49,-27.63,30.1,-30.02,0.259346,0.091372,0.012452,0.961333,0.0,0.0,0.0,0,0
2026-06-16 15:33:47.396,40580,R_Ankle,0.0165,-0.0161,1.0014,0.77,-1.72,-0.5,-27.81,28.99,-29.86,0.259346,0.091403,0.012452,0.961333,0.0,0.0,0.0,0,0
2026-06-16 15:33:47.398,40600,R_Ankle,0.0233,-0.0106,1.011,0.76,-1.71,-0.5,-28.15,29.95,-30.49,0.259377,0.091403,0.012482,0.961333,0.0,0.0,0.0,0,0
2026-06-16 15:33:47.399,40703,L_Ankle,0.1344,0.0251,1.0038,5.4,-0.81,-10.29,-54.12,-30.03,-36.86,0.982452,0.034242,-0.073275,0.167943,0.0,0.0,0.0,0,0
2026-06-16 15:33:47.400,40620,R_Ankle,0.0243,-0.0136,1.0029,0.75,-1.71,-0.47,0.0,0.0,0.0,0.259346,0.091403,0.012452,0.961333,0.0,0.0,0.0,0,0
2026-06-16 15:33:47.402,40723,L_Ankle,0.1251,0.0207,0.9813,5.4,-0.81,-10.29,0.0,0.0,0.0,0.982452,0.034272,-0.073275,0.167913,0.0,0.0,0.0,0,0
2026-06-16 15:33:47.403,40562,R_Hip,0.0486,0.0098,0.9991,0.26,-1.57,1.78,-21.06,26.17,-33.85,0.909268,-0.007355,-0.041871,-0.413984,0.0,0.0,0.0,0,0
2026-06-16 15:33:47.405,40743,L_Ankle,0.1227,0.0241,0.9899,5.41,-0.82,-10.29,-54.44,-30.38,-35.51,0.982452,0.034272,-0.073275,0.167943,0.0,0.0,0.0,0,0
2026-06-16 15:33:47.406,40582,R_Hip,0.0491,0.0045,0.9755,0.25,-1.56,1.78,0.0,0.0,0.0,0.909268,-0.007355,-0.041871,-0.413984,0.0,0.0,0.0,0,0
2026-06-16 15:33:47.407,40763,L_Ankle,0.1369,0.0188,0.9904,5.41,-0.83,-10.28,-53.22,-30.93,-36.33,0.982452,0.034272,-0.073275,0.167943,0.0,0.0,0.0,0,0
2026-06-16 15:33:47.408,40602,R_Hip,0.0456,0.0093,0.9962,0.26,-1.57,1.77,-20.51,27.44,-31.62,0.909268,-0.007355,-0.041871,-0.413984,0.0,0.0,0.0,0,0
2026-06-16 15:33:47.410,40714,L_Hip,0.1283,-0.0725,0.9938,-4.15,4.53,2.97,-11.91,24.75,-28.26,0.994629,-0.022034,-0.073824,0.068972,0.0,0.0,0.0,0,0
2026-06-16 15:33:47.410,40622,R_Hip,0.0451,0.0049,0.99,0.25,-1.58,1.77,-22.15,26.89,-32.82,0.909268,-0.007355,-0.041871,-0.413984,0.0,0.0,0.0,0,0
2026-06-16 15:33:47.412,40734,L_Hip,0.1244,-0.072,0.9929,-4.14,4.54,2.96,0.0,0.0,0.0,0.994629,-0.022065,-0.073824,0.068972,0.0,0.0,0.0,0,0
2026-06-16 15:33:47.414,40754,L_Hip,0.1244,-0.0793,0.9992,-4.15,4.54,2.97,-12.07,25.55,-27.82,0.994629,-0.022095,-0.073824,0.068972,0.0,0.0,0.0,0,0
2026-06-16 15:33:47.416,40774,L_Hip,0.1288,-0.072,0.9914,-4.14,4.54,2.97,-11.39,25.24,-28.12,0.994629,-0.022095,-0.073824,0.068972,0.0,0.0,0.0,0,0
2026-06-16 15:33:47.417,40582,R_Ankle,0.0224,-0.019,1.0048,0.76,-1.7,-0.49,-28.84,28.99,-30.48,0.259346,0.091403,0.012452,0.961333,0.0,0.0,0.0,0,0
2026-06-16 15:33:47.418,40602,R_Ankle,0.0091,-0.02,1.0062,0.77,-1.71,-0.5,-27.8,30.91,-30.8,0.259346,0.091403,0.012421,0.961333,0.0,0.0,0.0,0,0
2026-06-16 15:33:47.420,40622,R_Ankle,0.0228,-0.0141,1.0019,0.76,-1.7,-0.48,-28.51,28.68,-31.09,0.259346,0.091372,0.012452,0.961364,0.0,0.0,0.0,0,0
2026-06-16 15:33:47.422,40642,R_Ankle,0.0106,-0.0126,1.0153,0.75,-1.7,-0.49,-27.47,28.67,-29.85,0.259346,0.091403,0.012452,0.961364,0.0,0.0,0.0,0,0
2026-06-16 15:33:47.423,40726,L_Ankle,0.133,0.0222,0.9794,5.41,-0.81,-10.29,-54.82,-29.67,-36.53,0.982452,0.034272,-0.073275,0.167943,0.0,0.0,0.0,0,0
2026-06-16 15:33:47.424,40746,L_Ankle,0.1349,0.0192,1.0101,5.39,-0.81,-10.29,0.0,0.0,0.0,0.982452,0.034303,-0.073305,0.167943,0.0,0.0,0.0,0,0
2026-06-16 15:33:47.426,40766,L_Ankle,0.1344,0.0246,0.9899,5.4,-0.81,-10.29,-55.36,-30.19,-37.73,0.982452,0.034303,-0.073275,0.167943,0.0,0.0,0.0,0,0
2026-06-16 15:33:47.428,40786,L_Ankle,0.1256,0.0173,0.9842,5.41,-0.81,-10.29,-54.95,-31.25,-35.35,0.982452,0.034303,-0.073305,0.167943,0.0,0.0,0.0,0,0
2026-06-16 15:33:47.432,40736,L_Shank,0.0052,-0.0209,0.9834,1.74,-1.16,-0.21,-5.01,13.82,-24.54,0.992035,-0.004975,-0.02591,0.123051,0.0,0.0,0.0,0,0
2026-06-16 15:33:47.434,40599,R_Shank,0.0429,2.1096,0.997,-0.1,-1.45,-8.43,-21.11,23.23,-21.05,0.955931,0.033265,-0.024628,0.290597,0.0,0.0,0.0,0,0
2026-06-16 15:33:47.435,40756,L_Shank,0.0072,-0.0253,0.993,1.75,-1.16,-0.2,-5.02,14.49,-23.62,0.992035,-0.005005,-0.02591,0.123051,0.0,0.0,0.0,0,0
2026-06-16 15:33:47.437,40776,L_Shank,-0.0006,-0.0209,0.9964,1.76,-1.15,-0.19,0.0,0.0,0.0,0.992035,-0.005005,-0.025941,0.123081,0.0,0.0,0.0,0,0
2026-06-16 15:33:47.437,40619,R_Shank,0.0512,-1.8728,1.0196,-0.09,-1.45,-8.43,-21.42,22.23,-21.66,0.955931,0.033296,-0.024628,0.290597,0.0,0.0,0.0,0,0
2026-06-16 15:33:47.439,40796,L_Shank,0.0013,-0.0263,0.9906,1.74,-1.16,-0.19,-5.18,15.34,-24.4,0.992035,-0.005005,-0.025941,0.123081,0.0,0.0,0.0,0,0
2026-06-16 15:33:47.439,40639,R_Shank,0.0384,2.2392,1.0061,-0.09,-1.46,-8.43,0.0,0.0,0.0,0.955931,0.033296,-0.024628,0.290567,0.0,0.0,0.0,0,0
2026-06-16 15:33:47.441,40659,R_Shank,0.0448,3.2692,1.0095,-0.09,-1.46,-8.41,-21.61,23.07,-21.2,0.955931,0.033296,-0.024628,0.290597,0.0,0.0,0.0,0,0
2026-06-16 15:33:47.456,40622,R_Shank,0.0507,-0.7136,1.0066,-0.09,-1.45,-8.42,-21.62,23.07,-20.59,0.955931,0.033296,-0.024598,0.290597,0.0,0.0,0.0,0,0
2026-06-16 15:33:47.458,40761,L_Shank,0.0028,-0.0283,0.9806,1.75,-1.16,-0.18,-4.83,15.35,-25.03,0.992035,-0.005036,-0.025971,0.123081,0.0,0.0,0.0,0,0
2026-06-16 15:33:47.459,40642,R_Shank,0.0429,-1.7432,1.0133,-0.09,-1.46,-8.41,-20.61,24.04,-21.5,0.955931,0.033265,-0.024628,0.290597,0.0,0.0,0.0,0,0
2026-06-16 15:33:47.461,40781,L_Shank,-0.0006,-0.0244,0.9887,1.76,-1.17,-0.19,-5.37,15.16,-23.31,0.992035,-0.005036,-0.025941,0.123081,0.0,0.0,0.0,0,0
2026-06-16 15:33:47.461,40662,R_Shank,0.0458,-2.514,1.0056,-0.1,-1.46,-8.41,0.0,0.0,0.0,0.955931,0.033265,-0.024628,0.290597,0.0,0.0,0.0,0,0
2026-06-16 15:33:47.463,40801,L_Shank,0.0033,-0.0234,0.9887,1.75,-1.16,-0.19,0.0,0.0,0.0,0.992035,-0.005036,-0.025941,0.123081,0.0,0.0,0.0,0,0
2026-06-16 15:33:47.464,40682,R_Shank,0.0483,2.3688,1.0056,-0.09,-1.46,-8.42,-21.3,23.73,-20.29,0.955931,0.033265,-0.024659,0.290597,0.0,0.0,0.0,0,0
2026-06-16 15:33:47.465,40821,L_Shank,-0.0059,-0.0248,1.0026,1.75,-1.17,-0.19,-5.71,13.81,-24.22,0.992035,-0.005036,-0.025941,0.123112,0.0,0.0,0.0,0,0
2026-06-16 15:33:47.467,40771,L_Ankle,0.1325,0.0212,0.9933,5.39,-0.83,-10.3,-54.99,-29.84,-36.36,0.982452,0.034303,-0.073305,0.167943,0.0,0.0,0.0,0,0
2026-06-16 15:33:47.468,40791,L_Ankle,0.1339,0.0276,0.9918,5.4,-0.8,-10.32,0.0,0.0,0.0,0.982452,0.034272,-0.073305,0.167943,0.0,0.0,0.0,0,0
2026-06-16 15:33:47.471,40811,L_Ankle,0.1276,0.0251,0.9957,5.39,-0.81,-10.3,-54.26,-30.91,-35.67,0.982452,0.034272,-0.073305,0.167943,0.0,0.0,0.0,0,0
2026-06-16 15:33:47.472,40637,R_Hip,0.0372,0.0069,0.9876,0.27,-1.54,1.78,-20.51,27.44,-33.68,0.909268,-0.007324,-0.041871,-0.413984,0.0,0.0,0.0,0,0
2026-06-16 15:33:47.473,40831,L_Ankle,0.1315,0.0158,0.9962,5.4,-0.82,-10.29,-53.58,-30.22,-36.0,0.982452,0.034272,-0.073305,0.167943,0.0,0.0,0.0,0,0
2026-06-16 15:33:47.474,40657,R_Hip,0.0535,0.0015,0.9943,0.26,-1.56,1.76,0.0,0.0,0.0,0.909268,-0.007324,-0.041841,-0.413984,0.0,0.0,0.0,0,0
2026-06-16 15:33:47.475,40677,R_Hip,0.0456,0.0079,0.9909,0.26,-1.56,1.77,-19.41,26.34,-32.3,0.909268,-0.007355,-0.041841,-0.413984,0.0,0.0,0.0,0,0
2026-06-16 15:33:47.478,40781,L_Hip,0.1293,-0.0764,0.9929,-4.15,4.54,2.98,-12.9,25.37,-28.53,0.994629,-0.022065,-0.073824,0.068972,0.0,0.0,0.0,0,0
2026-06-16 15:33:47.479,40697,R_Hip,0.0535,0.002,1.002,0.25,-1.55,1.77,-20.33,26.16,-31.79,0.909268,-0.007355,-0.041841,-0.413984,0.0,0.0,0.0,0,0
2026-06-16 15:33:47.480,40801,L_Hip,0.1264,-0.0769,0.9861,-4.15,4.54,2.97,0.0,0.0,0.0,0.994629,-0.022095,-0.073824,0.068972,0.0,0.0,0.0,0,0
2026-06-16 15:33:47.482,40821,L_Hip,0.1254,-0.0735,1.0035,-4.14,4.55,2.96,-11.91,25.07,-27.68,0.994629,-0.022095,-0.073824,0.068972,0.0,0.0,0.0,0,0
2026-06-16 15:33:47.483,40841,L_Hip,0.1269,-0.0749,0.9929,-4.16,4.54,2.97,-11.38,25.88,-27.83,0.994629,-0.022095,-0.073855,0.068972,0.0,0.0,0.0,0,0
2026-06-16 15:33:47.496,40662,R_Hip,0.0491,0.0157,0.9953,0.25,-1.55,1.77,-21.24,27.08,-32.31,0.909268,-0.007355,-0.041841,-0.413984,0.0,0.0,0.0,0,0
2026-06-16 15:33:47.497,40682,R_Hip,0.0402,0.0064,0.9996,0.25,-1.57,1.77,0.0,0.0,0.0,0.909268,-0.007324,-0.041841,-0.413984,0.0,0.0,0.0,0,0
2026-06-16 15:33:47.500,40702,R_Hip,0.0466,0.0069,0.9943,0.25,-1.56,1.78,-19.59,24.7,-31.44,0.909268,-0.007294,-0.041841,-0.413984,0.0,0.0,0.0,0,0
2026-06-16 15:33:47.500,40804,L_Hip,0.1225,-0.0725,0.9827,-4.14,4.54,2.99,-12.59,24.09,-28.53,0.994629,-0.022095,-0.073855,0.068972,0.0,0.0,0.0,0,0
2026-06-16 15:33:47.503,40824,L_Hip,0.1298,-0.0739,0.9822,-4.14,4.55,2.97,0.0,0.0,0.0,0.994629,-0.022095,-0.073855,0.068972,0.0,0.0,0.0,0,0
2026-06-16 15:33:47.503,40722,R_Hip,0.0466,0.0054,1.0078,0.25,-1.56,1.78,-20.33,27.26,-33.5,0.909268,-0.007324,-0.041841,-0.413984,0.0,0.0,0.0,0,0
2026-06-16 15:33:47.505,40844,L_Hip,0.118,-0.07,0.9982,-4.15,4.54,2.96,-13.42,25.52,-27.51,0.994629,-0.022126,-0.073885,0.068972,0.0,0.0,0.0,0,0
2026-06-16 15:33:47.506,40672,R_Ankle,0.0233,-0.0156,1.0105,0.77,-1.7,-0.5,-27.31,28.52,-30.31,0.259346,0.091372,0.012452,0.961364,0.0,0.0,0.0,0,0
2026-06-16 15:33:47.507,40864,L_Hip,0.1342,-0.0626,0.9972,-4.14,4.55,2.98,-12.58,24.74,-28.54,0.994629,-0.022126,-0.073885,0.069002,0.0,0.0,0.0,0,0
2026-06-16 15:33:47.510,40692,R_Ankle,0.0194,-0.019,0.9933,0.76,-1.71,-0.5,-29.16,29.61,-29.26,0.259346,0.091372,0.012482,0.961364,0.0,0.0,0.0,0,0
2026-06-16 15:33:47.511,40811,L_Shank,0.0072,-0.0097,0.9988,1.76,-1.16,-0.2,-6.24,15.33,-23.46,0.992035,-0.005036,-0.025941,0.123112,0.0,0.0,0.0,0,0
2026-06-16 15:33:47.514,40712,R_Ankle,0.0189,-0.02,0.9976,0.76,-1.7,-0.51,-27.97,28.5,-29.08,0.259346,0.091372,0.012482,0.961333,0.0,0.0,0.0,0,0
2026-06-16 15:33:47.515,40831,L_Shank,-0.001,-0.0214,0.993,1.77,-1.16,-0.19,-5.71,15.84,-23.63,0.992035,-0.005066,-0.025941,0.123112,0.0,0.0,0.0,0,0
2026-06-16 15:33:47.517,40732,R_Ankle,0.0145,-0.0161,1.0038,0.76,-1.71,-0.49,-30.04,28.51,-31.26,0.259346,0.091372,0.012482,0.961364,0.0,0.0,0.0,0,0
2026-06-16 15:33:47.517,40851,L_Shank,0.0116,-0.018,0.9868,1.75,-1.16,-0.19,-4.84,13.98,-24.08,0.992035,-0.005066,-0.02591,0.123142,0.0,0.0,0.0,0,0
2026-06-16 15:33:47.519,40871,L_Shank,0.0091,-0.0209,0.9762,1.74,-1.17,-0.19,0.0,0.0,0.0,0.992004,-0.005097,-0.025941,0.123142,0.0,0.0,0.0,0,0
2026-06-16 15:33:47.521,40816,L_Ankle,0.1271,0.0183,0.999,5.41,-0.81,-10.29,-53.43,-29.34,-36.84,0.982452,0.034272,-0.073305,0.167913,0.0,0.0,0.0,0,0
2026-06-16 15:33:47.524,40836,L_Ankle,0.131,0.0266,1.0034,5.41,-0.8,-10.28,-54.64,-31.27,-37.72,0.982452,0.034242,-0.073305,0.167943,0.0,0.0,0.0,0,0
2026-06-16 15:33:47.525,40690,R_Shank,0.0409,2.628,0.9903,-0.08,-1.45,-8.43,-21.62,23.73,-21.79,0.955931,0.033265,-0.024659,0.290597,0.0,0.0,0.0,0,0
2026-06-16 15:33:47.527,40856,L_Ankle,0.1241,0.0197,0.988,5.42,-0.83,-10.29,0.0,0.0,0.0,0.982452,0.034242,-0.073275,0.167913,0.0,0.0,0.0,0,0
2026-06-16 15:33:47.528,40710,R_Shank,0.0453,-0.0724,1.0138,-0.1,-1.47,-8.42,0.0,0.0,0.0,0.955931,0.033235,-0.024659,0.290597,0.0,0.0,0.0,0,0
2026-06-16 15:33:47.530,40876,L_Ankle,0.129,0.0149,0.9995,5.4,-0.82,-10.29,-54.8,-31.08,-36.53,0.982452,0.034242,-0.073244,0.167943,0.0,0.0,0.0,0,0
2026-06-16 15:33:47.531,40730,R_Shank,0.0434,-1.8728,0.9994,-0.09,-1.47,-8.42,-20.44,22.89,-20.46,0.955931,0.033235,-0.024689,0.290597,0.0,0.0,0.0,0,0
2026-06-16 15:33:47.533,40826,L_Hip,0.1229,-0.0725,0.9996,-4.15,4.55,2.96,-11.87,25.72,-29.42,0.994598,-0.022126,-0.073916,0.068972,0.0,0.0,0.0,0,0
2026-06-16 15:33:47.534,40750,R_Shank,0.0316,0.8276,1.01,-0.09,-1.45,-8.43,-22.09,22.24,-22.55,0.955931,0.033235,-0.024659,0.290597,0.0,0.0,0.0,0,0
2026-06-16 15:33:47.535,40846,L_Hip,0.1225,-0.0798,0.9967,-4.15,4.55,2.98,-11.89,26.04,-27.97,0.994629,-0.022126,-0.073885,0.068972,0.0,0.0,0.0,0,0
2026-06-16 15:33:47.536,40694,R_Ankle,0.0243,-0.0131,1.0058,0.76,-1.71,-0.5,-28.31,30.74,-30.35,0.259346,0.091372,0.012482,0.961364,0.0,0.0,0.0,0,0
2026-06-16 15:33:47.538,40866,L_Hip,0.1264,-0.0646,1.0035,-4.13,4.55,2.97,0.0,0.0,0.0,0.994629,-0.022095,-0.073885,0.068972,0.0,0.0,0.0,0,0
2026-06-16 15:33:47.540,40714,R_Ankle,0.0273,-0.019,1.0153,0.77,-1.71,-0.48,-28.31,31.06,-30.35,0.259346,0.091342,0.012482,0.961364,0.0,0.0,0.0,0,0
2026-06-16 15:33:47.541,40886,L_Hip,0.1254,-0.0798,0.9851,-4.16,4.54,2.97,-12.24,25.06,-27.96,0.994629,-0.022126,-0.073885,0.068972,0.0,0.0,0.0,0,0
2026-06-16 15:33:47.542,40734,R_Ankle,0.0194,-0.0156,1.0038,0.77,-1.7,-0.48,-28.15,29.63,-30.18,0.259346,0.091372,0.012482,0.961364,0.0,0.0,0.0,0,0
2026-06-16 15:33:47.544,40836,L_Shank,-0.0006,-0.0283,0.9714,1.75,-1.17,-0.19,-4.66,14.83,-23.93,0.992004,-0.005036,-0.025941,0.123142,0.0,0.0,0.0,0,0
2026-06-16 15:33:47.545,40754,R_Ankle,0.0238,-0.019,1.0034,0.77,-1.7,-0.5,-27.97,29.46,-29.71,0.259346,0.091372,0.012482,0.961364,0.0,0.0,0.0,0,0
2026-06-16 15:33:47.546,40856,L_Shank,0.0042,-0.0136,0.9902,1.75,-1.17,-0.2,-4.85,14.98,-22.85,0.992004,-0.005036,-0.025941,0.123173,0.0,0.0,0.0,0,0
2026-06-16 15:33:47.548,40712,R_Hip,0.0431,0.0074,0.9986,0.25,-1.57,1.76,-19.78,26.34,-31.96,0.909268,-0.007324,-0.04181,-0.413984,0.0,0.0,0.0,0,0
2026-06-16 15:33:47.550,40876,L_Shank,-0.005,-0.0209,0.9767,1.76,-1.18,-0.19,-4.82,15.36,-25.34,0.992004,-0.005036,-0.025971,0.123173,0.0,0.0,0.0,0,0
2026-06-16 15:33:47.550,40732,R_Hip,0.0505,0.0069,0.9842,0.26,-1.55,1.77,0.0,0.0,0.0,0.909268,-0.007324,-0.04181,-0.413984,0.0,0.0,0.0,0,0
2026-06-16 15:33:47.552,40896,L_Shank,0.0052,-0.0219,0.9921,1.77,-1.16,-0.2,0.0,0.0,0.0,0.992004,-0.005036,-0.025971,0.123173,0.0,0.0,0.0,0,0
2026-06-16 15:33:47.553,40752,R_Hip,0.0269,0.0176,0.9972,0.26,-1.54,1.76,-20.87,26.71,-31.62,0.909268,-0.007324,-0.04181,-0.413984,0.0,0.0,0.0,0,0
2026-06-16 15:33:47.554,40772,R_Hip,0.0471,-0.0047,1.0049,0.23,-1.57,1.77,-19.78,25.61,-31.96,0.909268,-0.007294,-0.04178,-0.414014,0.0,0.0,0.0,0,0
2026-06-16 15:33:47.556,40717,R_Ankle,0.0277,-0.0156,1.0177,0.74,-1.7,-0.48,-27.96,30.42,-29.72,0.259346,0.091372,0.012452,0.961364,0.0,0.0,0.0,0,0
2026-06-16 15:33:47.558,40737,R_Ankle,0.014,-0.0185,1.0,0.76,-1.71,-0.49,0.0,0.0,0.0,0.259346,0.091342,0.012482,0.961364,0.0,0.0,0.0,0,0
2026-06-16 15:33:47.559,40757,R_Ankle,0.0263,-0.0131,1.0014,0.77,-1.7,-0.5,-29.19,29.64,-32.04,0.259346,0.091342,0.012482,0.961364,0.0,0.0,0.0,0,0
2026-06-16 15:33:47.561,40777,R_Ankle,0.0302,-0.0185,1.011,0.77,-1.7,-0.49,-27.62,30.42,-29.72,0.259346,0.091372,0.012482,0.961364,0.0,0.0,0.0,0,0
2026-06-16 15:33:47.570,40735,R_Shank,0.0389,-3.1552,0.997,-0.09,-1.46,-8.42,-20.27,23.05,-20.61,0.955931,0.033265,-0.024659,0.290597,0.0,0.0,0.0,0,0
2026-06-16 15:33:47.572,40755,R_Shank,0.0399,-0.8432,1.0191,-0.09,-1.45,-8.42,0.0,0.0,0.0,0.955931,0.033265,-0.024659,0.290597,0.0,0.0,0.0,0,0
2026-06-16 15:33:47.573,40775,R_Shank,0.0453,1.4688,1.009,-0.09,-1.48,-8.41,-21.95,23.4,-21.49,0.955931,0.033235,-0.024659,0.290597,0.0,0.0,0.0,0,0
2026-06-16 15:33:47.576,40795,R_Shank,0.0375,1.08,1.0258,-0.09,-1.47,-8.41,-20.94,23.39,-21.2,0.955931,0.033265,-0.024659,0.290628,0.0,0.0,0.0,0,0
2026-06-16 15:33:47.578,40737,R_Hip,0.0397,0.0049,1.0039,0.25,-1.56,1.77,-20.51,26.35,-32.65,0.909268,-0.007355,-0.04178,-0.413984,0.0,0.0,0.0,0,0
2026-06-16 15:33:47.580,40757,R_Hip,0.0525,0.0064,0.9919,0.25,-1.56,1.77,0.0,0.0,0.0,0.909268,-0.007355,-0.04178,-0.413984,0.0,0.0,0.0,0,0
2026-06-16 15:33:47.582,40885,L_Ankle,0.1276,0.0212,1.001,5.41,-0.81,-10.3,-54.45,-31.09,-36.53,0.982452,0.034272,-0.073244,0.167913,0.0,0.0,0.0,0,0
2026-06-16 15:33:47.584,40777,R_Hip,0.0496,0.0118,0.9938,0.25,-1.57,1.78,-19.05,27.8,-31.96,0.909268,-0.007355,-0.04181,-0.413984,0.0,0.0,0.0,0,0
2026-06-16 15:33:47.586,40905,L_Ankle,0.1261,0.0144,0.9894,5.4,-0.81,-10.28,-53.42,-30.4,-37.19,0.982452,0.034272,-0.073244,0.167943,0.0,0.0,0.0,0,0
2026-06-16 15:33:47.587,40797,R_Hip,0.051,-0.0106,0.9885,0.25,-1.54,1.77,-21.78,26.16,-32.48,0.909268,-0.007355,-0.04181,-0.413984,0.0,0.0,0.0,0,0
2026-06-16 15:33:47.588,40925,L_Ankle,0.1364,0.0168,1.0034,5.4,-0.81,-10.29,0.0,0.0,0.0,0.982452,0.034272,-0.073244,0.167913,0.0,0.0,0.0,0,0
2026-06-16 15:33:47.589,40739,R_Ankle,0.015,-0.0275,0.9943,0.77,-1.72,-0.49,-28.15,29.63,-30.18,0.259346,0.091403,0.012452,0.961364,0.0,0.0,0.0,0,0
2026-06-16 15:33:47.591,40945,L_Ankle,0.1281,0.0183,0.9933,5.41,-0.83,-10.29,-54.99,-29.13,-36.02,0.982452,0.034272,-0.073214,0.167943,0.0,0.0,0.0,0,0
2026-06-16 15:33:47.591,40759,R_Ankle,0.0135,-0.0131,1.0038,0.77,-1.7,-0.5,0.0,0.0,0.0,0.259316,0.091403,0.012452,0.961364,0.0,0.0,0.0,0,0
2026-06-16 15:33:47.593,40886,L_Shank,0.0023,-0.02,0.9801,1.76,-1.16,-0.19,-4.84,15.33,-23.47,0.992004,-0.005066,-0.025971,0.123173,0.0,0.0,0.0,0,0
2026-06-16 15:33:47.593,40779,R_Ankle,0.017,-0.0205,0.9947,0.77,-1.7,-0.48,-29.17,29.93,-30.19,0.259316,0.091372,0.012452,0.961364,0.0,0.0,0.0,0,0
2026-06-16 15:33:47.596,40906,L_Shank,-0.0025,-0.0224,0.9873,1.75,-1.16,-0.18,-4.83,16.7,-24.42,0.992004,-0.005036,-0.025971,0.123173,0.0,0.0,0.0,0,0
2026-06-16 15:33:47.596,40799,R_Ankle,0.0106,-0.0176,1.0129,0.77,-1.71,-0.49,-27.97,29.14,-29.4,0.259316,0.091372,0.012452,0.961364,0.0,0.0,0.0,0,0
2026-06-16 15:33:47.598,40926,L_Shank,0.0072,-0.0278,0.993,1.76,-1.16,-0.19,-4.5,14.64,-22.53,0.992004,-0.005036,-0.025971,0.123173,0.0,0.0,0.0,0,0
2026-06-16 15:33:47.598,40757,R_Shank,0.0502,0.698,1.021,-0.09,-1.45,-8.41,-20.1,23.2,-21.36,0.955931,0.033265,-0.024659,0.290628,0.0,0.0,0.0,0,0
2026-06-16 15:33:47.600,40946,L_Shank,0.0052,-0.0156,0.9786,1.76,-1.19,-0.19,-4.49,16.69,-23.49,0.992004,-0.005036,-0.025971,0.123203,0.0,0.0,0.0,0,0
2026-06-16 15:33:47.600,40777,R_Shank,0.0326,0.698,1.0152,-0.09,-1.46,-8.42,0.0,0.0,0.0,0.955931,0.033265,-0.024659,0.290628,0.0,0.0,0.0,0,0
2026-06-16 15:33:47.602,40894,L_Hip,0.1225,-0.0735,1.0045,-4.16,4.54,2.98,-11.4,24.59,-28.12,0.994629,-0.022126,-0.073885,0.068972,0.0,0.0,0.0,0,0
2026-06-16 15:33:47.603,40797,R_Shank,0.0463,-2.514,1.0157,-0.09,-1.46,-8.43,-20.11,24.2,-21.36,0.955931,0.033265,-0.024659,0.290628,0.0,0.0,0.0,0,0
2026-06-16 15:33:47.605,40914,L_Hip,0.1288,-0.0749,0.9866,-4.16,4.54,2.96,-11.72,25.88,-28.12,0.994629,-0.022095,-0.073885,0.068972,0.0,0.0,0.0,0,0
2026-06-16 15:33:47.605,40817,R_Shank,0.0419,-1.7432,1.0023,-0.09,-1.45,-8.42,-20.28,24.04,-20.9,0.955931,0.033265,-0.024659,0.290628,0.0,0.0,0.0,0,0
2026-06-16 15:33:47.607,40934,L_Hip,0.1313,-0.072,0.9929,-4.16,4.54,2.97,0.0,0.0,0.0,0.994629,-0.022126,-0.073885,0.068972,0.0,0.0,0.0,0,0
2026-06-16 15:33:47.607,40762,R_Hip,0.0436,0.004,0.9962,0.25,-1.54,1.77,-20.69,27.99,-33.17,0.909268,-0.007385,-0.04178,-0.413984,0.0,0.0,0.0,0,0
2026-06-16 15:33:47.609,40954,L_Hip,0.1259,-0.072,1.0113,-4.16,4.54,2.99,-13.42,25.2,-27.8,0.994629,-0.022126,-0.073855,0.069002,0.0,0.0,0.0,0,0
2026-06-16 15:33:47.609,40782,R_Hip,0.0481,0.0171,0.9938,0.25,-1.56,1.77,0.0,0.0,0.0,0.909268,-0.007385,-0.041749,-0.413984,0.0,0.0,0.0,0,0
2026-06-16 15:33:47.611,40906,L_Ankle,0.129,0.0256,0.9794,5.4,-0.8,-10.29,-53.4,-31.11,-36.51,0.982452,0.034242,-0.073214,0.167943,0.0,0.0,0.0,0,0
2026-06-16 15:33:47.612,40802,R_Hip,0.0525,-0.0008,0.9958,0.25,-1.57,1.77,-21.42,27.99,-33.17,0.909268,-0.007355,-0.04178,-0.413984,0.0,0.0,0.0,0,0
2026-06-16 15:33:47.614,40907,L_Ankle,0.1276,0.0153,0.9928,5.4,-0.8,-10.29,-53.75,-31.1,-36.52,0.982452,0.034242,-0.073214,0.167943,0.0,0.0,0.0,0,0
2026-06-16 15:33:47.614,40822,R_Hip,0.0422,0.0054,0.9837,0.25,-1.56,1.77,-21.42,25.8,-32.82,0.909268,-0.007385,-0.04178,-0.413984,0.0,0.0,0.0,0,0
2026-06-16 15:33:47.616,40927,L_Ankle,0.132,0.0251,0.9885,5.4,-0.81,-10.28,0.0,0.0,0.0,0.982452,0.034211,-0.073214,0.167943,0.0,0.0,0.0,0,0
2026-06-16 15:33:47.616,40779,R_Shank,0.0478,-0.9728,1.0167,-0.09,-1.46,-8.41,-20.29,24.04,-20.6,0.955901,0.033296,-0.02472,0.290658,0.0,0.0,0.0,0,0
2026-06-16 15:33:47.618,40947,L_Ankle,0.1349,0.0163,1.0139,5.4,-0.8,-10.29,-54.48,-30.38,-37.89,0.982452,0.034242,-0.073183,0.167913,0.0,0.0,0.0,0,0
2026-06-16 15:33:47.618,40799,R_Shank,0.0443,0.698,1.0229,-0.09,-1.45,-8.42,0.0,0.0,0.0,0.955901,0.033296,-0.02472,0.290658,0.0,0.0,0.0,0,0
2026-06-16 15:33:47.620,40916,L_Hip,0.1215,-0.0676,0.9812,-4.15,4.53,2.96,-11.9,25.39,-27.68,0.994629,-0.022126,-0.073885,0.068972,0.0,0.0,0.0,0,0
2026-06-16 15:33:47.621,40819,R_Shank,0.0473,2.3688,1.0152,-0.09,-1.45,-8.41,-21.78,22.58,-20.75,0.955901,0.033296,-0.02472,0.290658,0.0,0.0,0.0,0,0
2026-06-16 15:33:47.623,40936,L_Hip,0.1259,-0.0774,0.9817,-4.14,4.54,2.96,-13.08,25.21,-28.39,0.994598,-0.022126,-0.073916,0.069002,0.0,0.0,0.0,0,0
2026-06-16 15:33:47.623,40839,R_Shank,0.0384,1.5984,1.0114,-0.09,-1.45,-8.42,-20.58,22.06,-20.91,0.955901,0.033265,-0.02472,0.290658,0.0,0.0,0.0,0,0
2026-06-16 15:33:47.625,40956,L_Hip,0.1318,-0.0705,0.9943,-4.15,4.53,2.96,0.0,0.0,0.0,0.994598,-0.022126,-0.073885,0.069002,0.0,0.0,0.0,0,0
2026-06-16 15:33:47.625,40785,R_Ankle,0.017,-0.0176,0.9981,0.77,-1.72,-0.48,-27.81,28.35,-29.54,0.259316,0.091372,0.012421,0.961364,0.0,0.0,0.0,0,0
2026-06-16 15:33:47.627,40976,L_Hip,0.121,-0.0833,0.989,-4.14,4.54,2.99,-11.21,26.05,-27.98,0.994598,-0.022126,-0.073916,0.069002,0.0,0.0,0.0,0,0
2026-06-16 15:33:47.628,40805,R_Ankle,0.0175,-0.0131,1.0158,0.77,-1.72,-0.49,0.0,0.0,0.0,0.259316,0.091342,0.012452,0.961364,0.0,0.0,0.0,0,0
2026-06-16 15:33:47.630,40825,R_Ankle,0.017,-0.02,0.9981,0.76,-1.7,-0.5,-29.33,30.09,-29.73,0.259316,0.091342,0.012452,0.961364,0.0,0.0,0.0,0,0
2026-06-16 15:33:47.630,40929,L_Ankle,0.1369,0.0227,0.9856,5.41,-0.81,-10.3,-53.78,-30.04,-37.19,0.982452,0.034242,-0.073183,0.167943,0.0,0.0,0.0,0,0
2026-06-16 15:33:47.632,40845,R_Ankle,0.0175,-0.0146,0.9914,0.77,-1.69,-0.5,-28.83,29.62,-30.49,0.259316,0.091342,0.012452,0.961364,0.0,0.0,0.0,0,0
2026-06-16 15:33:47.632,40949,L_Ankle,0.1261,0.0261,0.9957,5.4,-0.81,-10.29,-54.3,-28.79,-36.01,0.982452,0.034211,-0.073183,0.167943,0.0,0.0,0.0,0,0
2026-06-16 15:33:47.634,40969,L_Ankle,0.1344,0.0129,0.9995,5.41,-0.82,-10.28,0.0,0.0,0.0,0.982452,0.034242,-0.073183,0.167943,0.0,0.0,0.0,0,0
2026-06-16 15:33:47.636,40989,L_Ankle,0.1237,0.0227,0.9813,5.4,-0.82,-10.31,-53.76,-30.04,-36.51,0.982452,0.034242,-0.073183,0.167943,0.0,0.0,0.0,0,0
2026-06-16 15:33:47.636,40802,R_Shank,0.0453,1.5984,1.0109,-0.1,-1.46,-8.42,-20.6,23.05,-20.91,0.955901,0.033265,-0.024689,0.290658,0.0,0.0,0.0,0,0
2026-06-16 15:33:47.638,40936,L_Shank,0.0018,-0.0195,0.9911,1.76,-1.17,-0.21,-4.85,16.01,-23.17,0.992004,-0.005005,-0.025941,0.123203,0.0,0.0,0.0,0,0
2026-06-16 15:33:47.639,40822,R_Shank,0.0438,-2.6436,1.0061,-0.09,-1.46,-8.41,-19.6,23.04,-20.01,0.955901,0.033235,-0.02472,0.290658,0.0,0.0,0.0,0,0
2026-06-16 15:33:47.640,40956,L_Shank,0.0042,-0.0156,0.9935,1.76,-1.16,-0.2,-5.36,15.51,-24.25,0.992004,-0.005036,-0.025941,0.123203,0.0,0.0,0.0,0,0
2026-06-16 15:33:47.641,40842,R_Shank,0.0497,0.0572,1.0205,-0.1,-1.45,-8.42,-19.92,23.03,-21.52,0.955901,0.033235,-0.02472,0.290658,0.0,0.0,0.0,0,0
2026-06-16 15:33:47.643,40976,L_Shank,0.0042,-0.0278,0.9878,1.77,-1.14,-0.18,-5.54,13.64,-24.07,0.992004,-0.005005,-0.025971,0.123234,0.0,0.0,0.0,0,0
2026-06-16 15:33:47.643,40862,R_Shank,0.0419,0.5684,1.0138,-0.08,-1.46,-8.41,0.0,0.0,0.0,0.955901,0.033235,-0.02472,0.290689,0.0,0.0,0.0,0,0
2026-06-16 15:33:47.645,40996,L_Shank,0.0057,-0.019,0.9902,1.77,-1.14,-0.2,-7.11,14.82,-23.6,0.992004,-0.005036,-0.025941,0.123234,0.0,0.0,0.0,0,0
2026-06-16 15:33:47.645,40807,R_Ankle,0.0204,-0.0146,1.022,0.77,-1.7,-0.49,-28.15,30.59,-31.11,0.259316,0.091311,0.012452,0.961364,0.0,0.0,0.0,0,0
2026-06-16 15:33:47.647,40827,R_Ankle,0.0233,-0.0052,1.0067,0.77,-1.7,-0.49,0.0,0.0,0.0,0.259346,0.091342,0.012452,0.961364,0.0,0.0,0.0,0,0
2026-06-16 15:33:47.647,40939,L_Hip,0.1229,-0.072,0.9982,-4.16,4.53,2.98,-12.89,25.06,-29.41,0.994598,-0.022156,-0.073916,0.068972,0.0,0.0,0.0,0,0
2026-06-16 15:33:47.649,40959,L_Hip,0.1249,-0.0754,0.9924,-4.16,4.54,2.97,-11.88,26.04,-28.55,0.994598,-0.022156,-0.073946,0.069002,0.0,0.0,0.0,0,0
2026-06-16 15:33:47.650,40847,R_Ankle,0.0194,-0.022,1.0211,0.77,-1.69,-0.49,-28.0,29.81,-32.49,0.259346,0.091342,0.012482,0.961364,0.0,0.0,0.0,0,0
2026-06-16 15:33:47.651,40979,L_Hip,0.1269,-0.0744,1.0079,-4.14,4.54,2.97,0.0,0.0,0.0,0.994598,-0.022156,-0.073946,0.068972,0.0,0.0,0.0,0,0
2026-06-16 15:33:47.652,40867,R_Ankle,0.0219,-0.0116,1.0144,0.77,-1.7,-0.5,-29.19,28.67,-31.1,0.259346,0.091311,0.012482,0.961364,0.0,0.0,0.0,0,0
2026-06-16 15:33:47.653,40999,L_Hip,0.1156,-0.0641,0.9953,-4.16,4.54,2.96,-12.08,25.22,-27.24,0.994598,-0.022156,-0.073946,0.068972,0.0,0.0,0.0,0,0
2026-06-16 15:33:47.654,40812,R_Hip,0.0431,0.0079,0.9982,0.26,-1.56,1.79,-20.15,27.81,-32.65,0.909268,-0.007416,-0.041749,-0.413984,0.0,0.0,0.0,0,0
2026-06-16 15:33:47.655,40832,R_Hip,0.0491,0.0103,0.9919,0.26,-1.58,1.77,0.0,0.0,0.0,0.909268,-0.007416,-0.041749,-0.413984,0.0,0.0,0.0,0,0
2026-06-16 15:33:47.657,40961,L_Shank,-0.003,-0.0204,0.9921,1.74,-1.15,-0.19,-5.87,15.01,-25.01,0.992004,-0.005036,-0.025941,0.123234,0.0,0.0,0.0,0,0
2026-06-16 15:33:47.658,40852,R_Hip,0.0402,0.0035,1.001,0.26,-1.56,1.77,-19.97,27.63,-33.85,0.909268,-0.007385,-0.041749,-0.413984,0.0,0.0,0.0,0,0
2026-06-16 15:33:47.660,40981,L_Shank,-0.0045,-0.0165,0.9815,1.74,-1.17,-0.19,0.0,0.0,0.0,0.992004,-0.005036,-0.025941,0.123234,0.0,0.0,0.0,0,0
2026-06-16 15:33:47.661,40872,R_Hip,0.0441,-0.0013,0.9958,0.27,-1.56,1.77,-18.87,27.25,-31.11,0.909268,-0.007385,-0.041749,-0.413984,0.0,0.0,0.0,0,0
2026-06-16 15:33:47.662,41001,L_Shank,-0.0006,-0.0224,1.006,1.74,-1.18,-0.19,-5.2,14.99,-23.15,0.992004,-0.005036,-0.025941,0.123234,0.0,0.0,0.0,0,0
2026-06-16 15:33:47.663,40824,R_Shank,0.0448,-2.3844,1.0167,-0.11,-1.45,-8.42,-21.44,22.9,-21.05,0.955901,0.033235,-0.02472,0.290689,0.0,0.0,0.0,0,0
2026-06-16 15:33:47.664,41021,L_Shank,-0.0059,-0.0234,0.9921,1.73,-1.18,-0.19,-4.67,14.82,-23.62,0.992004,-0.005005,-0.02591,0.123234,0.0,0.0,0.0,0,0
2026-06-16 15:33:47.665,40844,R_Shank,0.0424,0.5684,1.008,-0.1,-1.46,-8.41,-19.96,24.04,-20.0,0.955901,0.033204,-0.024751,0.290689,0.0,0.0,0.0,0,0
2026-06-16 15:33:47.667,40864,R_Shank,0.0448,2.4984,1.009,-0.1,-1.47,-8.41,-20.1,23.53,-21.66,0.955901,0.033235,-0.024751,0.290689,0.0,0.0,0.0,0,0
2026-06-16 15:33:47.668,40884,R_Shank,0.0463,-2.6436,1.0071,-0.1,-1.45,-8.42,0.0,0.0,0.0,0.955901,0.033204,-0.024751,0.290689,0.0,0.0,0.0,0,0
2026-06-16 15:33:47.670,40974,L_Ankle,0.1281,0.0202,1.0014,5.4,-0.81,-10.29,-55.33,-30.54,-36.37,0.982452,0.034242,-0.073183,0.167943,0.0,0.0,0.0,0,0
2026-06-16 15:33:47.671,40837,R_Hip,0.0422,0.0132,0.9909,0.25,-1.55,1.77,-21.06,27.26,-32.48,0.909268,-0.007385,-0.041749,-0.413984,0.0,0.0,0.0,0,0
2026-06-16 15:33:47.672,40994,L_Ankle,0.1364,0.0178,0.9928,5.41,-0.82,-10.29,-53.76,-30.04,-36.51,0.982452,0.034211,-0.073153,0.167913,0.0,0.0,0.0,0,0
2026-06-16 15:33:47.673,40857,R_Hip,0.0417,0.0152,0.9818,0.26,-1.57,1.76,0.0,0.0,0.0,0.909268,-0.007385,-0.041749,-0.413984,0.0,0.0,0.0,0,0
2026-06-16 15:33:47.675,41014,L_Ankle,0.1354,0.0192,0.9909,5.41,-0.8,-10.29,-53.41,-29.69,-35.82,0.982452,0.034211,-0.073153,0.167913,0.0,0.0,0.0,0,0
2026-06-16 15:33:47.676,40877,R_Hip,0.0417,0.0089,1.0083,0.25,-1.56,1.77,-20.87,26.34,-31.96,0.909268,-0.007355,-0.041749,-0.413984,0.0,0.0,0.0,0,0
2026-06-16 15:33:47.678,41034,L_Ankle,0.1232,0.0202,0.9971,5.4,-0.81,-10.29,0.0,0.0,0.0,0.982452,0.034211,-0.073153,0.167913,0.0,0.0,0.0,0,0
2026-06-16 15:33:47.679,40897,R_Hip,0.0456,0.001,1.0039,0.27,-1.58,1.77,-20.15,27.81,-32.99,0.909268,-0.007355,-0.041749,-0.413984,0.0,0.0,0.0,0,0
2026-06-16 15:33:47.680,40984,L_Hip,0.1249,-0.072,0.9904,-4.13,4.53,2.98,-13.23,26.33,-27.95,0.994598,-0.022156,-0.073946,0.068972,0.0,0.0,0.0,0,0
2026-06-16 15:33:47.681,40847,R_Shank,0.0434,0.9572,1.0095,-0.08,-1.43,-8.43,-20.24,22.7,-22.42,0.955901,0.033204,-0.024781,0.290719,0.0,0.0,0.0,0,0
2026-06-16 15:33:47.683,41004,L_Hip,0.1239,-0.0759,0.99,-4.15,4.54,2.97,-11.4,25.24,-27.54,0.994598,-0.022187,-0.073946,0.068972,0.0,0.0,0.0,0,0
2026-06-16 15:33:47.684,40867,R_Shank,0.0414,2.3688,1.0104,-0.09,-1.45,-8.42,-21.78,23.24,-21.04,0.955901,0.033174,-0.024781,0.290719,0.0,0.0,0.0,0,0
2026-06-16 15:33:47.685,41024,L_Hip,0.1215,-0.0779,0.9832,-4.16,4.54,2.97,-13.05,26.18,-28.97,0.994598,-0.022156,-0.073946,0.069002,0.0,0.0,0.0,0,0
2026-06-16 15:33:47.686,40887,R_Shank,0.0409,-0.3316,1.0104,-0.09,-1.45,-8.43,0.0,0.0,0.0,0.955901,0.033174,-0.024781,0.290719,0.0,0.0,0.0,0,0
2026-06-16 15:33:47.687,41044,L_Hip,0.1274,-0.0705,0.9929,-4.15,4.54,2.98,0.0,0.0,0.0,0.994598,-0.022156,-0.073977,0.069002,0.0,0.0,0.0,0,0
2026-06-16 15:33:47.688,40907,R_Shank,0.0419,-1.1024,1.0196,-0.1,-1.46,-8.41,-22.12,23.57,-21.64,0.955901,0.033174,-0.024751,0.290719,0.0,0.0,0.0,0,0
2026-06-16 15:33:47.690,40852,R_Ankle,0.0179,-0.0151,1.0048,0.76,-1.71,-0.49,-27.97,29.14,-29.09,0.259346,0.091342,0.012482,0.961364,0.0,0.0,0.0,0,0
2026-06-16 15:33:47.691,40872,R_Ankle,0.0263,-0.0205,1.0062,0.76,-1.71,-0.5,0.0,0.0,0.0,0.259346,0.091342,0.012482,0.961364,0.0,0.0,0.0,0,0
2026-06-16 15:33:47.693,40892,R_Ankle,0.0253,-0.0146,1.0149,0.76,-1.71,-0.49,-27.46,29.94,-29.56,0.259346,0.091342,0.012482,0.961364,0.0,0.0,0.0,0,0
2026-06-16 15:33:47.695,40912,R_Ankle,0.0199,-0.0195,1.0091,0.77,-1.72,-0.48,-28.13,31.21,-29.58,0.259316,0.091372,0.012482,0.961364,0.0,0.0,0.0,0,0
2026-06-16 15:33:47.704,40869,R_Shank,0.0473,-0.8432,1.021,-0.1,-1.46,-8.41,-21.46,23.9,-20.74,0.955901,0.033204,-0.024751,0.290719,0.0,0.0,0.0,0,0
2026-06-16 15:33:47.707,40889,R_Shank,0.0473,-0.7136,1.0109,-0.09,-1.45,-8.41,-21.44,23.23,-21.65,0.955901,0.033174,-0.024781,0.290719,0.0,0.0,0.0,0,0
2026-06-16 15:33:47.709,41011,L_Shank,-0.0035,-0.0224,1.0002,1.77,-1.15,-0.2,-5.71,14.83,-23.92,0.992004,-0.005036,-0.02588,0.123234,0.0,0.0,0.0,0,0
2026-06-16 15:33:47.709,40909,R_Shank,0.0458,-3.1552,1.0138,-0.09,-1.45,-8.42,0.0,0.0,0.0,0.955901,0.033174,-0.024781,0.290719,0.0,0.0,0.0,0,0
2026-06-16 15:33:47.711,41031,L_Shank,-0.0045,-0.0209,0.9892,1.77,-1.16,-0.19,0.0,0.0,0.0,0.992004,-0.005036,-0.02588,0.123264,0.0,0.0,0.0,0,0
2026-06-16 15:33:47.712,40929,R_Shank,0.0394,-0.8432,1.0152,-0.08,-1.45,-8.43,-20.46,23.88,-20.45,0.955901,0.033143,-0.024781,0.290719,0.0,0.0,0.0,0,0
2026-06-16 15:33:47.713,41051,L_Shank,-0.0025,-0.0195,0.9993,1.76,-1.15,-0.2,-4.48,14.67,-24.71,0.992004,-0.005066,-0.025849,0.123264,0.0,0.0,0.0,0,0
2026-06-16 15:33:47.715,40874,R_Ankle,0.0106,-0.0166,0.9928,0.75,-1.71,-0.5,-28.84,28.99,-30.48,0.259346,0.091372,0.012482,0.961364,0.0,0.0,0.0,0,0
2026-06-16 15:33:47.716,41071,L_Shank,0.0018,-0.018,1.0007,1.76,-1.13,-0.19,-5.37,14.14,-23.3,0.992004,-0.005036,-0.02588,0.123295,0.0,0.0,0.0,0,0
2026-06-16 15:33:47.717,40894,R_Ankle,0.0233,-0.0146,1.0029,0.77,-1.72,-0.48,0.0,0.0,0.0,0.259346,0.091372,0.012452,0.961364,0.0,0.0,0.0,0,0
2026-06-16 15:33:47.719,41019,L_Ankle,0.1286,0.0192,0.9957,5.39,-0.82,-10.3,-53.58,-29.15,-35.32,0.982452,0.034211,-0.073183,0.167913,0.0,0.0,0.0,0,0
2026-06-16 15:33:47.719,40914,R_Ankle,0.0101,-0.0185,1.0077,0.74,-1.7,-0.49,-27.28,29.77,-28.78,0.259346,0.091372,0.012452,0.961364,0.0,0.0,0.0,0,0
2026-06-16 15:33:47.721,41039,L_Ankle,0.1266,0.0085,0.9942,5.4,-0.83,-10.29,-53.94,-30.57,-37.03,0.982452,0.034211,-0.073153,0.167913,0.0,0.0,0.0,0,0
2026-06-16 15:33:47.722,40934,R_Ankle,0.0145,-0.0185,0.999,0.77,-1.72,-0.49,-29.35,28.83,-30.95,0.259316,0.091372,0.012452,0.961364,0.0,0.0,0.0,0,0
2026-06-16 15:33:47.724,41059,L_Ankle,0.1261,0.0236,0.9962,5.41,-0.83,-10.3,-54.31,-29.14,-36.69,0.982452,0.034211,-0.073153,0.167913,0.0,0.0,0.0,0,0
2026-06-16 15:33:47.725,40887,R_Hip,0.0486,0.0123,1.0006,0.24,-1.57,1.78,-20.69,26.89,-31.45,0.909268,-0.007355,-0.041749,-0.413984,0.0,0.0,0.0,0,0
2026-06-16 15:33:47.727,41079,L_Ankle,0.1374,0.0202,0.9741,5.39,-0.82,-10.28,0.0,0.0,0.0,0.982482,0.034211,-0.073183,0.167913,0.0,0.0,0.0,0,0
2026-06-16 15:33:47.727,40907,R_Hip,0.0456,0.0079,1.0025,0.26,-1.55,1.76,0.0,0.0,0.0,0.909268,-0.007355,-0.04178,-0.413984,0.0,0.0,0.0,0,0
2026-06-16 15:33:47.729,41029,L_Hip,0.1215,-0.0676,0.9817,-4.16,4.54,2.98,-13.05,26.5,-28.39,0.994598,-0.022187,-0.073946,0.069002,0.0,0.0,0.0,0,0
2026-06-16 15:33:47.730,40927,R_Hip,0.0505,0.0064,0.9991,0.26,-1.56,1.77,-20.51,26.71,-32.31,0.909268,-0.007324,-0.041749,-0.413984,0.0,0.0,0.0,0,0
2026-06-16 15:33:47.731,41049,L_Hip,0.1229,-0.0725,0.9851,-4.16,4.54,2.97,-12.71,27.15,-27.82,0.994598,-0.022187,-0.073977,0.069002,0.0,0.0,0.0,0,0
2026-06-16 15:33:47.732,40947,R_Hip,0.0471,0.0015,0.9938,0.26,-1.56,1.77,-19.6,26.16,-32.82,0.909268,-0.007355,-0.041749,-0.413984,0.0,0.0,0.0,0,0
2026-06-16 15:33:47.733,41069,L_Hip,0.122,-0.0681,0.9904,-4.16,4.54,2.97,-12.77,24.89,-26.94,0.994598,-0.022187,-0.073977,0.069002,0.0,0.0,0.0,0,0
2026-06-16 15:33:47.735,41089,L_Hip,0.1176,-0.0725,0.9861,-4.16,4.55,2.98,0.0,0.0,0.0,0.994598,-0.022187,-0.073977,0.069002,0.0,0.0,0.0,0,0
2026-06-16 15:33:47.738,41036,L_Shank,0.0013,-0.0278,0.9998,1.73,-1.17,-0.19,-6.76,13.81,-23.9,0.992004,-0.005036,-0.025849,0.123295,0.0,0.0,0.0,0,0
2026-06-16 15:33:47.740,41037,L_Shank,0.0174,-0.0253,0.9786,1.74,-1.19,-0.2,0.0,0.0,0.0,0.992004,-0.005036,-0.025819,0.123295,0.0,0.0,0.0,0,0
2026-06-16 15:33:47.744,41057,L_Shank,0.014,-0.0195,0.9954,1.74,-1.19,-0.19,-6.41,15.16,-23.61,0.992004,-0.005036,-0.025758,0.123295,0.0,0.0,0.0,0,0
2026-06-16 15:33:47.746,41077,L_Shank,0.0076,-0.0244,0.9786,1.76,-1.16,-0.2,-6.58,15.34,-24.39,0.992004,-0.005005,-0.025788,0.123295,0.0,0.0,0.0,0,0
2026-06-16 15:33:47.748,41041,L_Ankle,0.1359,0.0178,0.9923,5.41,-0.83,-10.29,-54.47,-30.38,-37.21,0.982482,0.034181,-0.073153,0.167913,0.0,0.0,0.0,0,0
2026-06-16 15:33:47.749,40914,R_Shank,0.0546,-2.132,1.0133,-0.08,-1.47,-8.41,-20.77,22.89,-21.06,0.955901,0.033174,-0.024751,0.290719,0.0,0.0,0.0,0,0
2026-06-16 15:33:47.752,41061,L_Ankle,0.1349,0.0222,0.9923,5.41,-0.83,-10.29,-54.64,-29.85,-36.36,0.982452,0.034181,-0.073183,0.167913,0.0,0.0,0.0,0,0
2026-06-16 15:33:47.752,40915,R_Shank,0.0424,0.698,1.0095,-0.09,-1.45,-8.43,-20.6,23.05,-21.21,0.95587,0.033204,-0.024781,0.29075,0.0,0.0,0.0,0,0
2026-06-16 15:33:47.754,40935,R_Shank,0.0399,-2.514,1.0196,-0.1,-1.45,-8.41,0.0,0.0,0.0,0.95587,0.033174,-0.024781,0.29075,0.0,0.0,0.0,0,0
2026-06-16 15:33:47.757,41081,L_Ankle,0.1315,0.0222,0.9837,5.39,-0.83,-10.3,-53.55,-31.28,-35.32,0.982452,0.03415,-0.073183,0.167943,0.0,0.0,0.0,0,0
2026-06-16 15:33:47.759,40955,R_Shank,0.0419,-1.7432,1.0052,-0.09,-1.45,-8.42,-20.63,24.38,-20.9,0.95587,0.033174,-0.024781,0.29075,0.0,0.0,0.0,0,0
2026-06-16 15:33:47.760,41101,L_Ankle,0.1349,0.0158,0.9808,5.4,-0.8,-10.3,-54.46,-29.67,-36.18,0.982452,0.03415,-0.073183,0.167943,0.0,0.0,0.0,0,0
2026-06-16 15:33:47.776,40942,R_Ankle,0.0111,-0.022,1.0034,0.76,-1.71,-0.5,-28.99,30.09,-30.04,0.259316,0.091372,0.012452,0.961364,0.0,0.0,0.0,0,0
2026-06-16 15:33:47.778,40962,R_Ankle,0.0219,-0.021,0.999,0.77,-1.71,-0.49,0.0,0.0,0.0,0.259316,0.091342,0.012452,0.961364,0.0,0.0,0.0,0,0
2026-06-16 15:33:47.780,40982,R_Ankle,0.0175,-0.0215,0.9986,0.77,-1.7,-0.49,-28.84,30.59,-31.74,0.259316,0.091342,0.012421,0.961364,0.0,0.0,0.0,0,0
2026-06-16 15:33:47.781,41002,R_Ankle,0.0116,-0.019,1.0187,0.77,-1.7,-0.5,-28.32,30.42,-30.65,0.259316,0.091311,0.012421,0.961364,0.0,0.0,0.0,0,0
2026-06-16 15:33:47.793,41097,L_Hip,0.1225,-0.0725,0.9856,-4.14,4.53,2.96,-12.06,25.55,-28.4,0.994598,-0.022217,-0.073977,0.069002,0.0,0.0,0.0,0,0
2026-06-16 15:33:47.795,41117,L_Hip,0.121,-0.0744,1.0001,-4.15,4.55,2.98,-13.23,26.01,-28.24,0.994598,-0.022217,-0.073946,0.069002,0.0,0.0,0.0,0,0
2026-06-16 15:33:47.795,40960,R_Shank,0.0389,3.2692,1.0128,-0.09,-1.46,-8.41,-21.63,23.73,-20.89,0.95587,0.033204,-0.024781,0.29075,0.0,0.0,0.0,0,0
2026-06-16 15:33:47.798,41137,L_Hip,0.1166,-0.0754,0.9977,-4.14,4.54,2.99,-11.05,25.25,-28.13,0.994598,-0.022217,-0.073946,0.069002,0.0,0.0,0.0,0,0
2026-06-16 15:33:47.798,40980,R_Shank,0.0419,-1.7432,1.0028,-0.09,-1.45,-8.41,-20.42,22.55,-21.67,0.95587,0.033204,-0.024781,0.29075,0.0,0.0,0.0,0,0
2026-06-16 15:33:47.801,41157,L_Hip,0.1229,-0.0685,0.9953,-4.16,4.53,2.97,-12.57,25.7,-27.96,0.994598,-0.022217,-0.073946,0.069002,0.0,0.0,0.0,0,0
2026-06-16 15:33:47.801,41000,R_Shank,0.0375,0.698,1.0037,-0.1,-1.46,-8.42,0.0,0.0,0.0,0.95587,0.033174,-0.024751,0.29075,0.0,0.0,0.0,0,0
2026-06-16 15:33:47.802,41020,R_Shank,0.0429,3.1396,1.0037,-0.09,-1.45,-8.41,-21.47,24.23,-20.74,0.95587,0.033174,-0.024751,0.29075,0.0,0.0,0.0,0,0
2026-06-16 15:33:47.805,40963,R_Hip,0.0372,-0.0028,0.9938,0.26,-1.56,1.76,-21.42,26.53,-32.48,0.909268,-0.007385,-0.041749,-0.413984,0.0,0.0,0.0,0,0
2026-06-16 15:33:47.806,41109,L_Ankle,0.131,0.0124,1.0024,5.41,-0.82,-10.29,-53.59,-30.22,-36.68,0.982452,0.03415,-0.073214,0.167913,0.0,0.0,0.0,0,0
2026-06-16 15:33:47.807,40983,R_Hip,0.0515,0.0118,0.9943,0.26,-1.55,1.76,0.0,0.0,0.0,0.909268,-0.007416,-0.04178,-0.414014,0.0,0.0,0.0,0,0
2026-06-16 15:33:47.808,41129,L_Ankle,0.1286,0.0256,0.9923,5.41,-0.83,-10.3,0.0,0.0,0.0,0.982452,0.03415,-0.073214,0.167913,0.0,0.0,0.0,0,0
2026-06-16 15:33:47.810,41003,R_Hip,0.0535,0.0108,0.9881,0.26,-1.57,1.77,-20.14,26.34,-31.28,0.909268,-0.007416,-0.041749,-0.414014,0.0,0.0,0.0,0,0
2026-06-16 15:33:47.811,41149,L_Ankle,0.1271,0.0227,0.9866,5.39,-0.83,-10.28,-53.94,-30.21,-36.69,0.982452,0.034181,-0.073244,0.167913,0.0,0.0,0.0,0,0
2026-06-16 15:33:47.812,41023,R_Hip,0.0456,0.0152,0.9958,0.27,-1.54,1.77,-19.23,26.16,-32.13,0.909268,-0.007385,-0.04178,-0.414014,0.0,0.0,0.0,0,0
2026-06-16 15:33:47.813,41169,L_Ankle,0.1384,0.0017,0.9976,5.4,-0.82,-10.29,-54.78,-31.44,-35.85,0.982452,0.034181,-0.073214,0.167913,0.0,0.0,0.0,0,0
2026-06-16 15:33:47.815,41111,L_Shank,-0.001,-0.019,0.9945,1.77,-1.16,-0.21,-4.48,15.01,-24.72,0.992004,-0.005036,-0.025788,0.123325,0.0,0.0,0.0,0,0
2026-06-16 15:33:47.817,40982,R_Shank,0.0443,-2.7732,1.0076,-0.09,-1.46,-8.43,-20.76,22.56,-21.06,0.95587,0.033174,-0.024751,0.29078,0.0,0.0,0.0,0,0
2026-06-16 15:33:47.818,41131,L_Shank,0.0076,-0.0121,0.9954,1.77,-1.15,-0.19,0.0,0.0,0.0,0.992004,-0.005066,-0.025819,0.123325,0.0,0.0,0.0,0,0
2026-06-16 15:33:47.819,41002,R_Shank,0.0399,3.2692,1.0071,-0.07,-1.45,-8.42,-20.44,23.54,-21.66,0.95587,0.033204,-0.024751,0.29075,0.0,0.0,0.0,0,0
2026-06-16 15:33:47.820,41151,L_Shank,0.0028,-0.018,0.9954,1.78,-1.15,-0.19,-6.41,14.15,-24.22,0.992004,-0.005066,-0.025819,0.123325,0.0,0.0,0.0,0,0
2026-06-16 15:33:47.821,41022,R_Shank,0.0458,2.3688,1.0052,-0.08,-1.46,-8.43,-20.27,22.72,-20.31,0.95587,0.033174,-0.024751,0.29078,0.0,0.0,0.0,0,0
2026-06-16 15:33:47.822,41171,L_Shank,0.0057,-0.0234,0.9906,1.76,-1.16,-0.21,-5.37,13.8,-22.98,0.992004,-0.005066,-0.025819,0.123325,0.0,0.0,0.0,0,0
2026-06-16 15:33:47.824,41042,R_Shank,0.0409,-0.0724,1.0028,-0.08,-1.45,-8.41,0.0,0.0,0.0,0.95587,0.033174,-0.024751,0.29078,0.0,0.0,0.0,0,0
2026-06-16 15:33:47.825,41119,L_Hip,0.1225,-0.0656,0.987,-4.15,4.54,2.98,-12.07,25.23,-27.82,0.994598,-0.022217,-0.073946,0.069002,0.0,0.0,0.0,0,0
2026-06-16 15:33:47.827,40987,R_Hip,0.0535,0.0089,0.9919,0.25,-1.56,1.77,-20.51,26.35,-33.33,0.909268,-0.007385,-0.04178,-0.414014,0.0,0.0,0.0,0,0
2026-06-16 15:33:47.827,41139,L_Hip,0.1293,-0.0523,1.0214,-4.15,4.53,2.96,0.0,0.0,0.0,0.994598,-0.022217,-0.073916,0.069002,0.0,0.0,0.0,0,0
2026-06-16 15:33:47.829,41007,R_Hip,0.0145,0.0118,1.041,0.25,-1.56,1.75,0.0,0.0,0.0,0.909268,-0.007385,-0.04181,-0.414014,0.0,0.0,0.0,0,0
2026-06-16 15:33:47.830,41159,L_Hip,0.1543,-0.0926,1.0301,-4.15,4.54,2.96,-12.39,25.55,-28.69,0.994598,-0.022187,-0.073916,0.069002,0.0,0.0,0.0,0,0
2026-06-16 15:33:47.832,41027,R_Hip,0.0491,0.042,1.0087,0.25,-1.57,1.76,-21.24,27.81,-32.31,0.909268,-0.007355,-0.041749,-0.414014,0.0,0.0,0.0,0,0
2026-06-16 15:33:47.833,41179,L_Hip,0.1063,-0.0631,0.9735,-4.16,4.54,2.97,-11.36,25.25,-30.16,0.994598,-0.022187,-0.073946,0.069002,0.0,0.0,0.0,0,0
2026-06-16 15:33:47.835,41047,R_Hip,0.0313,0.0128,1.041,0.27,-1.56,1.76,-20.33,26.16,-32.82,0.909238,-0.007324,-0.04181,-0.414014,0.0,0.0,0.0,0,0
2026-06-16 15:33:47.836,41136,L_Shank,-0.0064,0.0005,1.0031,1.74,-1.19,-0.19,-5.0,16.55,-25.51,0.992004,-0.005036,-0.025788,0.123325,0.0,0.0,0.0,0,0
2026-06-16 15:33:47.837,41156,L_Shank,0.0042,-0.043,0.994,1.76,-1.16,-0.22,0.0,0.0,0.0,0.992004,-0.005005,-0.025788,0.123356,0.0,0.0,0.0,0,0
2026-06-16 15:33:47.839,41137,L_Shank,0.0125,-0.0102,0.9902,1.77,-1.16,-0.19,-5.36,15.84,-23.63,0.992004,-0.005005,-0.025788,0.123356,0.0,0.0,0.0,0,0
2026-06-16 15:33:47.841,41157,L_Shank,-0.0025,-0.0244,1.0017,1.74,-1.16,-0.21,-4.48,15.68,-24.41,0.992004,-0.005097,-0.025849,0.123356,0.0,0.0,0.0,0,0
2026-06-16 15:33:47.843,41141,L_Hip,0.1249,-0.0587,0.987,-4.16,4.54,2.97,-12.07,25.55,-27.82,0.994598,-0.022126,-0.073916,0.068972,0.0,0.0,0.0,0,0
2026-06-16 15:33:47.846,41010,R_Ankle,0.0214,-0.0116,1.0062,0.77,-1.7,-0.49,-27.8,29.62,-29.25,0.259316,0.091281,0.012421,0.961364,0.0,0.0,0.0,0,0
2026-06-16 15:33:47.847,41161,L_Hip,0.1342,-0.0661,0.9972,-4.16,4.55,2.98,0.0,0.0,0.0,0.994598,-0.022156,-0.073946,0.069002,0.0,0.0,0.0,0,0
2026-06-16 15:33:47.849,41030,R_Ankle,0.0351,-0.0185,1.0034,0.76,-1.7,-0.51,-28.83,29.94,-30.5,0.259316,0.091281,0.012421,0.961364,0.0,0.0,0.0,0,0
2026-06-16 15:33:47.850,41181,L_Hip,0.1298,-0.073,1.0001,-4.17,4.54,2.97,-13.89,26.0,-29.39,0.994598,-0.022156,-0.073946,0.068972,0.0,0.0,0.0,0,0
2026-06-16 15:33:47.852,41050,R_Ankle,0.014,-0.0235,1.0072,0.75,-1.71,-0.48,0.0,0.0,0.0,0.259346,0.091281,0.012452,0.961364,0.0,0.0,0.0,0,0
2026-06-16 15:33:47.854,41201,L_Hip,0.1279,-0.0749,0.9962,-4.15,4.54,2.98,-10.86,26.06,-28.86,0.994598,-0.022156,-0.073946,0.068972,0.0,0.0,0.0,0,0
2026-06-16 15:33:47.855,41070,R_Ankle,0.0366,-0.0364,1.0034,0.76,-1.68,-0.5,-29.51,29.61,-30.19,0.259346,0.091281,0.012421,0.961364,0.0,0.0,0.0,0,0
2026-06-16 15:33:47.857,41012,R_Hip,0.0436,0.0113,1.0025,0.25,-1.56,1.77,-18.69,27.44,-33.33,0.909238,-0.007294,-0.04178,-0.414045,0.0,0.0,0.0,0,0
2026-06-16 15:33:47.859,41032,R_Hip,0.0436,0.0006,0.9717,0.25,-1.55,1.78,0.0,0.0,0.0,0.909238,-0.007294,-0.04178,-0.414045,0.0,0.0,0.0,0,0
2026-06-16 15:33:47.860,41161,L_Shank,0.0076,-0.02,0.9873,1.76,-1.17,-0.19,-5.89,14.31,-23.45,0.992004,-0.005005,-0.025788,0.123356,0.0,0.0,0.0,0,0
2026-06-16 15:33:47.861,41052,R_Hip,0.0496,0.004,0.9962,0.26,-1.57,1.78,-20.33,27.26,-32.14,0.909238,-0.007294,-0.04178,-0.414014,0.0,0.0,0.0,0,0
2026-06-16 15:33:47.862,41181,L_Shank,0.0018,-0.0214,0.9791,1.75,-1.18,-0.2,0.0,0.0,0.0,0.992004,-0.005036,-0.025819,0.123356,0.0,0.0,0.0,0,0
2026-06-16 15:33:47.863,41072,R_Hip,0.0461,0.0191,0.9948,0.26,-1.56,1.77,-22.15,26.53,-31.8,0.909238,-0.007294,-0.04178,-0.414045,0.0,0.0,0.0,0,0
2026-06-16 15:33:47.864,41201,L_Shank,0.012,-0.0229,0.9906,1.75,-1.16,-0.19,-5.2,14.64,-22.84,0.992004,-0.005005,-0.025788,0.123325,0.0,0.0,0.0,0,0
2026-06-16 15:33:47.866,41027,R_Shank,0.091,2.8936,0.9864,-0.11,-1.48,-8.42,-19.73,21.55,-20.78,0.95587,0.033174,-0.024781,0.29078,0.0,0.0,0.0,0,0
2026-06-16 15:33:47.866,41162,L_Shank,0.014,-0.0156,0.9954,1.75,-1.17,-0.19,-5.2,14.98,-22.84,0.992004,-0.005036,-0.025788,0.123325,0.0,0.0,0.0,0,0
2026-06-16 15:33:47.868,41047,R_Shank,0.0478,-1.9956,1.0205,-0.1,-1.46,-8.42,-21.3,23.41,-19.69,0.95587,0.033143,-0.024873,0.29078,0.0,0.0,0.0,0,0
2026-06-16 15:33:47.869,41067,R_Shank,0.0443,0.698,1.0455,-0.1,-1.47,-8.42,0.0,0.0,0.0,0.95587,0.033113,-0.024934,0.29078,0.0,0.0,0.0,0,0
2026-06-16 15:33:47.871,41087,R_Shank,0.0453,-0.8432,1.0253,-0.09,-1.48,-8.41,-21.62,23.4,-20.59,0.95587,0.033113,-0.024964,0.29078,0.0,0.0,0.0,0,0
2026-06-16 15:33:47.873,41177,L_Ankle,0.1673,0.0227,1.0413,5.38,-0.81,-10.29,-54.29,-29.85,-36.69,0.982452,0.034181,-0.073214,0.167913,0.0,0.0,0.0,0,0
2026-06-16 15:33:47.874,41037,R_Hip,0.052,0.0108,0.9876,0.26,-1.58,1.77,-19.41,27.44,-31.28,0.909238,-0.007294,-0.04178,-0.414014,0.0,0.0,0.0,0,0
2026-06-16 15:33:47.875,41197,L_Ankle,0.1467,0.0383,1.0125,5.39,-0.83,-10.29,0.0,0.0,0.0,0.982452,0.03412,-0.073214,0.167943,0.0,0.0,0.0,0,0
2026-06-16 15:33:47.876,41057,R_Hip,0.0466,0.002,0.9905,0.25,-1.56,1.77,0.0,0.0,0.0,0.909238,-0.007294,-0.04181,-0.414014,0.0,0.0,0.0,0,0
2026-06-16 15:33:47.878,41217,L_Ankle,0.1222,0.0124,0.9803,5.41,-0.82,-10.29,-54.12,-28.97,-36.17,0.982452,0.03415,-0.073214,0.167913,0.0,0.0,0.0,0,0
2026-06-16 15:33:47.878,41077,R_Hip,0.0486,0.0103,0.9996,0.25,-1.55,1.77,-20.69,25.79,-31.79,0.909238,-0.007294,-0.04178,-0.414045,0.0,0.0,0.0,0,0
2026-06-16 15:33:47.880,41097,R_Hip,0.0486,0.004,1.0049,0.26,-1.56,1.78,-21.42,26.89,-32.14,0.909238,-0.007294,-0.04178,-0.414014,0.0,0.0,0.0,0,0
2026-06-16 15:33:47.881,41237,L_Ankle,0.1315,0.0305,0.9962,5.39,-0.82,-10.3,-54.44,-32.15,-36.87,0.982452,0.034089,-0.073214,0.167943,0.0,0.0,0.0,0,0
2026-06-16 15:33:47.883,41049,R_Shank,0.0483,0.698,1.0066,-0.09,-1.47,-8.42,-20.29,23.71,-20.3,0.95587,0.033113,-0.024934,0.29078,0.0,0.0,0.0,0,0
2026-06-16 15:33:47.884,41069,R_Shank,0.0458,-1.4844,1.0061,-0.09,-1.45,-8.41,0.0,0.0,0.0,0.95587,0.033113,-0.024964,0.29078,0.0,0.0,0.0,0,0
2026-06-16 15:33:47.886,41089,R_Shank,0.0404,-2.2548,1.0196,-0.09,-1.44,-8.41,-21.6,22.73,-21.8,0.95587,0.033082,-0.024964,0.290811,0.0,0.0,0.0,0,0
2026-06-16 15:33:47.889,41109,R_Shank,0.0389,-1.232,1.0037,-0.09,-1.47,-8.43,-20.43,23.21,-21.66,0.95587,0.033082,-0.024934,0.290811,0.0,0.0,0.0,0,0
2026-06-16 15:33:47.890,41054,R_Ankle,0.0478,-0.0166,0.9899,0.76,-1.71,-0.49,-28.67,29.79,-30.95,0.259316,0.091403,0.012391,0.961364,0.0,0.0,0.0,0,0
2026-06-16 15:33:47.892,41074,R_Ankle,0.0179,-0.0151,1.0292,0.77,-1.7,-0.48,0.0,0.0,0.0,0.259316,0.091281,0.012482,0.961364,0.0,0.0,0.0,0,0
2026-06-16 15:33:47.894,41094,R_Ankle,0.0077,-0.026,0.9904,0.77,-1.72,-0.49,-28.84,28.35,-29.86,0.259316,0.091342,0.012482,0.961364,0.0,0.0,0.0,0,0
2026-06-16 15:33:47.895,41199,L_Ankle,0.132,0.0276,1.0139,5.42,-0.82,-10.29,-54.83,-30.02,-37.21,0.982452,0.03412,-0.073214,0.167943,0.0,0.0,0.0,0,0
2026-06-16 15:33:47.896,41114,R_Ankle,0.0199,-0.02,1.0034,0.76,-1.73,-0.5,-28.14,29.62,-29.87,0.259316,0.091372,0.012452,0.961364,0.0,0.0,0.0,0,0
2026-06-16 15:33:47.897,41219,L_Ankle,0.1237,0.0173,0.9822,5.41,-0.83,-10.29,0.0,0.0,0.0,0.982452,0.03412,-0.073244,0.167913,0.0,0.0,0.0,0,0
2026-06-16 15:33:47.899,41239,L_Ankle,0.1354,0.0197,0.9933,5.4,-0.83,-10.29,-55.33,-29.83,-36.03,0.982452,0.03415,-0.073214,0.167913,0.0,0.0,0.0,0,0
2026-06-16 15:33:47.901,41259,L_Ankle,0.1276,0.0236,0.9818,5.41,-0.81,-10.31,-54.48,-31.1,-38.57,0.982452,0.03415,-0.073214,0.167913,0.0,0.0,0.0,0,0
2026-06-16 15:33:47.905,41209,L_Hip,0.1283,-0.0705,0.9846,-4.15,4.55,2.97,-13.23,25.69,-28.82,0.994598,-0.022126,-0.073946,0.068972,0.0,0.0,0.0,0,0
2026-06-16 15:33:47.906,41072,R_Shank,0.0326,1.5984,1.0138,-0.09,-1.46,-8.42,-19.94,24.36,-21.81,0.95587,0.033082,-0.024934,0.290811,0.0,0.0,0.0,0,0
2026-06-16 15:33:47.907,41229,L_Hip,0.1215,-0.0676,0.9778,-4.16,4.54,2.98,0.0,0.0,0.0,0.994598,-0.022126,-0.073977,0.068972,0.0,0.0,0.0,0,0
2026-06-16 15:33:47.909,41092,R_Shank,0.0296,3.2692,1.0297,-0.1,-1.47,-8.41,0.0,0.0,0.0,0.95587,0.033082,-0.024934,0.290811,0.0,0.0,0.0,0,0
2026-06-16 15:33:47.910,41249,L_Hip,0.1269,-0.0744,0.9977,-4.16,4.54,2.96,-12.07,24.9,-28.11,0.994598,-0.022156,-0.073946,0.069002,0.0,0.0,0.0,0,0
2026-06-16 15:33:47.911,41112,R_Shank,0.0414,-1.7432,1.0104,-0.09,-1.46,-8.41,-21.12,24.21,-21.65,0.95587,0.033082,-0.024903,0.290811,0.0,0.0,0.0,0,0
2026-06-16 15:33:47.913,41269,L_Hip,0.118,-0.0739,0.9924,-4.16,4.54,2.97,-13.08,25.21,-28.39,0.994598,-0.022156,-0.073977,0.069002,0.0,0.0,0.0,0,0
2026-06-16 15:33:47.914,41132,R_Shank,0.0365,-1.6136,1.0152,-0.09,-1.48,-8.41,-19.95,23.7,-20.61,0.95587,0.033052,-0.024903,0.290811,0.0,0.0,0.0,0,0
2026-06-16 15:33:47.915,41211,L_Shank,-0.0035,-0.0204,0.982,1.74,-1.16,-0.19,-4.67,14.14,-23.3,0.992004,-0.005036,-0.025788,0.123325,0.0,0.0,0.0,0,0
2026-06-16 15:33:47.917,41231,L_Shank,-0.001,-0.0204,0.9758,1.75,-1.15,-0.2,-5.37,15.16,-23.31,0.992004,-0.005066,-0.025819,0.123325,0.0,0.0,0.0,0,0
2026-06-16 15:33:47.917,41077,R_Ankle,0.0219,-0.0111,1.0029,0.77,-1.7,-0.49,-28.65,29.45,-29.1,0.259316,0.091372,0.012452,0.961364,0.0,0.0,0.0,0,0
2026-06-16 15:33:47.919,41251,L_Shank,0.0072,-0.0209,1.0031,1.75,-1.17,-0.18,0.0,0.0,0.0,0.992004,-0.005066,-0.025849,0.123325,0.0,0.0,0.0,0,0
2026-06-16 15:33:47.920,41097,R_Ankle,0.0199,-0.0185,1.0014,0.77,-1.7,-0.48,0.0,0.0,0.0,0.259316,0.091372,0.012452,0.961364,0.0,0.0,0.0,0,0
2026-06-16 15:33:47.922,41271,L_Shank,0.0008,-0.0293,1.0031,1.75,-1.17,-0.19,-6.07,15.49,-23.0,0.992004,-0.005036,-0.025819,0.123356,0.0,0.0,0.0,0,0
2026-06-16 15:33:47.922,41117,R_Ankle,0.0135,-0.0156,0.9919,0.76,-1.7,-0.48,-26.62,29.48,-30.31,0.259316,0.091372,0.012452,0.961364,0.0,0.0,0.0,0,0
2026-06-16 15:33:47.924,41137,R_Ankle,0.0121,-0.0161,1.0158,0.76,-1.7,-0.49,-27.63,29.46,-29.71,0.259316,0.091372,0.012482,0.961364,0.0,0.0,0.0,0,0
2026-06-16 15:33:47.925,41221,L_Ankle,0.1344,0.0129,0.9813,5.41,-0.83,-10.29,-53.57,-30.57,-36.0,0.982452,0.03415,-0.073214,0.167913,0.0,0.0,0.0,0,0
2026-06-16 15:33:47.927,41087,R_Hip,0.056,0.0074,1.0102,0.26,-1.56,1.77,-20.51,26.71,-31.96,0.909238,-0.007263,-0.041749,-0.414045,0.0,0.0,0.0,0,0
2026-06-16 15:33:47.927,41241,L_Ankle,0.1388,0.0251,1.0077,5.4,-0.83,-10.29,0.0,0.0,0.0,0.982452,0.03415,-0.073183,0.167913,0.0,0.0,0.0,0,0
2026-06-16 15:33:47.929,41107,R_Hip,0.0412,0.0098,1.0044,0.25,-1.54,1.76,-19.96,27.99,-32.82,0.909238,-0.007263,-0.04178,-0.414045,0.0,0.0,0.0,0,0
2026-06-16 15:33:47.930,41261,L_Ankle,0.1423,0.0188,0.9904,5.4,-0.83,-10.29,-54.46,-30.74,-36.87,0.982482,0.03415,-0.073183,0.167913,0.0,0.0,0.0,0,0
2026-06-16 15:33:47.932,41127,R_Hip,0.0525,0.0054,1.001,0.23,-1.55,1.77,-20.51,27.8,-31.28,0.909238,-0.007263,-0.04178,-0.414045,0.0,0.0,0.0,0,0
2026-06-16 15:33:47.932,41222,L_Ankle,0.132,0.0168,1.0029,5.41,-0.82,-10.29,-53.76,-30.75,-36.85,0.982452,0.03415,-0.073183,0.167913,0.0,0.0,0.0,0,0
2026-06-16 15:33:47.935,41147,R_Hip,0.0515,0.0006,0.9948,0.25,-1.55,1.76,-20.51,25.62,-34.01,0.909238,-0.007263,-0.04178,-0.414045,0.0,0.0,0.0,0,0
2026-06-16 15:33:47.936,41231,L_Hip,0.1151,-0.0749,0.9982,-4.16,4.54,2.96,-13.94,25.03,-27.36,0.994598,-0.022126,-0.073977,0.069002,0.0,0.0,0.0,0,0
2026-06-16 15:33:47.938,41251,L_Hip,0.1357,-0.073,0.9938,-4.15,4.54,2.97,0.0,0.0,0.0,0.994598,-0.022156,-0.074007,0.069002,0.0,0.0,0.0,0,0
2026-06-16 15:33:47.938,41094,R_Shank,0.0389,-1.1024,1.0181,-0.06,-1.45,-8.41,-22.64,23.43,-19.98,0.95584,0.033052,-0.024934,0.290841,0.0,0.0,0.0,0,0
2026-06-16 15:33:47.940,41271,L_Hip,0.1254,-0.0661,0.9977,-4.14,4.54,2.99,-11.92,24.74,-27.39,0.994598,-0.022187,-0.073977,0.069002,0.0,0.0,0.0,0,0
2026-06-16 15:33:47.941,41114,R_Shank,0.0355,-1.6136,1.0157,-0.08,-1.45,-8.41,0.0,0.0,0.0,0.95584,0.033082,-0.024903,0.290841,0.0,0.0,0.0,0,0
2026-06-16 15:33:47.943,41232,L_Hip,0.118,-0.0793,0.9992,-4.14,4.54,2.98,-12.08,24.58,-28.11,0.994598,-0.022187,-0.073977,0.069002,0.0,0.0,0.0,0,0
2026-06-16 15:33:47.943,41134,R_Shank,0.0492,1.4688,1.0119,-0.08,-1.43,-8.44,-20.1,23.21,-20.76,0.95584,0.033082,-0.024873,0.290841,0.0,0.0,0.0,0,0
2026-06-16 15:33:47.945,41236,L_Shank,-0.0074,-0.0283,1.007,1.75,-1.18,-0.19,-4.84,15.67,-23.48,0.992004,-0.005005,-0.025819,0.123356,0.0,0.0,0.0,0,0
2026-06-16 15:33:47.946,41154,R_Shank,0.0532,0.698,1.0076,-0.07,-1.46,-8.44,-21.28,23.39,-21.5,0.95587,0.033082,-0.024903,0.290841,0.0,0.0,0.0,0,0
2026-06-16 15:33:47.947,41256,L_Shank,0.012,-0.017,1.0022,1.74,-1.19,-0.19,-5.02,14.49,-23.62,0.992004,-0.005036,-0.025788,0.123356,0.0,0.0,0.0,0,0
2026-06-16 15:33:47.948,41276,L_Shank,0.0072,-0.016,0.981,1.76,-1.13,-0.21,0.0,0.0,0.0,0.992004,-0.005036,-0.025819,0.123356,0.0,0.0,0.0,0,0
2026-06-16 15:33:47.950,41296,L_Shank,0.0042,-0.02,1.0002,1.77,-1.14,-0.19,-5.02,14.82,-23.0,0.992004,-0.005066,-0.025849,0.123356,0.0,0.0,0.0,0,0
2026-06-16 15:33:47.952,41244,L_Ankle,0.1364,0.03,0.9957,5.4,-0.8,-10.29,-54.28,-30.92,-37.03,0.982452,0.03415,-0.073214,0.167913,0.0,0.0,0.0,0,0
2026-06-16 15:33:47.954,41264,L_Ankle,0.1359,0.0163,0.9861,5.41,-0.82,-10.29,0.0,0.0,0.0,0.982452,0.03415,-0.073214,0.167913,0.0,0.0,0.0,0,0
2026-06-16 15:33:47.956,41284,L_Ankle,0.1286,0.0271,1.0014,5.41,-0.82,-10.31,-55.32,-30.19,-35.69,0.982452,0.03415,-0.073244,0.167943,0.0,0.0,0.0,0,0
2026-06-16 15:33:47.958,41304,L_Ankle,0.1325,0.0178,1.0,5.4,-0.81,-10.29,-53.75,-29.32,-35.15,0.982452,0.03415,-0.073214,0.167943,0.0,0.0,0.0,0,0
2026-06-16 15:33:47.959,41254,L_Hip,0.1308,-0.0685,1.0001,-4.15,4.54,2.96,-13.26,24.4,-28.53,0.994598,-0.022187,-0.073977,0.069002,0.0,0.0,0.0,0,0
2026-06-16 15:33:47.961,41274,L_Hip,0.1357,-0.072,0.9929,-4.15,4.54,2.96,0.0,0.0,0.0,0.994598,-0.022156,-0.073977,0.069002,0.0,0.0,0.0,0,0
2026-06-16 15:33:47.963,41294,L_Hip,0.1303,-0.0744,0.9933,-4.15,4.55,2.97,-12.57,26.02,-27.67,0.994598,-0.022187,-0.073946,0.069002,0.0,0.0,0.0,0,0
2026-06-16 15:33:47.964,41314,L_Hip,0.1264,-0.0725,0.9846,-4.15,4.54,2.96,-12.55,26.67,-27.96,0.994598,-0.022156,-0.073977,0.069002,0.0,0.0,0.0,0,0
2026-06-16 15:33:47.971,41137,R_Hip,0.0545,0.0142,0.9847,0.25,-1.56,1.78,-19.78,27.44,-31.62,0.909238,-0.007294,-0.041749,-0.414045,0.0,0.0,0.0,0,0
2026-06-16 15:33:47.973,41157,R_Hip,0.055,0.0045,1.0006,0.25,-1.54,1.76,-20.87,26.71,-31.62,0.909238,-0.007263,-0.04178,-0.414045,0.0,0.0,0.0,0,0
2026-06-16 15:33:47.974,41177,R_Hip,0.0427,0.0015,1.0112,0.25,-1.54,1.77,-20.15,28.54,-32.65,0.909238,-0.007294,-0.04178,-0.414045,0.0,0.0,0.0,0,0
2026-06-16 15:33:47.976,41197,R_Hip,0.0427,0.0064,1.0078,0.25,-1.56,1.77,-21.6,26.35,-32.65,0.909238,-0.007294,-0.041749,-0.414045,0.0,0.0,0.0,0,0
2026-06-16 15:33:47.978,41139,R_Shank,0.0458,-0.8432,1.0128,-0.09,-1.45,-8.42,-20.77,23.22,-21.36,0.95587,0.033113,-0.024903,0.290841,0.0,0.0,0.0,0,0
2026-06-16 15:33:47.980,41159,R_Shank,0.0438,-2.6436,1.01,-0.08,-1.47,-8.42,-22.77,21.93,-21.04,0.95584,0.033113,-0.024903,0.290841,0.0,0.0,0.0,0,0
2026-06-16 15:33:47.982,41179,R_Shank,0.0507,-1.6136,1.0109,-0.08,-1.47,-8.43,-21.47,24.23,-20.44,0.95584,0.033143,-0.024903,0.290841,0.0,0.0,0.0,0,0
2026-06-16 15:33:47.983,41287,L_Shank,0.0028,-0.0268,0.9978,1.75,-1.19,-0.2,-4.32,13.81,-23.61,0.992004,-0.005097,-0.025849,0.123356,0.0,0.0,0.0,0,0
2026-06-16 15:33:47.985,41199,R_Shank,0.0502,0.698,1.0253,-0.09,-1.47,-8.41,-20.26,23.04,-21.51,0.95584,0.033143,-0.024934,0.290841,0.0,0.0,0.0,0,0
2026-06-16 15:33:47.986,41307,L_Shank,0.0003,-0.019,1.0017,1.75,-1.19,-0.19,-5.54,15.34,-23.78,0.992004,-0.005097,-0.025819,0.123325,0.0,0.0,0.0,0,0
2026-06-16 15:33:47.988,41144,R_Ankle,0.014,-0.0161,1.0034,0.77,-1.71,-0.5,-29.34,29.46,-30.03,0.259316,0.091342,0.012482,0.961364,0.0,0.0,0.0,0,0
2026-06-16 15:33:47.989,41327,L_Shank,-0.0006,-0.017,0.9854,1.74,-1.18,-0.19,0.0,0.0,0.0,0.992004,-0.005066,-0.025819,0.123325,0.0,0.0,0.0,0,0
2026-06-16 15:33:47.990,41164,R_Ankle,0.0282,-0.0146,1.0163,0.77,-1.71,-0.48,0.0,0.0,0.0,0.259316,0.091311,0.012482,0.961364,0.0,0.0,0.0,0,0
2026-06-16 15:33:47.991,41347,L_Shank,0.0111,-0.0214,0.9902,1.75,-1.17,-0.19,-5.0,15.19,-25.18,0.992004,-0.005066,-0.025849,0.123325,0.0,0.0,0.0,0,0
2026-06-16 15:33:47.992,41184,R_Ankle,0.0116,-0.0146,1.0034,0.76,-1.7,-0.49,-27.99,29.16,-30.63,0.259316,0.091342,0.012482,0.961364,0.0,0.0,0.0,0,0
2026-06-16 15:33:47.994,41289,L_Ankle,0.13,0.0207,1.0115,5.41,-0.83,-10.29,-54.12,-31.1,-37.54,0.982452,0.03415,-0.073214,0.167913,0.0,0.0,0.0,0,0
2026-06-16 15:33:47.995,41204,R_Ankle,0.0155,-0.0126,1.0034,0.75,-1.7,-0.49,-28.16,29.0,-31.09,0.259316,0.091342,0.012482,0.961364,0.0,0.0,0.0,0,0
2026-06-16 15:33:47.996,41309,L_Ankle,0.1315,0.0261,0.9995,5.4,-0.8,-10.29,0.0,0.0,0.0,0.982452,0.03415,-0.073214,0.167943,0.0,0.0,0.0,0,0
2026-06-16 15:33:47.998,41162,R_Hip,0.0382,0.0108,1.0189,0.26,-1.56,1.77,-21.24,25.98,-32.31,0.909238,-0.007294,-0.041749,-0.414045,0.0,0.0,0.0,0,0
2026-06-16 15:33:47.999,41329,L_Ankle,0.1344,0.0197,0.9923,5.41,-0.8,-10.29,-54.14,-29.68,-37.54,0.982452,0.034181,-0.073214,0.167943,0.0,0.0,0.0,0,0
2026-06-16 15:33:48.000,41182,R_Hip,0.0441,0.0015,0.9866,0.25,-1.55,1.77,-21.24,25.25,-32.3,0.909238,-0.007263,-0.041749,-0.414045,0.0,0.0,0.0,0,0
2026-06-16 15:33:48.001,41349,L_Ankle,0.1369,0.0227,0.9962,5.41,-0.82,-10.29,-54.11,-29.67,-35.84,0.982452,0.034181,-0.073214,0.167943,0.0,0.0,0.0,0,0
2026-06-16 15:33:48.002,41202,R_Hip,0.0466,0.0108,0.9842,0.25,-1.55,1.76,-19.78,27.07,-31.96,0.909238,-0.007294,-0.041719,-0.414045,0.0,0.0,0.0,0,0
2026-06-16 15:33:48.004,41299,L_Hip,0.1298,-0.071,0.9837,-4.15,4.54,2.97,-13.57,26.33,-27.95,0.994598,-0.022156,-0.074007,0.069002,0.0,0.0,0.0,0,0
2026-06-16 15:33:48.005,41222,R_Hip,0.0461,0.0128,0.9914,0.25,-1.55,1.78,-20.14,26.34,-31.96,0.909238,-0.007263,-0.041719,-0.414045,0.0,0.0,0.0,0,0
2026-06-16 15:33:48.006,41319,L_Hip,0.1249,-0.0671,0.99,-4.15,4.54,2.97,-11.72,25.56,-28.12,0.994598,-0.022156,-0.073977,0.068972,0.0,0.0,0.0,0,0
2026-06-16 15:33:48.007,41167,R_Ankle,0.0224,-0.021,1.0058,0.75,-1.72,-0.48,-28.14,29.94,-29.87,0.259316,0.091342,0.012482,0.961364,0.0,0.0,0.0,0,0
2026-06-16 15:33:48.008,41339,L_Hip,0.1195,-0.071,0.9992,-4.15,4.54,2.96,-11.25,24.76,-27.1,0.994598,-0.022156,-0.074007,0.069002,0.0,0.0,0.0,0,0
2026-06-16 15:33:48.009,41187,R_Ankle,0.0194,-0.0136,0.9904,0.77,-1.72,-0.5,0.0,0.0,0.0,0.259316,0.091342,0.012452,0.961364,0.0,0.0,0.0,0,0
2026-06-16 15:33:48.010,41359,L_Hip,0.1176,-0.0705,0.9914,-4.15,4.54,2.97,0.0,0.0,0.0,0.994598,-0.022187,-0.073977,0.069002,0.0,0.0,0.0,0,0
2026-06-16 15:33:48.011,41207,R_Ankle,0.0224,-0.02,1.012,0.77,-1.71,-0.48,-26.61,28.83,-29.38,0.259285,0.091372,0.012452,0.961364,0.0,0.0,0.0,0,0
2026-06-16 15:33:48.013,41227,R_Ankle,0.0219,-0.0205,1.0058,0.77,-1.7,-0.5,-27.96,31.38,-30.35,0.259316,0.091372,0.012452,0.961364,0.0,0.0,0.0,0,0
2026-06-16 15:33:48.019,41185,R_Shank,0.0355,1.4688,1.0191,-0.09,-1.45,-8.41,-21.31,24.39,-20.59,0.95584,0.033174,-0.024934,0.290841,0.0,0.0,0.0,0,0
2026-06-16 15:33:48.020,41205,R_Shank,0.0483,1.4688,0.9984,-0.08,-1.46,-8.41,-21.11,23.88,-21.95,0.95584,0.033174,-0.024903,0.290841,0.0,0.0,0.0,0,0
2026-06-16 15:33:48.022,41225,R_Shank,0.0434,3.1396,1.0128,-0.09,-1.47,-8.41,-20.77,22.89,-20.76,0.95584,0.033174,-0.024903,0.290841,0.0,0.0,0.0,0,0
2026-06-16 15:33:48.023,41245,R_Shank,0.0448,-2.7732,1.0128,-0.09,-1.46,-8.41,0.0,0.0,0.0,0.95584,0.033204,-0.024903,0.290872,0.0,0.0,0.0,0,0
2026-06-16 15:33:48.030,41335,L_Ankle,0.1266,0.0158,1.0038,5.4,-0.8,-10.29,-53.58,-30.22,-36.34,0.982452,0.034181,-0.073214,0.167943,0.0,0.0,0.0,0,0
2026-06-16 15:33:48.032,41355,L_Ankle,0.1359,0.0236,0.9904,5.41,-0.8,-10.29,-53.4,-30.75,-36.17,0.982452,0.034211,-0.073244,0.167943,0.0,0.0,0.0,0,0
2026-06-16 15:33:48.033,41375,L_Ankle,0.1339,0.0241,0.9995,5.41,-0.81,-10.29,0.0,0.0,0.0,0.982452,0.034211,-0.073244,0.167943,0.0,0.0,0.0,0,0
2026-06-16 15:33:48.035,41395,L_Ankle,0.1379,0.0212,1.0043,5.41,-0.81,-10.29,-53.94,-29.5,-36.34,0.982452,0.034181,-0.073244,0.167943,0.0,0.0,0.0,0,0
2026-06-16 15:33:48.037,41336,L_Shank,-0.0001,-0.0141,0.9945,1.76,-1.14,-0.2,-4.14,15.34,-24.1,0.992004,-0.005097,-0.025849,0.123325,0.0,0.0,0.0,0,0
2026-06-16 15:33:48.038,41356,L_Shank,0.0042,-0.0209,0.9738,1.75,-1.14,-0.19,-5.54,15.33,-23.47,0.992004,-0.005127,-0.02588,0.123356,0.0,0.0,0.0,0,0
2026-06-16 15:33:48.040,41376,L_Shank,0.0018,-0.0234,0.9978,1.75,-1.17,-0.19,0.0,0.0,0.0,0.992004,-0.005127,-0.02588,0.123356,0.0,0.0,0.0,0,0
2026-06-16 15:33:48.042,41396,L_Shank,0.0062,-0.018,0.9911,1.74,-1.17,-0.19,-4.49,14.66,-24.09,0.992004,-0.005127,-0.02588,0.123325,0.0,0.0,0.0,0,0
2026-06-16 15:33:48.044,41344,L_Hip,0.1259,-0.0671,0.9953,-4.16,4.54,2.98,-12.44,24.25,-26.94,0.994598,-0.022156,-0.074007,0.069002,0.0,0.0,0.0,0,0
2026-06-16 15:33:48.046,41364,L_Hip,0.122,-0.0685,0.99,-4.16,4.54,2.98,-11.73,25.56,-27.83,0.994598,-0.022156,-0.074007,0.069002,0.0,0.0,0.0,0,0
2026-06-16 15:33:48.046,41212,R_Hip,0.0496,0.0059,0.9996,0.26,-1.56,1.77,-20.32,25.06,-31.45,0.909238,-0.007233,-0.041749,-0.414045,0.0,0.0,0.0,0,0
2026-06-16 15:33:48.048,41384,L_Hip,0.1259,-0.0759,0.9948,-4.15,4.55,2.96,0.0,0.0,0.0,0.994598,-0.022156,-0.074007,0.069002,0.0,0.0,0.0,0,0
2026-06-16 15:33:48.048,41232,R_Hip,0.0496,0.0006,0.9948,0.25,-1.56,1.77,-20.51,27.44,-31.97,0.909238,-0.007233,-0.041749,-0.414045,0.0,0.0,0.0,0,0
2026-06-16 15:33:48.050,41404,L_Hip,0.12,-0.0671,0.9837,-4.16,4.55,2.98,-11.54,26.37,-27.98,0.994598,-0.022126,-0.074007,0.069002,0.0,0.0,0.0,0,0
2026-06-16 15:33:48.050,41252,R_Hip,0.0466,0.0093,0.9885,0.27,-1.56,1.77,-20.51,27.81,-32.31,0.909238,-0.007263,-0.04178,-0.414045,0.0,0.0,0.0,0,0
2026-06-16 15:33:48.052,41272,R_Hip,0.0461,0.0118,0.9905,0.25,-1.57,1.78,-19.42,27.07,-32.31,0.909238,-0.007263,-0.04178,-0.414045,0.0,0.0,0.0,0,0
2026-06-16 15:33:48.057,41361,L_Shank,0.0081,-0.0165,1.0002,1.74,-1.16,-0.19,-5.01,16.19,-23.95,0.992004,-0.005097,-0.02588,0.123325,0.0,0.0,0.0,0,0
2026-06-16 15:33:48.059,41381,L_Shank,0.0072,-0.0204,0.9935,1.76,-1.15,-0.2,-6.06,14.83,-23.92,0.992004,-0.005127,-0.025849,0.123356,0.0,0.0,0.0,0,0
2026-06-16 15:33:48.060,41401,L_Shank,0.0052,-0.0146,0.9825,1.76,-1.16,-0.19,-6.24,14.66,-23.76,0.992004,-0.005127,-0.02588,0.123356,0.0,0.0,0.0,0,0
2026-06-16 15:33:48.062,41421,L_Shank,0.0116,-0.0195,0.9786,1.77,-1.16,-0.19,0.0,0.0,0.0,0.992004,-0.005127,-0.02588,0.123325,0.0,0.0,0.0,0,0
2026-06-16 15:33:48.063,41229,R_Shank,0.0434,-2.6436,1.0071,-0.08,-1.45,-8.41,-20.94,22.73,-20.6,0.95584,0.033204,-0.024903,0.290872,0.0,0.0,0.0,0,0
2026-06-16 15:33:48.065,41249,R_Shank,0.0365,-1.1024,1.0076,-0.09,-1.46,-8.41,-21.29,23.72,-21.2,0.95584,0.033204,-0.024903,0.290872,0.0,0.0,0.0,0,0
2026-06-16 15:33:48.066,41269,R_Shank,0.0497,1.4688,1.0128,-0.09,-1.45,-8.41,0.0,0.0,0.0,0.95584,0.033204,-0.024903,0.290902,0.0,0.0,0.0,0,0
2026-06-16 15:33:48.068,41289,R_Shank,0.0375,-1.7432,1.0176,-0.09,-1.46,-8.43,-20.62,23.71,-20.9,0.95584,0.033204,-0.024903,0.290902,0.0,0.0,0.0,0,0
2026-06-16 15:33:48.069,41235,R_Ankle,0.0248,-0.0176,1.0062,0.77,-1.7,-0.49,-29.0,29.78,-30.34,0.259285,0.091372,0.012452,0.961364,0.0,0.0,0.0,0,0
2026-06-16 15:33:48.071,41255,R_Ankle,0.0194,-0.0136,0.9976,0.77,-1.7,-0.49,0.0,0.0,0.0,0.259285,0.091372,0.012452,0.961364,0.0,0.0,0.0,0,0
2026-06-16 15:33:48.073,41275,R_Ankle,0.0238,-0.0195,0.9976,0.76,-1.7,-0.5,-29.51,30.26,-30.81,0.259316,0.091372,0.012452,0.961364,0.0,0.0,0.0,0,0
2026-06-16 15:33:48.074,41295,R_Ankle,0.0179,-0.0166,0.9957,0.77,-1.71,-0.49,-27.8,29.62,-29.87,0.259316,0.091372,0.012452,0.961364,0.0,0.0,0.0,0,0
2026-06-16 15:33:48.085,41389,L_Hip,0.1229,-0.0676,0.9987,-4.16,4.55,2.99,-12.24,25.71,-27.38,0.994598,-0.022126,-0.074007,0.069002,0.0,0.0,0.0,0,0
2026-06-16 15:33:48.086,41252,R_Shank,0.0375,-1.7432,0.998,-0.09,-1.47,-8.42,-21.62,23.73,-21.49,0.95584,0.033174,-0.024873,0.290902,0.0,0.0,0.0,0,0
2026-06-16 15:33:48.087,41409,L_Hip,0.1269,-0.0784,0.987,-4.16,4.55,2.97,-12.54,26.67,-28.25,0.994598,-0.022126,-0.074007,0.069002,0.0,0.0,0.0,0,0
2026-06-16 15:33:48.089,41272,R_Shank,0.0443,-2.514,1.0186,-0.09,-1.48,-8.42,-20.76,22.88,-21.66,0.95584,0.033174,-0.024873,0.290902,0.0,0.0,0.0,0,0
2026-06-16 15:33:48.090,41429,L_Hip,0.1269,-0.0739,0.9962,-4.16,4.54,2.98,0.0,0.0,0.0,0.994598,-0.022095,-0.073977,0.069002,0.0,0.0,0.0,0,0
2026-06-16 15:33:48.091,41292,R_Shank,0.0419,2.3688,1.0172,-0.1,-1.45,-8.43,0.0,0.0,0.0,0.95584,0.033174,-0.024873,0.290902,0.0,0.0,0.0,0,0
2026-06-16 15:33:48.092,41449,L_Hip,0.119,-0.0739,0.9914,-4.15,4.54,2.98,-13.05,25.86,-29.26,0.994598,-0.022095,-0.073977,0.069002,0.0,0.0,0.0,0,0
2026-06-16 15:33:48.093,41312,R_Shank,0.0424,-2.6436,1.0148,-0.09,-1.45,-8.41,-20.28,23.71,-20.91,0.95584,0.033174,-0.024873,0.290902,0.0,0.0,0.0,0,0
2026-06-16 15:33:48.095,41257,R_Ankle,0.0238,-0.0131,1.0187,0.77,-1.7,-0.49,-28.82,30.26,-30.19,0.259285,0.091403,0.012452,0.961364,0.0,0.0,0.0,0,0
2026-06-16 15:33:48.096,41277,R_Ankle,0.0302,-0.0072,1.0019,0.77,-1.7,-0.48,0.0,0.0,0.0,0.259285,0.091403,0.012452,0.961364,0.0,0.0,0.0,0,0
2026-06-16 15:33:48.097,41401,L_Ankle,0.1369,0.0188,0.977,5.41,-0.83,-10.31,-54.8,-30.37,-36.19,0.982452,0.034211,-0.073244,0.167943,0.0,0.0,0.0,0,0
2026-06-16 15:33:48.098,41297,R_Ankle,0.0248,-0.0161,0.9986,0.77,-1.7,-0.49,-28.15,29.31,-30.48,0.259285,0.091433,0.012482,0.961364,0.0,0.0,0.0,0,0
2026-06-16 15:33:48.099,41421,L_Ankle,0.1335,0.0236,0.9894,5.41,-0.83,-10.29,-53.22,-30.93,-36.33,0.982452,0.034211,-0.073214,0.167943,0.0,0.0,0.0,0,0
2026-06-16 15:33:48.101,41317,R_Ankle,0.0194,-0.0146,1.0129,0.77,-1.69,-0.5,-27.8,30.59,-30.8,0.259285,0.091433,0.012482,0.961364,0.0,0.0,0.0,0,0
2026-06-16 15:33:48.102,41441,L_Ankle,0.1286,0.0202,0.9938,5.41,-0.83,-10.3,-55.31,-30.9,-35.69,0.982452,0.034211,-0.073214,0.167943,0.0,0.0,0.0,0,0
2026-06-16 15:33:48.103,41461,L_Ankle,0.1339,0.0227,0.9957,5.41,-0.82,-10.29,0.0,0.0,0.0,0.982452,0.034211,-0.073244,0.167943,0.0,0.0,0.0,0,0
2026-06-16 15:33:48.107,41411,L_Shank,-0.0035,-0.0204,0.9954,1.75,-1.16,-0.19,-6.06,14.49,-23.92,0.992004,-0.005127,-0.02588,0.123356,0.0,0.0,0.0,0,0
2026-06-16 15:33:48.109,41431,L_Shank,0.0018,-0.0126,0.9868,1.75,-1.19,-0.19,-4.83,15.69,-24.72,0.992004,-0.005127,-0.02588,0.123325,0.0,0.0,0.0,0,0
2026-06-16 15:33:48.110,41451,L_Shank,0.0057,-0.0229,0.993,1.74,-1.18,-0.21,0.0,0.0,0.0,0.992004,-0.005097,-0.02591,0.123356,0.0,0.0,0.0,0,0
2026-06-16 15:33:48.112,41471,L_Shank,0.0028,-0.0219,0.9954,1.75,-1.18,-0.21,-5.02,15.5,-23.63,0.992004,-0.005097,-0.02591,0.123325,0.0,0.0,0.0,0,0
2026-06-16 15:33:48.120,41424,L_Ankle,0.129,0.0222,0.9933,5.39,-0.81,-10.29,-52.88,-30.23,-35.99,0.982452,0.034211,-0.073244,0.167913,0.0,0.0,0.0,0,0
2026-06-16 15:33:48.122,41287,R_Hip,0.0525,0.0059,1.0044,0.25,-1.56,1.77,-20.33,27.26,-32.48,0.909238,-0.007263,-0.04178,-0.414045,0.0,0.0,0.0,0,0
2026-06-16 15:33:48.123,41444,L_Ankle,0.1256,0.0241,0.9741,5.39,-0.81,-10.3,-53.75,-30.39,-36.17,0.982452,0.034211,-0.073244,0.167913,0.0,0.0,0.0,0,0
2026-06-16 15:33:48.124,41307,R_Hip,0.0505,0.0113,0.9876,0.25,-1.56,1.78,-19.78,27.08,-32.99,0.909238,-0.007294,-0.04181,-0.414045,0.0,0.0,0.0,0,0
2026-06-16 15:33:48.125,41464,L_Ankle,0.1349,0.0188,0.9976,5.4,-0.82,-10.27,-55.32,-30.19,-35.35,0.982452,0.034211,-0.073275,0.167913,0.0,0.0,0.0,0,0
2026-06-16 15:33:48.126,41327,R_Hip,0.0382,0.0049,0.9962,0.26,-1.56,1.77,-19.23,27.99,-32.82,0.909238,-0.007263,-0.04181,-0.414045,0.0,0.0,0.0,0,0
2026-06-16 15:33:48.127,41484,L_Ankle,0.1266,0.0246,0.9986,5.4,-0.83,-10.28,0.0,0.0,0.0,0.982452,0.034211,-0.073275,0.167913,0.0,0.0,0.0,0,0
2026-06-16 15:33:48.128,41347,R_Hip,0.0461,-0.0042,1.0035,0.25,-1.55,1.77,-19.05,27.81,-34.02,0.909238,-0.007263,-0.04181,-0.414045,0.0,0.0,0.0,0,0
2026-06-16 15:33:48.129,41434,L_Hip,0.121,-0.072,0.9909,-4.15,4.54,2.97,-11.56,25.4,-27.97,0.994598,-0.022095,-0.073977,0.069002,0.0,0.0,0.0,0,0
2026-06-16 15:33:48.131,41454,L_Hip,0.1288,-0.0735,0.9885,-4.15,4.54,2.96,-12.89,26.02,-28.54,0.994598,-0.022126,-0.073977,0.069002,0.0,0.0,0.0,0,0
2026-06-16 15:33:48.133,41474,L_Hip,0.1225,-0.0793,1.0054,-4.14,4.54,2.97,0.0,0.0,0.0,0.994598,-0.022095,-0.073977,0.069002,0.0,0.0,0.0,0,0
2026-06-16 15:33:48.135,41494,L_Hip,0.1244,-0.0705,0.9924,-4.15,4.55,2.97,-11.08,23.95,-27.83,0.994598,-0.022095,-0.074007,0.069002,0.0,0.0,0.0,0,0
2026-06-16 15:33:48.136,41302,R_Ankle,0.0189,-0.0121,1.012,0.77,-1.74,-0.5,-28.66,29.78,-30.34,0.259285,0.091433,0.012482,0.961364,0.0,0.0,0.0,0,0
2026-06-16 15:33:48.138,41436,L_Shank,0.0008,-0.019,0.983,1.77,-1.16,-0.19,-5.89,13.97,-23.13,0.992004,-0.005097,-0.02591,0.123325,0.0,0.0,0.0,0,0
2026-06-16 15:33:48.138,41322,R_Ankle,0.0175,-0.022,1.001,0.76,-1.71,-0.49,0.0,0.0,0.0,0.259285,0.091433,0.012482,0.961364,0.0,0.0,0.0,0,0
2026-06-16 15:33:48.140,41456,L_Shank,0.0062,-0.0214,0.9863,1.75,-1.16,-0.19,-4.49,16.7,-24.12,0.992004,-0.005097,-0.02591,0.123325,0.0,0.0,0.0,0,0
2026-06-16 15:33:48.140,41342,R_Ankle,0.0194,-0.0081,0.9971,0.77,-1.73,-0.49,-29.35,28.83,-30.95,0.259285,0.091433,0.012482,0.961364,0.0,0.0,0.0,0,0
2026-06-16 15:33:48.142,41476,L_Shank,0.0013,-0.0165,0.9786,1.75,-1.16,-0.16,-6.06,13.81,-23.6,0.992004,-0.005097,-0.02591,0.123325,0.0,0.0,0.0,0,0
2026-06-16 15:33:48.143,41362,R_Ankle,0.0204,-0.0215,1.0038,0.77,-1.7,-0.5,-29.86,28.98,-30.8,0.259285,0.091464,0.012482,0.961364,0.0,0.0,0.0,0,0
2026-06-16 15:33:48.144,41496,L_Shank,0.0052,-0.0151,0.9916,1.76,-1.16,-0.19,0.0,0.0,0.0,0.992004,-0.005066,-0.02591,0.123325,0.0,0.0,0.0,0,0
2026-06-16 15:33:48.145,41446,L_Ankle,0.1325,0.0134,0.988,5.4,-0.8,-10.29,-54.62,-30.2,-35.68,0.982452,0.034211,-0.073275,0.167943,0.0,0.0,0.0,0,0
2026-06-16 15:33:48.147,41466,L_Ankle,0.1271,0.031,0.987,5.41,-0.81,-10.29,-53.39,-31.1,-36.17,0.982452,0.034211,-0.073275,0.167943,0.0,0.0,0.0,0,0
2026-06-16 15:33:48.148,41486,L_Ankle,0.131,0.0202,1.0029,5.4,-0.81,-10.3,0.0,0.0,0.0,0.982452,0.034242,-0.073275,0.167943,0.0,0.0,0.0,0,0
2026-06-16 15:33:48.151,41506,L_Ankle,0.133,0.0163,0.9986,5.41,-0.83,-10.3,-54.28,-30.21,-36.35,0.982452,0.034242,-0.073275,0.167943,0.0,0.0,0.0,0,0
2026-06-16 15:33:48.154,41319,R_Shank,0.0453,0.698,1.0109,-0.11,-1.45,-8.41,-19.26,23.03,-20.62,0.95584,0.033204,-0.024842,0.290902,0.0,0.0,0.0,0,0
2026-06-16 15:33:48.158,41339,R_Shank,0.0502,0.8276,1.0032,-0.08,-1.45,-8.42,-20.76,22.88,-21.66,0.95584,0.033174,-0.024842,0.290902,0.0,0.0,0.0,0,0
2026-06-16 15:33:48.162,41359,R_Shank,0.0438,-0.9728,1.0056,-0.08,-1.47,-8.42,-20.6,23.05,-21.21,0.95584,0.033174,-0.024842,0.290902,0.0,0.0,0.0,0,0
2026-06-16 15:33:48.164,41379,R_Shank,0.0414,-0.4612,1.0157,-0.09,-1.47,-8.41,0.0,0.0,0.0,0.95584,0.033204,-0.024873,0.290902,0.0,0.0,0.0,0,0
2026-06-16 15:33:48.166,41324,R_Ankle,0.0155,-0.0215,1.0077,0.76,-1.7,-0.51,-27.3,28.83,-29.7,0.259285,0.091464,0.012482,0.961364,0.0,0.0,0.0,0,0
2026-06-16 15:33:48.168,41344,R_Ankle,0.0175,-0.0121,1.0019,0.77,-1.72,-0.51,0.0,0.0,0.0,0.259285,0.091464,0.012482,0.961364,0.0,0.0,0.0,0,0
2026-06-16 15:33:48.170,41364,R_Ankle,0.0253,-0.0225,0.999,0.77,-1.72,-0.48,-28.84,28.99,-30.79,0.259285,0.091464,0.012482,0.961364,0.0,0.0,0.0,0,0
2026-06-16 15:33:48.171,41384,R_Ankle,0.0175,-0.0121,1.0077,0.77,-1.73,-0.49,-29.36,29.47,-31.57,0.259285,0.091464,0.012452,0.961364,0.0,0.0,0.0,0,0
2026-06-16 15:33:48.173,41337,R_Hip,0.0496,0.0069,0.9881,0.25,-1.57,1.78,-20.51,27.08,-32.31,0.909238,-0.007294,-0.04181,-0.414045,0.0,0.0,0.0,0,0
2026-06-16 15:33:48.175,41479,L_Hip,0.1215,-0.072,0.9929,-4.15,4.55,2.97,-12.23,26.03,-27.68,0.994598,-0.022095,-0.074007,0.069002,0.0,0.0,0.0,0,0
2026-06-16 15:33:48.175,41357,R_Hip,0.0505,0.0049,0.9905,0.25,-1.57,1.78,-18.32,25.61,-32.98,0.909238,-0.007324,-0.04181,-0.414045,0.0,0.0,0.0,0,0
2026-06-16 15:33:48.177,41499,L_Hip,0.1215,-0.0769,0.9929,-4.15,4.53,2.97,-12.25,25.38,-27.38,0.994598,-0.022126,-0.074007,0.069002,0.0,0.0,0.0,0,0
2026-06-16 15:33:48.177,41377,R_Hip,0.0407,0.004,1.0044,0.25,-1.54,1.77,-20.51,27.08,-33.33,0.909238,-0.007324,-0.041841,-0.414045,0.0,0.0,0.0,0,0
2026-06-16 15:33:48.179,41519,L_Hip,0.1229,-0.0744,0.9875,-4.14,4.54,2.97,-11.94,24.1,-26.8,0.994598,-0.022126,-0.074007,0.069002,0.0,0.0,0.0,0,0
2026-06-16 15:33:48.179,41397,R_Hip,0.0397,0.0079,1.003,0.25,-1.54,1.77,-21.05,25.8,-32.13,0.909238,-0.007324,-0.04181,-0.414045,0.0,0.0,0.0,0,0
2026-06-16 15:33:48.181,41539,L_Hip,0.1185,-0.0671,0.9958,-4.14,4.54,2.96,0.0,0.0,0.0,0.994598,-0.022095,-0.074007,0.069002,0.0,0.0,0.0,0,0
2026-06-16 15:33:48.182,41342,R_Shank,0.0414,2.3688,1.0032,-0.08,-1.45,-8.42,-21.11,22.57,-19.85,0.95584,0.033235,-0.024842,0.290933,0.0,0.0,0.0,0,0
2026-06-16 15:33:48.184,41486,L_Shank,0.0081,-0.0185,0.9964,1.76,-1.16,-0.19,-4.67,14.49,-23.62,0.992004,-0.005066,-0.02591,0.123356,0.0,0.0,0.0,0,0
2026-06-16 15:33:48.184,41362,R_Shank,0.0389,0.5684,1.0133,-0.09,-1.45,-8.41,-19.93,23.7,-21.51,0.95584,0.033235,-0.024873,0.290933,0.0,0.0,0.0,0,0
2026-06-16 15:33:48.186,41506,L_Shank,0.0072,-0.0209,0.9945,1.77,-1.16,-0.2,-5.88,15.0,-24.08,0.992004,-0.005066,-0.02588,0.123356,0.0,0.0,0.0,0,0
2026-06-16 15:33:48.186,41382,R_Shank,0.0424,-0.3316,1.0114,-0.09,-1.45,-8.42,0.0,0.0,0.0,0.955809,0.033235,-0.024842,0.290933,0.0,0.0,0.0,0,0
2026-06-16 15:33:48.188,41526,L_Shank,0.0067,-0.0156,0.9854,1.76,-1.16,-0.19,-3.97,15.51,-23.95,0.992004,-0.005066,-0.02588,0.123356,0.0,0.0,0.0,0,0
2026-06-16 15:33:48.188,41402,R_Shank,0.0389,0.4388,1.0148,-0.08,-1.45,-8.43,-20.45,23.87,-21.35,0.955809,0.033265,-0.024812,0.290933,0.0,0.0,0.0,0,0
2026-06-16 15:33:48.190,41546,L_Shank,-0.003,-0.0229,1.0022,1.75,-1.16,-0.2,0.0,0.0,0.0,0.992004,-0.005036,-0.02588,0.123356,0.0,0.0,0.0,0,0
2026-06-16 15:33:48.190,41347,R_Ankle,0.0184,-0.0121,1.0053,0.77,-1.7,-0.48,-28.16,28.36,-30.47,0.259316,0.091464,0.012452,0.961364,0.0,0.0,0.0,0,0
2026-06-16 15:33:48.192,41491,L_Ankle,0.1305,0.0222,1.0029,5.39,-0.82,-10.29,-54.62,-30.55,-36.02,0.982452,0.034272,-0.073244,0.167943,0.0,0.0,0.0,0,0
2026-06-16 15:33:48.192,41367,R_Ankle,0.0155,-0.0176,1.0058,0.77,-1.7,-0.49,-29.0,29.78,-30.03,0.259316,0.091464,0.012452,0.961364,0.0,0.0,0.0,0,0
2026-06-16 15:33:48.194,41387,R_Ankle,0.015,-0.024,1.0019,0.77,-1.7,-0.5,0.0,0.0,0.0,0.259316,0.091433,0.012452,0.961364,0.0,0.0,0.0,0,0
2026-06-16 15:33:48.194,41511,L_Ankle,0.1413,0.0266,0.9933,5.4,-0.81,-10.3,-53.4,-31.46,-36.85,0.982452,0.034272,-0.073275,0.167943,0.0,0.0,0.0,0,0
2026-06-16 15:33:48.196,41407,R_Ankle,0.0184,-0.0131,1.0077,0.76,-1.7,-0.5,-27.98,29.79,-30.64,0.259316,0.091433,0.012452,0.961364,0.0,0.0,0.0,0,0
2026-06-16 15:33:48.197,41531,L_Ankle,0.1335,0.0124,0.9957,5.39,-0.82,-10.29,-53.77,-30.75,-37.19,0.982452,0.034272,-0.073275,0.167943,0.0,0.0,0.0,0,0
2026-06-16 15:33:48.199,41551,L_Ankle,0.129,0.0085,0.9909,5.41,-0.83,-10.29,0.0,0.0,0.0,0.982452,0.034242,-0.073244,0.167943,0.0,0.0,0.0,0,0
2026-06-16 15:33:48.199,41363,R_Hip,0.0481,-0.0013,0.9919,0.25,-1.54,1.77,-19.41,27.44,-31.96,0.909238,-0.007324,-0.04178,-0.414045,0.0,0.0,0.0,0,0
2026-06-16 15:33:48.201,41383,R_Hip,0.0496,0.0006,0.9847,0.25,-1.56,1.78,-21.42,26.53,-32.48,0.909238,-0.007324,-0.04181,-0.414045,0.0,0.0,0.0,0,0
2026-06-16 15:33:48.203,41403,R_Hip,0.0451,0.0098,0.9856,0.25,-1.56,1.77,-19.96,27.26,-33.5,0.909238,-0.007355,-0.04181,-0.414045,0.0,0.0,0.0,0,0
2026-06-16 15:33:48.204,41423,R_Hip,0.0466,0.0059,0.9996,0.26,-1.56,1.77,-19.96,25.8,-33.5,0.909238,-0.007324,-0.04181,-0.414045,0.0,0.0,0.0,0,0
2026-06-16 15:33:48.206,41369,R_Ankle,0.0322,-0.0166,1.0053,0.77,-1.72,-0.5,-29.33,29.77,-29.73,0.259316,0.091433,0.012452,0.961364,0.0,0.0,0.0,0,0
2026-06-16 15:33:48.208,41389,R_Ankle,0.0175,-0.0136,1.0034,0.76,-1.71,-0.5,-27.13,29.64,-30.47,0.259316,0.091433,0.012421,0.961364,0.0,0.0,0.0,0,0
2026-06-16 15:33:48.209,41409,R_Ankle,0.0155,-0.0166,1.0048,0.76,-1.71,-0.49,0.0,0.0,0.0,0.259316,0.091464,0.012421,0.961364,0.0,0.0,0.0,0,0
2026-06-16 15:33:48.210,41429,R_Ankle,0.0199,-0.0176,1.0091,0.76,-1.7,-0.49,-27.31,28.85,-30.93,0.259316,0.091464,0.012421,0.961364,0.0,0.0,0.0,0,0
2026-06-16 15:33:48.219,41524,L_Hip,0.1244,-0.0636,0.9909,-4.16,4.54,2.96,-12.9,25.7,-28.25,0.994598,-0.022095,-0.074007,0.069002,0.0,0.0,0.0,0,0
2026-06-16 15:33:48.221,41544,L_Hip,0.1249,-0.0666,0.9967,-4.15,4.54,2.96,-12.58,25.38,-27.67,0.994598,-0.022095,-0.074038,0.069002,0.0,0.0,0.0,0,0
2026-06-16 15:33:48.221,41387,R_Hip,0.0515,0.0162,1.0001,0.25,-1.56,1.77,-20.33,27.62,-32.82,0.909238,-0.007355,-0.04181,-0.414045,0.0,0.0,0.0,0,0
2026-06-16 15:33:48.223,41407,R_Hip,0.051,0.0035,1.0054,0.24,-1.55,1.78,-20.87,25.61,-31.62,0.909238,-0.007324,-0.04181,-0.414045,0.0,0.0,0.0,0,0
2026-06-16 15:33:48.223,41564,L_Hip,0.1239,-0.0735,0.99,-4.15,4.54,2.96,-11.93,24.42,-27.38,0.994598,-0.022095,-0.074007,0.069002,0.0,0.0,0.0,0,0
2026-06-16 15:33:48.225,41584,L_Hip,0.1249,-0.0651,0.9837,-4.15,4.54,2.97,0.0,0.0,0.0,0.994598,-0.022095,-0.074007,0.068972,0.0,0.0,0.0,0,0
2026-06-16 15:33:48.225,41427,R_Hip,0.0412,0.0064,0.9962,0.25,-1.55,1.78,-20.51,25.25,-32.64,0.909238,-0.007355,-0.04181,-0.414014,0.0,0.0,0.0,0,0
2026-06-16 15:33:48.227,41447,R_Hip,0.0427,0.0015,0.9948,0.25,-1.55,1.77,-19.05,26.71,-32.99,0.909238,-0.007324,-0.04181,-0.414014,0.0,0.0,0.0,0,0
2026-06-16 15:33:48.232,41536,L_Shank,0.0013,-0.0185,0.9825,1.75,-1.17,-0.2,-4.84,15.0,-23.78,0.992004,-0.005066,-0.02588,0.123356,0.0,0.0,0.0,0,0
2026-06-16 15:33:48.234,41556,L_Shank,0.0003,-0.0248,0.9825,1.74,-1.17,-0.19,-5.71,15.17,-24.24,0.992004,-0.005036,-0.02588,0.123356,0.0,0.0,0.0,0,0
2026-06-16 15:33:48.236,41537,L_Shank,0.0057,-0.0214,0.9954,1.75,-1.18,-0.19,-5.18,13.99,-24.39,0.992004,-0.005066,-0.025849,0.123356,0.0,0.0,0.0,0,0
2026-06-16 15:33:48.237,41557,L_Shank,0.0033,-0.0209,0.9863,1.75,-1.16,-0.19,-5.01,15.85,-23.94,0.992004,-0.005066,-0.025849,0.123356,0.0,0.0,0.0,0,0
2026-06-16 15:33:48.242,41546,L_Hip,0.1264,-0.0774,0.9996,-4.14,4.55,2.98,-12.57,25.38,-28.25,0.994598,-0.022065,-0.074007,0.068972,0.0,0.0,0.0,0,0
2026-06-16 15:33:48.245,41566,L_Hip,0.122,-0.0705,1.0001,-4.14,4.55,2.98,-11.06,24.6,-28.71,0.994598,-0.022095,-0.074007,0.068972,0.0,0.0,0.0,0,0
2026-06-16 15:33:48.246,41410,R_Shank,0.0458,-1.7432,1.0152,-0.09,-1.46,-8.42,-20.1,24.19,-22.26,0.955809,0.033265,-0.024812,0.290933,0.0,0.0,0.0,0,0
2026-06-16 15:33:48.248,41547,L_Hip,0.1303,-0.071,0.9924,-4.16,4.54,2.98,-11.54,26.05,-28.56,0.994598,-0.022095,-0.074007,0.068972,0.0,0.0,0.0,0,0
2026-06-16 15:33:48.249,41430,R_Shank,0.0453,0.698,1.0176,-0.09,-1.47,-8.41,-20.13,24.21,-20.15,0.955809,0.033265,-0.024812,0.290933,0.0,0.0,0.0,0,0
2026-06-16 15:33:48.250,41567,L_Hip,0.1279,-0.0725,0.9943,-4.14,4.55,2.96,-13.93,24.71,-28.52,0.994598,-0.022095,-0.074007,0.068972,0.0,0.0,0.0,0,0
2026-06-16 15:33:48.251,41450,R_Shank,0.0478,2.2392,1.0095,-0.09,-1.46,-8.43,0.0,0.0,0.0,0.955809,0.033265,-0.024812,0.290933,0.0,0.0,0.0,0,0
2026-06-16 15:33:48.253,41470,R_Shank,0.0483,1.5984,1.0263,-0.09,-1.45,-8.42,-20.6,22.39,-20.31,0.955809,0.033265,-0.024842,0.290963,0.0,0.0,0.0,0,0
2026-06-16 15:33:48.255,41559,L_Ankle,0.1374,0.0168,0.9822,5.42,-0.82,-10.29,-54.47,-31.09,-37.55,0.982452,0.034242,-0.073275,0.167943,0.0,0.0,0.0,0,0
2026-06-16 15:33:48.255,41412,R_Hip,0.0422,0.0045,0.9866,0.27,-1.57,1.77,-19.6,26.53,-33.16,0.909238,-0.007355,-0.04178,-0.414014,0.0,0.0,0.0,0,0
2026-06-16 15:33:48.257,41432,R_Hip,0.0461,0.0079,0.9919,0.25,-1.56,1.76,-19.42,26.71,-32.65,0.909238,-0.007355,-0.04178,-0.414014,0.0,0.0,0.0,0,0
2026-06-16 15:33:48.258,41579,L_Ankle,0.1339,0.0188,1.0034,5.41,-0.82,-10.29,-53.72,-31.81,-35.84,0.982452,0.034211,-0.073275,0.167943,0.0,0.0,0.0,0,0
2026-06-16 15:33:48.261,41452,R_Hip,0.0466,0.0059,0.9962,0.25,-1.55,1.77,-20.69,26.16,-32.13,0.909238,-0.007355,-0.04178,-0.414045,0.0,0.0,0.0,0,0
2026-06-16 15:33:48.261,41599,L_Ankle,0.1261,0.0212,0.988,5.41,-0.82,-10.29,-54.67,-29.14,-37.37,0.982452,0.034211,-0.073275,0.167943,0.0,0.0,0.0,0,0
2026-06-16 15:33:48.264,41472,R_Hip,0.0427,0.0132,1.0044,0.25,-1.56,1.77,0.0,0.0,0.0,0.909238,-0.007355,-0.04178,-0.414045,0.0,0.0,0.0,0,0
2026-06-16 15:33:48.264,41619,L_Ankle,0.1339,0.0158,1.0029,5.41,-0.82,-10.29,0.0,0.0,0.0,0.982452,0.034242,-0.073305,0.167943,0.0,0.0,0.0,0,0
2026-06-16 15:33:48.266,41561,L_Shank,0.0033,-0.019,0.9945,1.76,-1.16,-0.2,-4.66,14.84,-24.56,0.992004,-0.005066,-0.025819,0.123356,0.0,0.0,0.0,0,0
2026-06-16 15:33:48.267,41432,R_Shank,0.038,-2.7732,1.022,-0.09,-1.46,-8.44,-21.28,23.06,-20.9,0.955809,0.033265,-0.024842,0.290963,0.0,0.0,0.0,0,0
2026-06-16 15:33:48.269,41452,R_Shank,0.0394,0.5684,1.0104,-0.09,-1.47,-8.41,0.0,0.0,0.0,0.955809,0.033265,-0.024812,0.290963,0.0,0.0,0.0,0,0
2026-06-16 15:33:48.269,41581,L_Shank,-0.0025,-0.016,0.9911,1.75,-1.16,-0.21,-5.01,14.15,-24.23,0.992004,-0.005097,-0.025849,0.123356,0.0,0.0,0.0,0,0
2026-06-16 15:33:48.271,41472,R_Shank,0.0492,2.3688,0.9931,-0.09,-1.47,-8.42,-19.76,23.53,-21.36,0.955809,0.033296,-0.024812,0.290963,0.0,0.0,0.0,0,0
2026-06-16 15:33:48.272,41601,L_Shank,0.0052,-0.0302,0.9921,1.75,-1.16,-0.19,-4.66,14.15,-24.24,0.992004,-0.005097,-0.025849,0.123356,0.0,0.0,0.0,0,0
2026-06-16 15:33:48.274,41621,L_Shank,0.0023,-0.016,0.9854,1.75,-1.16,-0.2,-5.88,13.98,-24.07,0.992004,-0.005097,-0.025849,0.123386,0.0,0.0,0.0,0,0
2026-06-16 15:33:48.274,41492,R_Shank,0.0478,-2.3844,1.0095,-0.09,-1.46,-8.42,-21.59,22.08,-21.2,0.955809,0.033265,-0.024842,0.290963,0.0,0.0,0.0,0,0
2026-06-16 15:33:48.277,41581,L_Ankle,0.1388,0.0197,0.9952,5.4,-0.83,-10.29,-53.05,-30.4,-35.82,0.982452,0.034242,-0.073275,0.167943,0.0,0.0,0.0,0,0
2026-06-16 15:33:48.279,41601,L_Ankle,0.1305,0.0207,1.0034,5.4,-0.83,-10.29,-52.22,-29.89,-38.01,0.982452,0.034211,-0.073275,0.167943,0.0,0.0,0.0,0,0
2026-06-16 15:33:48.280,41621,L_Ankle,0.1339,0.0217,1.0,5.39,-0.83,-10.28,-54.11,-30.03,-36.52,0.982452,0.034211,-0.073305,0.167943,0.0,0.0,0.0,0,0
2026-06-16 15:33:48.282,41641,L_Ankle,0.1359,0.0134,1.0014,5.41,-0.83,-10.29,-54.8,-31.08,-36.53,0.982452,0.034211,-0.073336,0.167943,0.0,0.0,0.0,0,0
2026-06-16 15:33:48.287,41591,L_Hip,0.1215,-0.0744,1.0006,-4.16,4.53,2.96,-10.89,25.41,-27.69,0.994598,-0.022095,-0.074007,0.069002,0.0,0.0,0.0,0,0
2026-06-16 15:33:48.289,41454,R_Shank,0.0443,-0.9728,1.0056,-0.09,-1.46,-8.42,-21.81,24.24,-20.43,0.955809,0.033296,-0.024842,0.290963,0.0,0.0,0.0,0,0
2026-06-16 15:33:48.289,41611,L_Hip,0.1288,-0.0715,0.9841,-4.16,4.54,2.96,-12.22,25.71,-28.55,0.994598,-0.022095,-0.074007,0.068972,0.0,0.0,0.0,0,0
2026-06-16 15:33:48.291,41474,R_Shank,0.0488,-2.132,1.0157,-0.09,-1.45,-8.41,0.0,0.0,0.0,0.955809,0.033296,-0.024842,0.290963,0.0,0.0,0.0,0,0
2026-06-16 15:33:48.292,41631,L_Hip,0.1244,-0.0764,0.9759,-4.15,4.54,2.97,-11.74,24.91,-28.11,0.994598,-0.022095,-0.074007,0.068972,0.0,0.0,0.0,0,0
2026-06-16 15:33:48.293,41494,R_Shank,0.0384,0.1864,0.998,-0.08,-1.46,-8.42,-20.27,23.05,-20.91,0.955809,0.033326,-0.024842,0.290963,0.0,0.0,0.0,0,0
2026-06-16 15:33:48.294,41651,L_Hip,0.1239,-0.0725,0.9788,-4.14,4.54,2.98,-12.38,26.51,-27.82,0.994598,-0.022126,-0.074007,0.068972,0.0,0.0,0.0,0,0
2026-06-16 15:33:48.295,41514,R_Shank,0.0365,-0.8432,1.0191,-0.1,-1.44,-8.41,-19.24,22.69,-21.23,0.955809,0.033296,-0.024842,0.290963,0.0,0.0,0.0,0,0
2026-06-16 15:33:48.297,41460,R_Ankle,0.0189,-0.0215,0.9852,0.76,-1.71,-0.48,-28.15,29.63,-30.18,0.259316,0.091464,0.012421,0.961364,0.0,0.0,0.0,0,0
2026-06-16 15:33:48.299,41480,R_Ankle,0.0214,-0.0161,0.9986,0.77,-1.7,-0.5,-27.11,30.58,-29.56,0.259316,0.091433,0.012421,0.961364,0.0,0.0,0.0,0,0
2026-06-16 15:33:48.300,41604,L_Ankle,0.13,0.0207,0.9942,5.4,-0.81,-10.3,-53.22,-30.58,-35.99,0.982452,0.034211,-0.073336,0.167943,0.0,0.0,0.0,0,0
2026-06-16 15:33:48.301,41500,R_Ankle,0.0204,-0.0151,1.0091,0.77,-1.7,-0.5,0.0,0.0,0.0,0.259316,0.091433,0.012421,0.961364,0.0,0.0,0.0,0,0
2026-06-16 15:33:48.302,41624,L_Ankle,0.129,0.0139,0.9894,5.41,-0.82,-10.29,0.0,0.0,0.0,0.982452,0.034211,-0.073336,0.167943,0.0,0.0,0.0,0,0
2026-06-16 15:33:48.303,41520,R_Ankle,0.0204,-0.0161,1.0062,0.76,-1.7,-0.49,-27.81,28.99,-30.17,0.259316,0.091433,0.012421,0.961364,0.0,0.0,0.0,0,0
2026-06-16 15:33:48.305,41644,L_Ankle,0.1335,0.0173,0.9976,5.4,-0.82,-10.3,-54.08,-30.74,-35.5,0.982452,0.034242,-0.073336,0.167943,0.0,0.0,0.0,0,0
2026-06-16 15:33:48.306,41461,R_Hip,0.0481,0.0001,0.9982,0.25,-1.55,1.78,-20.87,25.98,-32.31,0.909238,-0.007324,-0.041749,-0.414045,0.0,0.0,0.0,0,0
2026-06-16 15:33:48.307,41664,L_Ankle,0.1349,0.0315,1.0,5.38,-0.82,-10.29,-54.97,-30.9,-36.03,0.982452,0.034242,-0.073336,0.167943,0.0,0.0,0.0,0,0
2026-06-16 15:33:48.308,41481,R_Hip,0.0436,0.003,0.9986,0.25,-1.57,1.78,-20.14,25.98,-31.96,0.909268,-0.007355,-0.04178,-0.414014,0.0,0.0,0.0,0,0
2026-06-16 15:33:48.309,41611,L_Shank,0.0072,-0.0107,0.9854,1.75,-1.18,-0.19,-5.89,14.32,-23.76,0.992004,-0.005066,-0.025849,0.123356,0.0,0.0,0.0,0,0
2026-06-16 15:33:48.310,41501,R_Hip,0.0417,0.0069,1.0044,0.25,-1.57,1.77,-21.24,27.44,-33.68,0.909268,-0.007355,-0.04178,-0.414014,0.0,0.0,0.0,0,0
2026-06-16 15:33:48.311,41631,L_Shank,0.0003,-0.0224,0.9935,1.76,-1.16,-0.19,0.0,0.0,0.0,0.992004,-0.005066,-0.025819,0.123356,0.0,0.0,0.0,0,0
2026-06-16 15:33:48.312,41521,R_Hip,0.0486,0.003,1.0063,0.26,-1.55,1.77,0.0,0.0,0.0,0.909268,-0.007355,-0.04178,-0.414014,0.0,0.0,0.0,0,0
2026-06-16 15:33:48.313,41651,L_Shank,0.0033,-0.0204,0.9897,1.77,-1.16,-0.19,-4.67,15.84,-23.64,0.992004,-0.005066,-0.025819,0.123356,0.0,0.0,0.0,0,0
2026-06-16 15:33:48.314,41671,L_Shank,0.0033,-0.0219,0.9935,1.76,-1.16,-0.2,-5.02,15.16,-23.0,0.992004,-0.005097,-0.025849,0.123356,0.0,0.0,0.0,0,0
2026-06-16 15:33:48.316,41614,L_Hip,0.1229,-0.0739,1.0025,-4.15,4.53,2.96,-11.39,25.56,-27.83,0.994598,-0.022126,-0.074007,0.068972,0.0,0.0,0.0,0,0
2026-06-16 15:33:48.318,41634,L_Hip,0.1215,-0.0705,0.9914,-4.15,4.54,2.97,0.0,0.0,0.0,0.994598,-0.022126,-0.074007,0.068972,0.0,0.0,0.0,0,0
2026-06-16 15:33:48.320,41654,L_Hip,0.1293,-0.0622,0.9962,-4.14,4.53,2.98,-11.57,24.43,-28.26,0.994598,-0.022126,-0.074007,0.068972,0.0,0.0,0.0,0,0
2026-06-16 15:33:48.321,41487,R_Hip,0.0427,0.0118,1.0126,0.27,-1.56,1.78,-21.24,26.34,-32.31,0.909268,-0.007385,-0.04178,-0.414014,0.0,0.0,0.0,0,0
2026-06-16 15:33:48.322,41674,L_Hip,0.1161,-0.0749,1.0045,-4.16,4.54,2.97,-12.58,25.05,-27.67,0.994598,-0.022126,-0.074007,0.068972,0.0,0.0,0.0,0,0
2026-06-16 15:33:48.323,41507,R_Hip,0.0407,0.0064,0.9914,0.25,-1.55,1.77,-21.78,25.8,-32.48,0.909268,-0.007355,-0.04178,-0.414014,0.0,0.0,0.0,0,0
2026-06-16 15:33:48.325,41527,R_Hip,0.0451,0.0059,1.0107,0.25,-1.57,1.77,-18.69,27.08,-34.01,0.909268,-0.007385,-0.041749,-0.414014,0.0,0.0,0.0,0,0
2026-06-16 15:33:48.326,41547,R_Hip,0.0407,0.0118,0.9861,0.25,-1.54,1.77,0.0,0.0,0.0,0.909268,-0.007385,-0.041749,-0.414014,0.0,0.0,0.0,0,0
2026-06-16 15:33:48.332,41636,L_Shank,0.0052,-0.0126,0.994,1.75,-1.16,-0.2,-4.67,14.14,-23.3,0.992004,-0.005097,-0.025849,0.123356,0.0,0.0,0.0,0,0
2026-06-16 15:33:48.334,41499,R_Shank,0.0453,0.4388,1.0138,-0.1,-1.46,-8.41,-20.94,23.71,-21.8,0.955809,0.033296,-0.024842,0.290963,0.0,0.0,0.0,0,0
2026-06-16 15:33:48.334,41656,L_Shank,-0.0035,-0.0278,0.993,1.77,-1.16,-0.19,0.0,0.0,0.0,0.992004,-0.005097,-0.025849,0.123356,0.0,0.0,0.0,0,0
2026-06-16 15:33:48.336,41519,R_Shank,0.0478,-2.6436,1.0143,-0.09,-1.45,-8.42,0.0,0.0,0.0,0.955809,0.033326,-0.024842,0.290963,0.0,0.0,0.0,0,0
2026-06-16 15:33:48.336,41676,L_Shank,0.0028,-0.0258,0.9878,1.74,-1.18,-0.2,-5.73,16.16,-22.39,0.992004,-0.005097,-0.025819,0.123356,0.0,0.0,0.0,0,0
2026-06-16 15:33:48.338,41539,R_Shank,0.0409,2.4984,1.0133,-0.09,-1.45,-8.43,-21.59,21.75,-20.91,0.955809,0.033326,-0.024842,0.290963,0.0,0.0,0.0,0,0
2026-06-16 15:33:48.339,41637,L_Shank,-0.003,-0.0185,0.9906,1.74,-1.17,-0.2,-5.54,15.0,-24.08,0.992004,-0.005066,-0.025788,0.123356,0.0,0.0,0.0,0,0
2026-06-16 15:33:48.340,41559,R_Shank,0.0384,1.4688,1.0066,-0.08,-1.45,-8.42,-21.79,23.57,-20.74,0.955809,0.033326,-0.024842,0.290963,0.0,0.0,0.0,0,0
2026-06-16 15:33:48.342,41504,R_Ankle,0.0155,-0.0235,1.0182,0.76,-1.7,-0.48,-28.66,29.79,-30.65,0.259285,0.091433,0.012421,0.961364,0.0,0.0,0.0,0,0
2026-06-16 15:33:48.344,41524,R_Ankle,0.0184,-0.02,1.0024,0.78,-1.72,-0.48,-30.03,28.81,-30.03,0.259285,0.091403,0.012421,0.961364,0.0,0.0,0.0,0,0
2026-06-16 15:33:48.345,41649,L_Ankle,0.1349,0.0202,0.9914,5.4,-0.82,-10.29,-54.28,-30.56,-36.69,0.982452,0.034211,-0.073336,0.167943,0.0,0.0,0.0,0,0
2026-06-16 15:33:48.346,41544,R_Ankle,0.0175,-0.02,1.0053,0.76,-1.73,-0.5,0.0,0.0,0.0,0.259285,0.091403,0.012421,0.961364,0.0,0.0,0.0,0,0
2026-06-16 15:33:48.347,41669,L_Ankle,0.1261,0.0251,0.9966,5.4,-0.82,-10.29,0.0,0.0,0.0,0.982452,0.034242,-0.073336,0.167943,0.0,0.0,0.0,0,0
2026-06-16 15:33:48.348,41564,R_Ankle,0.0194,-0.0121,1.0196,0.77,-1.71,-0.49,-27.8,29.94,-29.56,0.259285,0.091403,0.012391,0.961364,0.0,0.0,0.0,0,0
2026-06-16 15:33:48.349,41689,L_Ankle,0.1379,0.0183,0.9928,5.41,-0.83,-10.29,-55.16,-30.37,-36.54,0.982452,0.034211,-0.073336,0.167974,0.0,0.0,0.0,0,0
2026-06-16 15:33:48.351,41512,R_Hip,0.0535,0.0098,1.0039,0.27,-1.54,1.77,-20.15,27.08,-32.65,0.909268,-0.007355,-0.041719,-0.414014,0.0,0.0,0.0,0,0
2026-06-16 15:33:48.352,41709,L_Ankle,0.1384,0.0227,0.9966,5.39,-0.81,-10.29,-54.44,-30.73,-35.85,0.982452,0.034211,-0.073336,0.167974,0.0,0.0,0.0,0,0
2026-06-16 15:33:48.353,41532,R_Hip,0.0412,-0.0047,0.9996,0.27,-1.56,1.77,-20.33,26.53,-32.82,0.909268,-0.007324,-0.041749,-0.414014,0.0,0.0,0.0,0,0
2026-06-16 15:33:48.355,41552,R_Hip,0.051,0.0015,0.9914,0.27,-1.57,1.77,-19.78,26.35,-33.33,0.909268,-0.007355,-0.041719,-0.414014,0.0,0.0,0.0,0,0
2026-06-16 15:33:48.355,41659,L_Hip,0.1254,-0.0784,0.9856,-4.13,4.54,2.99,-11.26,24.75,-26.52,0.994598,-0.022126,-0.074007,0.068972,0.0,0.0,0.0,0,0
2026-06-16 15:33:48.357,41572,R_Hip,0.0486,0.0142,0.99,0.26,-1.56,1.77,0.0,0.0,0.0,0.909268,-0.007385,-0.041749,-0.414014,0.0,0.0,0.0,0,0
2026-06-16 15:33:48.357,41679,L_Hip,0.1313,-0.0685,0.9972,-4.16,4.54,2.97,0.0,0.0,0.0,0.994598,-0.022095,-0.074038,0.068972,0.0,0.0,0.0,0,0
2026-06-16 15:33:48.359,41699,L_Hip,0.1244,-0.072,0.987,-4.16,4.54,2.98,-12.9,26.02,-27.96,0.994598,-0.022095,-0.074007,0.068972,0.0,0.0,0.0,0,0
2026-06-16 15:33:48.361,41719,L_Hip,0.122,-0.0681,0.99,-4.16,4.55,2.96,-13.27,24.72,-27.66,0.994598,-0.022095,-0.074007,0.068972,0.0,0.0,0.0,0,0
2026-06-16 15:33:48.361,41527,R_Ankle,0.0189,-0.0101,0.9952,0.77,-1.71,-0.5,-27.46,29.94,-29.87,0.259285,0.091403,0.012391,0.961364,0.0,0.0,0.0,0,0
2026-06-16 15:33:48.363,41547,R_Ankle,0.0253,-0.0141,1.0038,0.77,-1.7,-0.48,-27.98,29.79,-30.95,0.259285,0.091433,0.012421,0.961364,0.0,0.0,0.0,0,0
2026-06-16 15:33:48.364,41567,R_Ankle,0.0165,-0.0185,1.0067,0.77,-1.7,-0.48,0.0,0.0,0.0,0.259285,0.091433,0.012421,0.961364,0.0,0.0,0.0,0,0
2026-06-16 15:33:48.366,41587,R_Ankle,0.0194,-0.0141,1.0134,0.75,-1.7,-0.51,-28.31,29.77,-29.41,0.259285,0.091433,0.012421,0.961364,0.0,0.0,0.0,0,0
2026-06-16 15:33:48.382,41686,L_Shank,-0.0001,-0.0204,0.9854,1.77,-1.16,-0.19,-3.63,13.12,-22.99,0.992004,-0.005066,-0.025788,0.123356,0.0,0.0,0.0,0,0
