python_time,esp32_hw_time,sensor_name,ax,ay,az,gx,gy,gz,mx,my,mz,q0,q1,q2,q3,quat_roll,quat_pitch,quat_yaw,is_paused_flag,t_pose_flag
2026-06-16 15:37:56.070,289229,R_Ankle,0.0224,-0.0106,1.0182,0.75,-1.74,-0.5,-25.39,30.57,-27.69,0.243568,0.091128,0.015351,0.965453,0.0,0.0,0.0,0,0
2026-06-16 15:37:56.072,289249,R_Ankle,0.0233,-0.0151,1.0081,0.76,-1.73,-0.5,-25.38,30.25,-27.38,0.243568,0.091159,0.015351,0.965453,0.0,0.0,0.0,0,0
2026-06-16 15:37:56.075,289374,L_Ankle,0.1286,0.0192,0.9995,5.41,-0.83,-10.29,-95.23,-32.82,-10.41,0.916288,0.047914,-0.063417,0.392529,0.0,0.0,0.0,0,0
2026-06-16 15:37:56.075,289269,R_Ankle,0.0165,-0.0185,0.9986,0.75,-1.71,-0.48,0.0,0.0,0.0,0.243568,0.091159,0.01532,0.965453,0.0,0.0,0.0,0,0
2026-06-16 15:37:56.077,289394,L_Ankle,0.1305,0.0158,0.9755,5.4,-0.82,-10.29,0.0,0.0,0.0,0.916288,0.047914,-0.063448,0.392529,0.0,0.0,0.0,0,0
2026-06-16 15:37:56.078,289289,R_Ankle,0.0184,-0.0146,1.0034,0.76,-1.71,-0.49,-24.38,29.63,-28.29,0.243568,0.091128,0.01532,0.965453,0.0,0.0,0.0,0,0
2026-06-16 15:37:56.079,289414,L_Ankle,0.1217,0.0158,0.977,5.42,-0.83,-10.32,-95.42,-31.58,-9.9,0.916257,0.047914,-0.063478,0.392529,0.0,0.0,0.0,0,0
2026-06-16 15:37:56.082,289434,L_Ankle,0.133,0.0183,0.9822,5.41,-0.83,-10.29,-94.73,-31.24,-10.23,0.916257,0.047945,-0.063448,0.392529,0.0,0.0,0.0,0,0
2026-06-16 15:37:56.086,289247,R_Shank,0.0414,0.8276,0.9956,-0.08,-1.47,-8.41,-15.07,24.76,-21.71,0.930143,0.035493,-0.021455,0.364788,0.0,0.0,0.0,0,0
2026-06-16 15:37:56.086,289385,L_Hip,0.1244,-0.0744,1.0035,-4.13,4.54,2.99,-18.34,18.64,-23.93,0.98706,-0.035829,-0.067324,-0.140904,0.0,0.0,0.0,0,0
2026-06-16 15:37:56.090,289267,R_Shank,0.0512,0.8276,0.997,-0.09,-1.46,-8.42,-15.26,25.27,-20.04,0.930143,0.035493,-0.021485,0.364818,0.0,0.0,0.0,0,0
2026-06-16 15:37:56.090,289405,L_Hip,0.1244,-0.0651,0.9914,-4.15,4.56,2.98,-19.02,17.99,-24.2,0.98706,-0.035829,-0.067324,-0.140904,0.0,0.0,0.0,0,0
2026-06-16 15:37:56.094,289425,L_Hip,0.119,-0.072,0.9962,-4.12,4.55,2.97,0.0,0.0,0.0,0.98706,-0.035798,-0.067324,-0.140904,0.0,0.0,0.0,0,0
2026-06-16 15:37:56.095,289287,R_Shank,0.0448,-2.514,1.0037,-0.09,-1.47,-8.41,0.0,0.0,0.0,0.930143,0.035493,-0.021485,0.364818,0.0,0.0,0.0,0,0
2026-06-16 15:37:56.098,289445,L_Hip,0.1259,-0.0735,0.9924,-4.15,4.54,2.96,-18.16,17.84,-25.23,0.98706,-0.035829,-0.067324,-0.140873,0.0,0.0,0.0,0,0
2026-06-16 15:37:56.098,289307,R_Shank,0.0492,0.8276,1.0028,-0.09,-1.45,-8.41,-16.6,24.96,-20.63,0.930143,0.035493,-0.021516,0.364818,0.0,0.0,0.0,0,0
2026-06-16 15:37:56.101,289252,R_Ankle,0.0101,-0.0136,0.9981,0.76,-1.7,-0.51,-24.38,29.64,-28.9,0.243568,0.091128,0.01532,0.965453,0.0,0.0,0.0,0,0
2026-06-16 15:37:56.102,289272,R_Ankle,0.0106,-0.02,0.9943,0.77,-1.71,-0.5,-26.24,31.05,-28.48,0.243568,0.091128,0.01532,0.965453,0.0,0.0,0.0,0,0
2026-06-16 15:37:56.105,289292,R_Ankle,0.0243,-0.026,0.9971,0.77,-1.7,-0.5,-25.22,30.74,-28.16,0.243568,0.091098,0.015351,0.965453,0.0,0.0,0.0,0,0
2026-06-16 15:37:56.107,289406,L_Hip,0.1239,-0.0749,0.9909,-4.14,4.54,2.98,-17.85,16.88,-24.65,0.98706,-0.035829,-0.067324,-0.140873,0.0,0.0,0.0,0,0
2026-06-16 15:37:56.107,289312,R_Ankle,0.0179,-0.0131,1.024,0.76,-1.7,-0.49,0.0,0.0,0.0,0.243568,0.091098,0.01532,0.965453,0.0,0.0,0.0,0,0
2026-06-16 15:37:56.109,289262,R_Hip,0.0471,0.0015,0.9938,0.25,-1.56,1.77,-18.69,27.44,-31.96,0.913297,-0.006897,-0.041292,-0.405133,0.0,0.0,0.0,0,0
2026-06-16 15:37:56.110,289426,L_Hip,0.1171,-0.0695,0.9977,-4.13,4.54,2.96,-17.63,19.63,-24.52,0.98706,-0.035829,-0.067293,-0.140873,0.0,0.0,0.0,0,0
2026-06-16 15:37:56.112,289282,R_Hip,0.0461,-0.0047,0.9986,0.25,-1.57,1.77,0.0,0.0,0.0,0.913297,-0.006867,-0.041292,-0.405133,0.0,0.0,0.0,0,0
2026-06-16 15:37:56.112,289446,L_Hip,0.121,-0.0789,0.9943,-4.14,4.55,2.97,-18.83,19.44,-23.78,0.98706,-0.035829,-0.067324,-0.140873,0.0,0.0,0.0,0,0
2026-06-16 15:37:56.114,289302,R_Hip,0.0422,0.0152,1.002,0.28,-1.56,1.77,-20.87,25.98,-32.65,0.913266,-0.006897,-0.041292,-0.405133,0.0,0.0,0.0,0,0
2026-06-16 15:37:56.115,289466,L_Hip,0.1092,-0.072,0.9735,-4.14,4.55,2.97,0.0,0.0,0.0,0.98706,-0.035829,-0.067324,-0.140873,0.0,0.0,0.0,0,0
2026-06-16 15:37:56.117,289322,R_Hip,0.0481,0.0093,0.9991,0.27,-1.58,1.78,-19.78,25.61,-32.99,0.913297,-0.006897,-0.041292,-0.405133,0.0,0.0,0.0,0,0
2026-06-16 15:37:56.118,289411,L_Shank,-0.0025,-0.0273,0.9978,1.76,-1.18,-0.19,-5.9,16.0,-22.85,0.990661,-0.005005,-0.025605,0.133702,0.0,0.0,0.0,0,0
2026-06-16 15:37:56.119,289431,L_Shank,0.0023,-0.0234,0.994,1.76,-1.19,-0.19,0.0,0.0,0.0,0.990661,-0.004975,-0.025575,0.133702,0.0,0.0,0.0,0,0
2026-06-16 15:37:56.120,289269,R_Shank,0.0478,1.4688,1.0157,-0.09,-1.46,-8.42,-16.76,25.13,-21.08,0.930143,0.035493,-0.021516,0.364818,0.0,0.0,0.0,0,0
2026-06-16 15:37:56.121,289451,L_Shank,-0.0006,-0.0131,0.9815,1.76,-1.17,-0.2,-5.01,14.83,-24.24,0.990661,-0.005005,-0.025575,0.133702,0.0,0.0,0.0,0,0
2026-06-16 15:37:56.123,289289,R_Shank,0.0497,2.1096,0.9994,-0.08,-1.47,-8.42,-17.12,25.47,-20.47,0.930143,0.035493,-0.021516,0.364818,0.0,0.0,0.0,0,0
2026-06-16 15:37:56.124,289471,L_Shank,0.0111,-0.0121,0.9911,1.75,-1.19,-0.2,-5.19,16.01,-23.48,0.990661,-0.005036,-0.025575,0.133702,0.0,0.0,0.0,0,0
2026-06-16 15:37:56.125,289309,R_Shank,0.0394,-1.6136,0.9999,-0.09,-1.46,-8.41,0.0,0.0,0.0,0.930143,0.035524,-0.021546,0.364788,0.0,0.0,0.0,0,0
2026-06-16 15:37:56.127,289329,R_Shank,0.0409,1.5984,1.0196,-0.09,-1.47,-8.41,-16.76,24.14,-20.19,0.930143,0.035524,-0.021546,0.364818,0.0,0.0,0.0,0,0
2026-06-16 15:37:56.130,289429,L_Hip,0.1176,-0.0685,0.9788,-4.12,4.54,2.98,-19.01,19.27,-23.34,0.98706,-0.035859,-0.067293,-0.140873,0.0,0.0,0.0,0,0
2026-06-16 15:37:56.130,289287,R_Hip,0.0451,0.0054,0.9962,0.28,-1.56,1.78,-20.15,26.35,-32.99,0.913297,-0.006897,-0.041322,-0.405103,0.0,0.0,0.0,0,0
2026-06-16 15:37:56.132,289307,R_Hip,0.0481,0.0001,0.9996,0.26,-1.58,1.77,0.0,0.0,0.0,0.913297,-0.006897,-0.041353,-0.405103,0.0,0.0,0.0,0,0
2026-06-16 15:37:56.133,289449,L_Hip,0.1205,-0.0715,0.9919,-4.13,4.55,2.97,-18.35,18.0,-23.92,0.98706,-0.03589,-0.067293,-0.140873,0.0,0.0,0.0,0,0
2026-06-16 15:37:56.136,289327,R_Hip,0.0466,0.0132,0.9924,0.25,-1.56,1.79,-18.14,26.89,-33.16,0.913297,-0.006897,-0.041353,-0.405103,0.0,0.0,0.0,0,0
2026-06-16 15:37:56.136,289469,L_Hip,0.1195,-0.0735,0.9754,-4.14,4.55,2.97,-19.02,17.34,-25.07,0.98706,-0.03589,-0.067263,-0.140873,0.0,0.0,0.0,0,0
2026-06-16 15:37:56.138,289347,R_Hip,0.0402,0.0118,0.9905,0.28,-1.58,1.77,-20.87,25.61,-31.96,0.913297,-0.006897,-0.041353,-0.405103,0.0,0.0,0.0,0,0
2026-06-16 15:37:56.138,289489,L_Hip,0.12,-0.0646,0.988,-4.12,4.56,2.98,-19.37,17.33,-24.2,0.98706,-0.03589,-0.067263,-0.140873,0.0,0.0,0.0,0,0
2026-06-16 15:37:56.141,289297,R_Ankle,0.0121,-0.0101,1.0096,0.77,-1.71,-0.48,-25.74,29.94,-28.31,0.243568,0.091067,0.01532,0.965453,0.0,0.0,0.0,0,0
2026-06-16 15:37:56.141,289436,L_Shank,0.0062,-0.0136,0.9993,1.75,-1.17,-0.2,-5.36,14.49,-23.92,0.990661,-0.005005,-0.025575,0.133702,0.0,0.0,0.0,0,0
2026-06-16 15:37:56.144,289456,L_Shank,-0.0001,-0.0116,0.9954,1.77,-1.19,-0.2,0.0,0.0,0.0,0.990661,-0.004975,-0.025575,0.133702,0.0,0.0,0.0,0,0
2026-06-16 15:37:56.144,289317,R_Ankle,0.0214,-0.019,0.999,0.76,-1.71,-0.5,-25.23,30.43,-28.77,0.243568,0.091067,0.01532,0.965453,0.0,0.0,0.0,0,0
2026-06-16 15:37:56.148,289337,R_Ankle,0.0091,-0.0057,1.001,0.76,-1.71,-0.49,0.0,0.0,0.0,0.243568,0.091067,0.01532,0.965453,0.0,0.0,0.0,0,0
2026-06-16 15:37:56.148,289476,L_Shank,-0.0064,-0.0273,0.9878,1.76,-1.17,-0.19,-3.79,14.66,-24.1,0.990661,-0.004975,-0.025575,0.133702,0.0,0.0,0.0,0,0
2026-06-16 15:37:56.151,289357,R_Ankle,0.015,-0.0151,1.0029,0.77,-1.71,-0.48,-25.74,29.94,-28.31,0.243568,0.091037,0.01532,0.965453,0.0,0.0,0.0,0,0
2026-06-16 15:37:56.151,289437,L_Shank,0.012,-0.0146,0.9916,1.74,-1.18,-0.18,-4.83,14.67,-24.71,0.990661,-0.005005,-0.025575,0.133702,0.0,0.0,0.0,0,0
2026-06-16 15:37:56.155,289312,R_Hip,0.0431,0.0069,0.9876,0.26,-1.56,1.77,-20.15,27.08,-32.65,0.913297,-0.006867,-0.041353,-0.405103,0.0,0.0,0.0,0,0
2026-06-16 15:37:56.156,289442,L_Ankle,0.1256,0.0163,0.9966,5.42,-0.83,-10.3,-95.23,-32.11,-9.73,0.916288,0.047914,-0.063417,0.392529,0.0,0.0,0.0,0,0
2026-06-16 15:37:56.160,289332,R_Hip,0.0481,0.0079,0.9905,0.25,-1.58,1.77,0.0,0.0,0.0,0.913297,-0.006867,-0.041353,-0.405103,0.0,0.0,0.0,0,0
2026-06-16 15:37:56.162,289462,L_Ankle,0.131,0.0207,0.9842,5.42,-0.83,-10.29,-94.35,-33.01,-10.22,0.916257,0.047914,-0.063417,0.392529,0.0,0.0,0.0,0,0
2026-06-16 15:37:56.164,289352,R_Hip,0.0466,0.0059,0.989,0.27,-1.55,1.77,-20.14,26.34,-31.62,0.913297,-0.006867,-0.041322,-0.405103,0.0,0.0,0.0,0,0
2026-06-16 15:37:56.166,289482,L_Ankle,0.1315,0.0197,1.0029,5.41,-0.82,-10.31,0.0,0.0,0.0,0.916257,0.047914,-0.063417,0.392529,0.0,0.0,0.0,0,0
2026-06-16 15:37:56.167,289372,R_Hip,0.0491,0.0035,0.9986,0.26,-1.58,1.77,-20.69,26.16,-32.13,0.913297,-0.006867,-0.041322,-0.405103,0.0,0.0,0.0,0,0
2026-06-16 15:37:56.169,289502,L_Ankle,0.1281,0.008,1.0077,5.41,-0.83,-10.29,-93.85,-32.49,-11.06,0.916288,0.047914,-0.063417,0.392529,0.0,0.0,0.0,0,0
2026-06-16 15:37:56.170,289314,R_Shank,0.0453,0.8276,0.996,-0.09,-1.48,-8.41,-17.25,24.31,-21.24,0.930143,0.035524,-0.021546,0.364818,0.0,0.0,0.0,0,0
2026-06-16 15:37:56.175,289334,R_Shank,0.0409,-1.1024,1.0152,-0.09,-1.46,-8.41,-16.27,25.29,-20.33,0.930143,0.035554,-0.021546,0.364818,0.0,0.0,0.0,0,0
2026-06-16 15:37:56.175,289451,L_Hip,0.1259,-0.0749,0.9725,-4.12,4.55,2.97,-19.15,18.79,-25.51,0.98706,-0.03589,-0.067263,-0.140873,0.0,0.0,0.0,0,0
2026-06-16 15:37:56.179,289452,L_Hip,0.1215,-0.0715,0.9938,-4.12,4.56,2.98,0.0,0.0,0.0,0.98706,-0.03589,-0.067263,-0.140873,0.0,0.0,0.0,0,0
2026-06-16 15:37:56.179,289354,R_Shank,0.0507,-1.7432,1.0133,-0.09,-1.45,-8.41,0.0,0.0,0.0,0.930143,0.035554,-0.021546,0.364818,0.0,0.0,0.0,0,0
2026-06-16 15:37:56.182,289472,L_Hip,0.1249,-0.0685,1.0011,-4.15,4.54,2.97,-18.53,18.47,-22.91,0.98706,-0.03589,-0.067263,-0.140873,0.0,0.0,0.0,0,0
2026-06-16 15:37:56.183,289374,R_Shank,0.0399,3.2692,1.0167,-0.1,-1.47,-8.41,-16.08,24.78,-21.7,0.930143,0.035554,-0.021577,0.364818,0.0,0.0,0.0,0,0
2026-06-16 15:37:56.184,289492,L_Hip,0.121,-0.0681,0.9827,-4.14,4.55,2.98,-18.5,19.12,-23.78,0.98706,-0.03589,-0.067263,-0.140873,0.0,0.0,0.0,0,0
2026-06-16 15:37:56.186,289464,L_Ankle,0.1237,0.0173,0.9894,5.41,-0.83,-10.29,-95.04,-32.29,-9.21,0.916257,0.047945,-0.063417,0.392529,0.0,0.0,0.0,0,0
2026-06-16 15:37:56.189,289484,L_Ankle,0.1227,0.0188,0.9842,5.4,-0.81,-10.29,-94.54,-32.48,-10.4,0.916257,0.047945,-0.063417,0.392529,0.0,0.0,0.0,0,0
2026-06-16 15:37:56.191,289504,L_Ankle,0.131,0.0168,0.9813,5.41,-0.83,-10.29,0.0,0.0,0.0,0.916257,0.047945,-0.063417,0.392529,0.0,0.0,0.0,0,0
2026-06-16 15:37:56.193,289524,L_Ankle,0.1315,0.0163,0.9957,5.4,-0.82,-10.29,-93.29,-32.67,-9.18,0.916257,0.047975,-0.063417,0.392529,0.0,0.0,0.0,0,0
2026-06-16 15:37:56.195,289486,L_Shank,0.0106,-0.0219,0.982,1.76,-1.17,-0.2,-5.71,14.49,-24.23,0.990661,-0.005005,-0.025575,0.133702,0.0,0.0,0.0,0,0
2026-06-16 15:37:56.197,289506,L_Shank,0.0076,-0.0146,1.006,1.77,-1.17,-0.2,0.0,0.0,0.0,0.990661,-0.005005,-0.025575,0.133702,0.0,0.0,0.0,0,0
2026-06-16 15:37:56.199,289526,L_Shank,0.0003,-0.0273,0.9921,1.75,-1.17,-0.19,-6.06,14.83,-23.92,0.990661,-0.004975,-0.025575,0.133702,0.0,0.0,0.0,0,0
2026-06-16 15:37:56.199,289362,R_Hip,0.0367,0.0142,0.9982,0.27,-1.55,1.77,-20.33,27.26,-31.45,0.913297,-0.006867,-0.041353,-0.405103,0.0,0.0,0.0,0,0
2026-06-16 15:37:56.201,289546,L_Shank,0.0057,-0.0268,0.9911,1.77,-1.18,-0.19,-5.54,15.0,-24.08,0.990661,-0.004975,-0.025575,0.133702,0.0,0.0,0.0,0,0
2026-06-16 15:37:56.202,289382,R_Hip,0.0456,0.0074,0.9905,0.26,-1.56,1.77,0.0,0.0,0.0,0.913297,-0.006867,-0.041292,-0.405103,0.0,0.0,0.0,0,0
2026-06-16 15:37:56.204,289496,L_Hip,0.1171,-0.0715,0.9875,-4.15,4.54,2.97,-19.71,17.33,-24.19,0.98706,-0.03589,-0.067263,-0.140873,0.0,0.0,0.0,0,0
2026-06-16 15:37:56.205,289402,R_Hip,0.054,-0.0037,0.9905,0.25,-1.57,1.77,-19.6,27.62,-31.79,0.913297,-0.006836,-0.041292,-0.405103,0.0,0.0,0.0,0,0
2026-06-16 15:37:56.207,289516,L_Hip,0.1225,-0.0602,0.9929,-4.12,4.54,2.97,-19.0,18.63,-24.79,0.98706,-0.03589,-0.067293,-0.140873,0.0,0.0,0.0,0,0
2026-06-16 15:37:56.208,289422,R_Hip,0.0422,0.0103,0.9717,0.25,-1.55,1.77,-19.78,26.34,-31.62,0.913297,-0.006867,-0.041322,-0.405103,0.0,0.0,0.0,0,0
2026-06-16 15:37:56.210,289536,L_Hip,0.1215,-0.0735,0.988,-4.14,4.54,2.97,-18.7,17.67,-23.92,0.98706,-0.03589,-0.067293,-0.140873,0.0,0.0,0.0,0,0
2026-06-16 15:37:56.210,289363,R_Ankle,0.0224,-0.0156,1.001,0.76,-1.7,-0.49,-25.39,31.22,-28.63,0.243568,0.091037,0.01532,0.965453,0.0,0.0,0.0,0,0
2026-06-16 15:37:56.212,289556,L_Hip,0.122,-0.0739,0.989,-4.15,4.54,2.97,-19.03,17.66,-24.2,0.98706,-0.03592,-0.067263,-0.140843,0.0,0.0,0.0,0,0
2026-06-16 15:37:56.212,289383,R_Ankle,0.0121,-0.0007,1.0,0.76,-1.7,-0.5,-25.56,30.73,-27.85,0.243568,0.091037,0.01532,0.965453,0.0,0.0,0.0,0,0
2026-06-16 15:37:56.214,289403,R_Ankle,0.0248,-0.0086,1.0139,0.76,-1.7,-0.49,-25.24,30.12,-29.69,0.243568,0.091037,0.015381,0.965453,0.0,0.0,0.0,0,0
2026-06-16 15:37:56.214,289509,L_Ankle,0.1286,0.0153,0.9803,5.41,-0.82,-10.31,-93.49,-32.5,-10.38,0.916257,0.047975,-0.063417,0.392529,0.0,0.0,0.0,0,0
2026-06-16 15:37:56.216,289423,R_Ankle,0.0189,-0.0225,1.0196,0.76,-1.73,-0.5,0.0,0.0,0.0,0.243568,0.091037,0.015381,0.965453,0.0,0.0,0.0,0,0
2026-06-16 15:37:56.217,289529,L_Ankle,0.1349,0.0134,0.9731,5.41,-0.83,-10.29,-94.01,-32.31,-9.88,0.916257,0.047975,-0.063417,0.39256,0.0,0.0,0.0,0,0
2026-06-16 15:37:56.220,289549,L_Ankle,0.1271,0.0149,0.9962,5.41,-0.81,-10.29,0.0,0.0,0.0,0.916257,0.048006,-0.063417,0.392529,0.0,0.0,0.0,0,0
2026-06-16 15:37:56.220,289382,R_Shank,0.0375,0.698,1.01,-0.09,-1.47,-8.42,-16.28,25.95,-20.93,0.930143,0.035524,-0.021546,0.364818,0.0,0.0,0.0,0,0
2026-06-16 15:37:56.222,289569,L_Ankle,0.1437,0.0207,0.977,5.41,-0.81,-10.29,-95.56,-33.17,-9.74,0.916257,0.048006,-0.063417,0.392529,0.0,0.0,0.0,0,0
2026-06-16 15:37:56.223,289402,R_Shank,0.0463,-2.514,1.0018,-0.08,-1.45,-8.41,-16.27,25.62,-20.63,0.930143,0.035524,-0.021516,0.364818,0.0,0.0,0.0,0,0
2026-06-16 15:37:56.225,289422,R_Shank,0.0399,-2.514,1.0263,-0.09,-1.48,-8.41,0.0,0.0,0.0,0.930143,0.035524,-0.021516,0.364818,0.0,0.0,0.0,0,0
2026-06-16 15:37:56.226,289442,R_Shank,0.0453,3.01,1.0273,-0.09,-1.45,-8.42,-16.61,24.64,-19.43,0.930143,0.035554,-0.021516,0.364818,0.0,0.0,0.0,0,0
2026-06-16 15:37:56.232,289531,L_Ankle,0.1286,0.0183,0.9909,5.4,-0.83,-10.3,-95.58,-33.17,-10.42,0.916257,0.048006,-0.063448,0.392529,0.0,0.0,0.0,0,0
2026-06-16 15:37:56.234,289551,L_Ankle,0.1281,0.0124,0.9923,5.41,-0.8,-10.3,-93.81,-32.84,-9.36,0.916257,0.048006,-0.063448,0.392529,0.0,0.0,0.0,0,0
2026-06-16 15:37:56.236,289571,L_Ankle,0.1276,0.0168,0.9794,5.41,-0.81,-10.29,0.0,0.0,0.0,0.916257,0.047975,-0.063478,0.392529,0.0,0.0,0.0,0,0
2026-06-16 15:37:56.238,289532,L_Ankle,0.1388,0.0139,0.9976,5.39,-0.83,-10.29,-93.84,-33.2,-11.07,0.916257,0.047975,-0.063478,0.392529,0.0,0.0,0.0,0,0
2026-06-16 15:37:56.240,289536,L_Shank,0.0023,-0.0156,0.9748,1.74,-1.17,-0.21,-4.67,15.16,-23.63,0.990661,-0.004944,-0.025575,0.133702,0.0,0.0,0.0,0,0
2026-06-16 15:37:56.242,289404,R_Shank,0.0404,-0.8432,0.9999,-0.09,-1.45,-8.41,-17.14,26.79,-20.46,0.930143,0.035554,-0.021485,0.364818,0.0,0.0,0.0,0,0
2026-06-16 15:37:56.244,289556,L_Shank,0.0086,-0.0156,1.0017,1.75,-1.17,-0.21,0.0,0.0,0.0,0.990661,-0.004975,-0.025575,0.133732,0.0,0.0,0.0,0,0
2026-06-16 15:37:56.246,289424,R_Shank,0.0434,3.1396,1.0143,-0.09,-1.48,-8.41,-16.11,26.11,-20.78,0.930143,0.035554,-0.021485,0.364818,0.0,0.0,0.0,0,0
2026-06-16 15:37:56.247,289576,L_Shank,-0.0015,-0.0302,0.9772,1.76,-1.16,-0.2,-3.8,13.97,-22.84,0.990661,-0.004944,-0.025575,0.133732,0.0,0.0,0.0,0,0
2026-06-16 15:37:56.249,289444,R_Shank,0.0335,2.8804,0.9984,-0.08,-1.47,-8.41,0.0,0.0,0.0,0.930143,0.035524,-0.021485,0.364818,0.0,0.0,0.0,0,0
2026-06-16 15:37:56.250,289596,L_Shank,0.0047,-0.0136,0.982,1.76,-1.18,-0.19,-4.66,14.83,-23.93,0.990661,-0.004944,-0.025605,0.133732,0.0,0.0,0.0,0,0
2026-06-16 15:37:56.251,289464,R_Shank,0.0434,-0.3316,1.009,-0.09,-1.45,-8.42,-16.08,24.45,-21.1,0.930143,0.035554,-0.021485,0.364818,0.0,0.0,0.0,0,0
2026-06-16 15:37:56.253,289409,R_Ankle,0.0184,-0.0116,1.0034,0.77,-1.7,-0.48,-25.57,29.78,-28.15,0.243599,0.091037,0.015351,0.965453,0.0,0.0,0.0,0,0
2026-06-16 15:37:56.254,289429,R_Ankle,0.0243,-0.0121,1.0014,0.75,-1.71,-0.48,-24.88,30.43,-28.46,0.243568,0.091037,0.015351,0.965453,0.0,0.0,0.0,0,0
2026-06-16 15:37:56.256,289449,R_Ankle,0.0175,-0.0072,1.0149,0.76,-1.72,-0.48,-25.56,29.45,-27.22,0.243568,0.091067,0.015351,0.965453,0.0,0.0,0.0,0,0
2026-06-16 15:37:56.258,289469,R_Ankle,0.0248,-0.0052,1.0115,0.76,-1.72,-0.49,0.0,0.0,0.0,0.243568,0.091067,0.015351,0.965453,0.0,0.0,0.0,0,0
2026-06-16 15:37:56.259,289412,R_Hip,0.0486,0.0103,0.9919,0.25,-1.56,1.77,-20.51,27.44,-32.65,0.913297,-0.006867,-0.041292,-0.405103,0.0,0.0,0.0,0,0
2026-06-16 15:37:56.261,289432,R_Hip,0.0515,0.0098,0.9861,0.27,-1.55,1.77,0.0,0.0,0.0,0.913297,-0.006867,-0.041292,-0.405103,0.0,0.0,0.0,0,0
2026-06-16 15:37:56.262,289561,L_Shank,0.0091,-0.0195,0.9868,1.75,-1.17,-0.2,-4.86,13.96,-22.21,0.990661,-0.004944,-0.025605,0.133732,0.0,0.0,0.0,0,0
2026-06-16 15:37:56.263,289452,R_Hip,0.0471,0.002,0.9847,0.25,-1.56,1.77,-18.32,27.07,-32.65,0.913297,-0.006867,-0.041322,-0.405103,0.0,0.0,0.0,0,0
2026-06-16 15:37:56.264,289581,L_Shank,0.0033,-0.019,0.9772,1.77,-1.18,-0.2,-3.62,14.49,-23.94,0.990661,-0.004944,-0.025605,0.133732,0.0,0.0,0.0,0,0
2026-06-16 15:37:56.265,289601,L_Shank,0.0042,-0.0204,0.9945,1.76,-1.18,-0.19,0.0,0.0,0.0,0.990661,-0.004944,-0.025605,0.133702,0.0,0.0,0.0,0,0
2026-06-16 15:37:56.266,289472,R_Hip,0.0382,0.0064,1.0116,0.26,-1.58,1.77,-20.33,27.26,-33.16,0.913297,-0.006897,-0.041322,-0.405103,0.0,0.0,0.0,0,0
2026-06-16 15:37:56.267,289621,L_Shank,0.0072,-0.0141,0.9854,1.77,-1.17,-0.19,-5.53,13.32,-25.0,0.990661,-0.004975,-0.025605,0.133702,0.0,0.0,0.0,0,0
2026-06-16 15:37:56.269,289432,R_Ankle,0.0199,-0.0111,0.9957,0.77,-1.7,-0.48,-24.87,30.74,-27.84,0.243568,0.091067,0.015381,0.965453,0.0,0.0,0.0,0,0
2026-06-16 15:37:56.269,289564,L_Hip,0.121,-0.0612,0.9943,-4.13,4.54,2.98,-17.47,18.82,-24.96,0.98706,-0.03589,-0.067293,-0.140843,0.0,0.0,0.0,0,0
2026-06-16 15:37:56.271,289452,R_Ankle,0.0194,-0.0101,1.0115,0.76,-1.71,-0.48,-25.08,29.32,-29.52,0.243568,0.091067,0.015412,0.965453,0.0,0.0,0.0,0,0
2026-06-16 15:37:56.271,289584,L_Hip,0.1215,-0.0735,0.9875,-4.12,4.54,2.97,0.0,0.0,0.0,0.98706,-0.03592,-0.067293,-0.140843,0.0,0.0,0.0,0,0
2026-06-16 15:37:56.273,289472,R_Ankle,0.0165,-0.0081,1.024,0.77,-1.7,-0.49,-24.2,31.07,-28.46,0.243568,0.091067,0.015412,0.965453,0.0,0.0,0.0,0,0
2026-06-16 15:37:56.274,289604,L_Hip,0.1195,-0.0676,0.9841,-4.13,4.54,2.96,-18.87,16.86,-24.64,0.98706,-0.03592,-0.067263,-0.140843,0.0,0.0,0.0,0,0
2026-06-16 15:37:56.275,289492,R_Ankle,0.0179,-0.0185,1.023,0.75,-1.7,-0.5,0.0,0.0,0.0,0.243568,0.091037,0.015412,0.965453,0.0,0.0,0.0,0,0
2026-06-16 15:37:56.276,289624,L_Hip,0.1298,-0.0695,0.9929,-4.14,4.55,2.96,-16.65,17.71,-25.11,0.98706,-0.03589,-0.067263,-0.140843,0.0,0.0,0.0,0,0
2026-06-16 15:37:56.278,289437,R_Hip,0.053,-0.0072,1.0025,0.27,-1.57,1.78,-19.42,28.17,-31.97,0.913297,-0.006867,-0.041322,-0.405103,0.0,0.0,0.0,0,0
2026-06-16 15:37:56.279,289576,L_Ankle,0.1344,0.0217,0.9899,5.41,-0.8,-10.3,-96.31,-30.32,-9.74,0.916257,0.047945,-0.063448,0.39256,0.0,0.0,0.0,0,0
2026-06-16 15:37:56.280,289457,R_Hip,0.0505,0.0045,0.9924,0.25,-1.55,1.77,0.0,0.0,0.0,0.913297,-0.006867,-0.041353,-0.405103,0.0,0.0,0.0,0,0
2026-06-16 15:37:56.281,289596,L_Ankle,0.1217,0.01,0.9875,5.41,-0.82,-10.29,-94.69,-33.01,-9.89,0.916257,0.047975,-0.063448,0.392529,0.0,0.0,0.0,0,0
2026-06-16 15:37:56.282,289477,R_Hip,0.0431,-0.0018,0.9938,0.25,-1.55,1.78,-20.15,26.71,-33.67,0.913297,-0.006928,-0.041353,-0.405103,0.0,0.0,0.0,0,0
2026-06-16 15:37:56.283,289577,L_Ankle,0.1325,0.01,0.9909,5.4,-0.83,-10.3,0.0,0.0,0.0,0.916257,0.047975,-0.063448,0.392529,0.0,0.0,0.0,0,0
2026-06-16 15:37:56.284,289497,R_Hip,0.0466,0.004,0.9847,0.26,-1.58,1.78,-19.05,27.44,-33.33,0.913297,-0.006958,-0.041353,-0.405103,0.0,0.0,0.0,0,0
2026-06-16 15:37:56.285,289597,L_Ankle,0.132,0.009,0.9914,5.41,-0.82,-10.3,-94.15,-33.19,-8.69,0.916257,0.047975,-0.063478,0.392529,0.0,0.0,0.0,0,0
2026-06-16 15:37:56.287,289449,R_Shank,0.034,1.5984,1.0056,-0.11,-1.47,-8.43,-16.96,26.29,-20.62,0.930143,0.035554,-0.021485,0.364818,0.0,0.0,0.0,0,0
2026-06-16 15:37:56.288,289469,R_Shank,0.0434,-2.2548,1.0076,-0.09,-1.47,-8.41,0.0,0.0,0.0,0.930143,0.035554,-0.021455,0.364788,0.0,0.0,0.0,0,0
2026-06-16 15:37:56.290,289450,R_Shank,0.0463,2.3688,1.0191,-0.09,-1.45,-8.41,-15.74,25.1,-22.0,0.930143,0.035524,-0.021455,0.364818,0.0,0.0,0.0,0,0
2026-06-16 15:37:56.292,289470,R_Shank,0.0488,-2.3844,0.997,-0.09,-1.46,-8.42,-15.25,24.94,-20.95,0.930143,0.035524,-0.021455,0.364818,0.0,0.0,0.0,0,0
2026-06-16 15:37:56.293,289454,R_Ankle,0.0111,-0.0151,1.0038,0.77,-1.71,-0.5,-25.9,29.78,-27.84,0.243568,0.091037,0.015381,0.965453,0.0,0.0,0.0,0,0
2026-06-16 15:37:56.295,289474,R_Ankle,0.0204,-0.0047,1.0105,0.76,-1.71,-0.5,-25.57,30.74,-29.08,0.243568,0.091037,0.015412,0.965453,0.0,0.0,0.0,0,0
2026-06-16 15:37:56.297,289494,R_Ankle,0.0199,-0.0166,1.0091,0.75,-1.72,-0.48,-26.4,30.56,-27.4,0.243568,0.091006,0.015412,0.965453,0.0,0.0,0.0,0,0
2026-06-16 15:37:56.298,289514,R_Ankle,0.0165,-0.0225,1.0048,0.76,-1.71,-0.51,0.0,0.0,0.0,0.243568,0.091006,0.015412,0.965453,0.0,0.0,0.0,0,0
2026-06-16 15:37:56.309,289472,R_Shank,0.0375,1.728,1.0119,-0.09,-1.46,-8.43,-16.24,23.96,-21.25,0.930143,0.035524,-0.021485,0.364818,0.0,0.0,0.0,0,0
2026-06-16 15:37:56.310,289610,L_Hip,0.1205,-0.0597,1.0083,-4.14,4.55,2.96,-17.83,18.49,-24.37,0.98706,-0.03589,-0.067232,-0.140843,0.0,0.0,0.0,0,0
2026-06-16 15:37:56.312,289492,R_Shank,0.0424,-2.7732,1.0225,-0.09,-1.47,-8.41,0.0,0.0,0.0,0.930143,0.035524,-0.021485,0.364788,0.0,0.0,0.0,0,0
2026-06-16 15:37:56.312,289630,L_Hip,0.1205,-0.0725,0.9851,-4.12,4.54,2.97,0.0,0.0,0.0,0.98706,-0.03589,-0.067232,-0.140873,0.0,0.0,0.0,0,0
2026-06-16 15:37:56.314,289512,R_Shank,0.0438,1.728,1.0119,-0.09,-1.46,-8.41,-16.94,25.3,-20.93,0.930143,0.035493,-0.021485,0.364788,0.0,0.0,0.0,0,0
2026-06-16 15:37:56.315,289650,L_Hip,0.12,-0.0681,0.9914,-4.15,4.54,2.96,-18.35,17.04,-25.37,0.98706,-0.03589,-0.067263,-0.140873,0.0,0.0,0.0,0,0
2026-06-16 15:37:56.316,289532,R_Shank,0.0434,0.5684,1.0104,-0.09,-1.46,-8.41,-15.59,25.6,-21.55,0.930143,0.035493,-0.021485,0.364818,0.0,0.0,0.0,0,0
2026-06-16 15:37:56.317,289670,L_Hip,0.1264,-0.0744,1.0021,-4.14,4.54,2.96,-17.01,17.7,-23.94,0.98706,-0.035859,-0.067263,-0.140873,0.0,0.0,0.0,0,0
2026-06-16 15:37:56.318,289611,L_Shank,0.0067,-0.0116,0.97,1.75,-1.17,-0.21,-5.53,14.67,-24.7,0.990661,-0.004944,-0.025636,0.133702,0.0,0.0,0.0,0,0
2026-06-16 15:37:56.320,289631,L_Shank,0.0047,-0.0141,0.9868,1.75,-1.18,-0.21,0.0,0.0,0.0,0.990661,-0.004975,-0.025605,0.133702,0.0,0.0,0.0,0,0
2026-06-16 15:37:56.321,289651,L_Shank,0.0067,-0.0195,0.9858,1.75,-1.17,-0.19,-5.54,14.65,-23.15,0.990661,-0.004944,-0.025605,0.133702,0.0,0.0,0.0,0,0
2026-06-16 15:37:56.324,289671,L_Shank,-0.0006,-0.0244,0.9945,1.75,-1.18,-0.19,-5.53,15.34,-24.4,0.990661,-0.004944,-0.025605,0.133702,0.0,0.0,0.0,0,0
2026-06-16 15:37:56.326,289621,L_Ankle,0.1305,0.0178,0.9923,5.4,-0.83,-10.29,-94.02,-32.67,-10.9,0.916257,0.047975,-0.063448,0.392529,0.0,0.0,0.0,0,0
2026-06-16 15:37:56.328,289641,L_Ankle,0.1276,0.0139,0.9899,5.42,-0.82,-10.3,-93.49,-31.79,-9.69,0.916257,0.047975,-0.063448,0.392529,0.0,0.0,0.0,0,0
2026-06-16 15:37:56.329,289661,L_Ankle,0.1398,0.0109,0.9914,5.41,-0.83,-10.29,0.0,0.0,0.0,0.916257,0.047975,-0.063448,0.39256,0.0,0.0,0.0,0,0
2026-06-16 15:37:56.331,289681,L_Ankle,0.1359,0.0129,1.0038,5.41,-0.82,-10.29,-93.13,-32.86,-10.37,0.916257,0.047975,-0.063478,0.39256,0.0,0.0,0.0,0,0
2026-06-16 15:37:56.332,289494,R_Shank,0.0365,2.3688,1.0037,-0.09,-1.45,-8.41,-17.1,24.8,-21.08,0.930143,0.035493,-0.021485,0.364788,0.0,0.0,0.0,0,0
2026-06-16 15:37:56.334,289631,L_Hip,0.1308,-0.0705,0.9783,-4.12,4.54,2.97,-18.53,17.51,-24.06,0.98706,-0.035859,-0.067263,-0.140873,0.0,0.0,0.0,0,0
2026-06-16 15:37:56.334,289514,R_Shank,0.0453,3.2692,1.0133,-0.09,-1.46,-8.41,0.0,0.0,0.0,0.930143,0.035493,-0.021485,0.364818,0.0,0.0,0.0,0,0
2026-06-16 15:37:56.336,289632,L_Hip,0.1269,-0.0764,0.9914,-4.13,4.54,2.97,0.0,0.0,0.0,0.98706,-0.035859,-0.067232,-0.140873,0.0,0.0,0.0,0,0
2026-06-16 15:37:56.336,289534,R_Shank,0.0429,-3.1552,0.9956,-0.09,-1.45,-8.41,-14.93,26.25,-20.94,0.930143,0.035463,-0.021485,0.364818,0.0,0.0,0.0,0,0
2026-06-16 15:37:56.338,289652,L_Hip,0.121,-0.0646,0.9943,-4.13,4.54,2.98,-17.98,18.65,-25.09,0.98706,-0.035859,-0.067232,-0.140873,0.0,0.0,0.0,0,0
2026-06-16 15:37:56.339,289554,R_Shank,0.0448,1.4688,1.0152,-0.09,-1.46,-8.4,-16.08,25.76,-23.2,0.930143,0.035463,-0.021485,0.364818,0.0,0.0,0.0,0,0
2026-06-16 15:37:56.340,289672,L_Hip,0.1122,-0.0739,0.9909,-4.14,4.56,2.97,-18.35,17.35,-24.5,0.98706,-0.03589,-0.067263,-0.140873,0.0,0.0,0.0,0,0
2026-06-16 15:37:56.341,289499,R_Ankle,0.0204,-0.0166,1.001,0.76,-1.71,-0.48,-25.9,30.41,-27.85,0.243568,0.091006,0.015381,0.965453,0.0,0.0,0.0,0,0
2026-06-16 15:37:56.343,289636,L_Shank,-0.0059,-0.0107,0.9854,1.76,-1.18,-0.21,-5.54,15.33,-23.16,0.990661,-0.004944,-0.025636,0.133702,0.0,0.0,0.0,0,0
2026-06-16 15:37:56.343,289519,R_Ankle,0.0282,-0.022,0.9952,0.76,-1.7,-0.49,-25.06,29.95,-28.92,0.243568,0.090976,0.015351,0.965453,0.0,0.0,0.0,0,0
2026-06-16 15:37:56.345,289656,L_Shank,-0.0006,-0.0195,0.9892,1.76,-1.17,-0.21,-6.06,14.82,-23.61,0.990661,-0.004944,-0.025666,0.133702,0.0,0.0,0.0,0,0
2026-06-16 15:37:56.345,289539,R_Ankle,0.0184,-0.0146,0.988,0.77,-1.7,-0.48,-26.06,31.2,-27.4,0.243568,0.091006,0.01532,0.965453,0.0,0.0,0.0,0,0
2026-06-16 15:37:56.347,289676,L_Shank,-0.004,-0.0268,0.9902,1.76,-1.17,-0.2,0.0,0.0,0.0,0.990661,-0.004944,-0.025636,0.133702,0.0,0.0,0.0,0,0
2026-06-16 15:37:56.347,289559,R_Ankle,0.0204,-0.0131,0.9943,0.77,-1.7,-0.49,-25.2,31.68,-27.55,0.243568,0.090976,0.01532,0.965453,0.0,0.0,0.0,0,0
2026-06-16 15:37:56.349,289696,L_Shank,0.0101,-0.0244,0.9954,1.76,-1.17,-0.21,-4.14,14.65,-23.47,0.990661,-0.004975,-0.025636,0.133671,0.0,0.0,0.0,0,0
2026-06-16 15:37:56.349,289512,R_Hip,0.0461,0.0001,1.0025,0.25,-1.57,1.77,-19.96,25.8,-32.47,0.913297,-0.006958,-0.041353,-0.405103,0.0,0.0,0.0,0,0
2026-06-16 15:37:56.351,289532,R_Hip,0.0505,0.0069,0.9842,0.27,-1.56,1.76,0.0,0.0,0.0,0.913266,-0.006958,-0.041353,-0.405103,0.0,0.0,0.0,0,0
2026-06-16 15:37:56.351,289644,L_Ankle,0.1256,0.008,0.9822,5.41,-0.83,-10.31,-94.37,-32.31,-10.56,0.916257,0.047975,-0.063448,0.39256,0.0,0.0,0.0,0,0
2026-06-16 15:37:56.354,289552,R_Hip,0.0412,0.002,0.9881,0.27,-1.57,1.76,-20.14,26.71,-31.62,0.913266,-0.006958,-0.041353,-0.405103,0.0,0.0,0.0,0,0
2026-06-16 15:37:56.354,289664,L_Ankle,0.132,0.0119,0.987,5.42,-0.82,-10.3,-94.88,-32.83,-10.4,0.916257,0.047945,-0.063417,0.39256,0.0,0.0,0.0,0,0
2026-06-16 15:37:56.356,289572,R_Hip,0.0486,0.0108,1.002,0.28,-1.56,1.77,-20.15,27.08,-32.65,0.913266,-0.006958,-0.041353,-0.405133,0.0,0.0,0.0,0,0
2026-06-16 15:37:56.356,289684,L_Ankle,0.13,0.0105,0.9899,5.42,-0.83,-10.3,0.0,0.0,0.0,0.916257,0.047945,-0.063417,0.39256,0.0,0.0,0.0,0,0
2026-06-16 15:37:56.359,289704,L_Ankle,0.1354,0.0222,0.9962,5.42,-0.83,-10.3,-95.42,-31.58,-10.24,0.916257,0.047975,-0.063448,0.39256,0.0,0.0,0.0,0,0
2026-06-16 15:37:56.359,289517,R_Shank,0.0434,0.698,1.0095,-0.08,-1.46,-8.41,-16.42,24.14,-20.19,0.930143,0.035493,-0.021485,0.364818,0.0,0.0,0.0,0,0
2026-06-16 15:37:56.361,289537,R_Shank,0.0394,1.728,1.0133,-0.08,-1.45,-8.43,0.0,0.0,0.0,0.930143,0.035493,-0.021516,0.364818,0.0,0.0,0.0,0,0
2026-06-16 15:37:56.361,289654,L_Hip,0.1244,-0.0656,0.9778,-4.14,4.54,2.97,-18.5,18.16,-24.65,0.98706,-0.03589,-0.067263,-0.140843,0.0,0.0,0.0,0,0
2026-06-16 15:37:56.363,289674,L_Hip,0.1298,-0.071,0.9992,-4.12,4.54,2.97,0.0,0.0,0.0,0.98706,-0.03589,-0.067263,-0.140843,0.0,0.0,0.0,0,0
2026-06-16 15:37:56.363,289557,R_Shank,0.0434,-0.0724,1.0128,-0.09,-1.47,-8.42,-16.12,26.44,-21.08,0.930143,0.035463,-0.021516,0.364788,0.0,0.0,0.0,0,0
2026-06-16 15:37:56.365,289694,L_Hip,0.122,-0.0676,0.9808,-4.13,4.55,2.96,-19.35,18.3,-24.49,0.98706,-0.03592,-0.067263,-0.140843,0.0,0.0,0.0,0,0
2026-06-16 15:37:56.365,289577,R_Shank,0.0414,3.1396,1.0225,-0.09,-1.45,-8.42,-15.43,25.44,-20.79,0.930143,0.035463,-0.021516,0.364788,0.0,0.0,0.0,0,0
2026-06-16 15:37:56.367,289714,L_Hip,0.1215,-0.0715,0.9861,-4.15,4.54,2.96,-17.97,19.3,-25.1,0.98706,-0.035951,-0.067263,-0.140843,0.0,0.0,0.0,0,0
2026-06-16 15:37:56.374,289537,R_Hip,0.0466,0.0108,0.9905,0.25,-1.55,1.77,-19.05,28.17,-32.31,0.913266,-0.006958,-0.041353,-0.405133,0.0,0.0,0.0,0,0
2026-06-16 15:37:56.375,289557,R_Hip,0.0456,0.0113,0.9919,0.27,-1.56,1.78,0.0,0.0,0.0,0.913266,-0.006989,-0.041353,-0.405133,0.0,0.0,0.0,0,0
2026-06-16 15:37:56.377,289577,R_Hip,0.0496,0.0171,1.0049,0.29,-1.57,1.77,-19.42,27.44,-32.65,0.913266,-0.006958,-0.041353,-0.405133,0.0,0.0,0.0,0,0
2026-06-16 15:37:56.378,289597,R_Hip,0.0436,0.0123,0.9996,0.27,-1.56,1.77,-21.06,26.89,-32.48,0.913266,-0.006928,-0.041383,-0.405133,0.0,0.0,0.0,0,0
2026-06-16 15:37:56.380,289539,R_Shank,0.0365,-1.1024,1.0047,-0.09,-1.46,-8.43,-14.92,26.25,-21.85,0.930143,0.035463,-0.021485,0.364818,0.0,0.0,0.0,0,0
2026-06-16 15:37:56.382,289559,R_Shank,0.0389,0.698,1.0316,-0.09,-1.46,-8.43,-15.94,26.27,-21.24,0.930143,0.035432,-0.021485,0.364788,0.0,0.0,0.0,0,0
2026-06-16 15:37:56.384,289579,R_Shank,0.0365,-0.0724,1.0191,-0.09,-1.47,-8.41,-16.25,24.95,-21.24,0.930143,0.035432,-0.021455,0.364788,0.0,0.0,0.0,0,0
2026-06-16 15:37:56.386,289599,R_Shank,0.0394,3.01,1.0186,-0.1,-1.47,-8.41,0.0,0.0,0.0,0.930143,0.035401,-0.021485,0.364788,0.0,0.0,0.0,0,0
2026-06-16 15:37:56.386,289686,L_Shank,-0.0001,-0.0263,0.9911,1.77,-1.18,-0.2,-4.48,14.33,-24.4,0.990661,-0.004944,-0.025636,0.133671,0.0,0.0,0.0,0,0
2026-06-16 15:37:56.388,289706,L_Shank,-0.0001,-0.0151,0.994,1.77,-1.16,-0.2,-5.53,15.35,-24.71,0.990661,-0.004944,-0.025636,0.133671,0.0,0.0,0.0,0,0
2026-06-16 15:37:56.389,289726,L_Shank,-0.004,-0.0185,0.9815,1.75,-1.17,-0.2,0.0,0.0,0.0,0.990661,-0.004944,-0.025636,0.133702,0.0,0.0,0.0,0,0
2026-06-16 15:37:56.391,289746,L_Shank,0.0023,-0.0214,0.9825,1.74,-1.18,-0.19,-5.36,14.84,-24.55,0.990661,-0.004944,-0.025636,0.133671,0.0,0.0,0.0,0,0
2026-06-16 15:37:56.393,289689,L_Ankle,0.1256,0.0183,0.9923,5.41,-0.83,-10.3,-94.7,-33.36,-10.57,0.916257,0.047975,-0.063448,0.39256,0.0,0.0,0.0,0,0
2026-06-16 15:37:56.394,289709,L_Ankle,0.1286,0.0163,0.9914,5.4,-0.82,-10.3,-94.54,-32.48,-10.74,0.916257,0.047975,-0.063448,0.39256,0.0,0.0,0.0,0,0
2026-06-16 15:37:56.396,289729,L_Ankle,0.1276,0.0227,0.9918,5.41,-0.81,-10.29,-96.46,-32.27,-10.26,0.916257,0.048006,-0.063448,0.39256,0.0,0.0,0.0,0,0
2026-06-16 15:37:56.398,289749,L_Ankle,0.1276,0.0153,0.9899,5.4,-0.83,-10.29,0.0,0.0,0.0,0.916257,0.048006,-0.063448,0.39256,0.0,0.0,0.0,0,0
2026-06-16 15:37:56.399,289562,R_Hip,0.0486,0.0103,0.9885,0.27,-1.57,1.79,-19.96,27.26,-31.79,0.913266,-0.006897,-0.041383,-0.405133,0.0,0.0,0.0,0,0
2026-06-16 15:37:56.400,289699,L_Hip,0.1151,-0.0636,0.99,-4.14,4.54,2.96,-18.69,17.03,-24.79,0.98706,-0.035951,-0.067293,-0.140843,0.0,0.0,0.0,0,0
2026-06-16 15:37:56.401,289582,R_Hip,0.0407,0.0035,0.9914,0.26,-1.56,1.77,0.0,0.0,0.0,0.913266,-0.006897,-0.041383,-0.405133,0.0,0.0,0.0,0,0
2026-06-16 15:37:56.402,289719,L_Hip,0.1229,-0.0705,0.988,-4.14,4.55,2.96,0.0,0.0,0.0,0.98706,-0.035951,-0.067293,-0.140843,0.0,0.0,0.0,0,0
2026-06-16 15:37:56.403,289602,R_Hip,0.0486,0.0059,0.9991,0.26,-1.56,1.77,-21.24,27.81,-32.31,0.913266,-0.006897,-0.041383,-0.405133,0.0,0.0,0.0,0,0
2026-06-16 15:37:56.404,289739,L_Hip,0.121,-0.0793,0.987,-4.14,4.55,2.96,-18.51,17.84,-24.94,0.98706,-0.035951,-0.067293,-0.140843,0.0,0.0,0.0,0,0
2026-06-16 15:37:56.405,289622,R_Hip,0.0461,0.0001,1.0131,0.25,-1.58,1.77,-20.51,27.44,-33.33,0.913266,-0.006897,-0.041383,-0.405133,0.0,0.0,0.0,0,0
2026-06-16 15:37:56.406,289759,L_Hip,0.121,-0.0671,0.99,-4.13,4.54,2.96,-19.2,17.5,-24.05,0.98706,-0.035951,-0.067263,-0.140843,0.0,0.0,0.0,0,0
2026-06-16 15:37:56.411,289711,L_Shank,0.0072,-0.0268,0.9681,1.75,-1.19,-0.19,-5.0,15.53,-25.19,0.990661,-0.004913,-0.025605,0.133671,0.0,0.0,0.0,0,0
2026-06-16 15:37:56.412,289731,L_Shank,-0.005,-0.016,0.9868,1.74,-1.18,-0.18,-4.5,13.97,-22.84,0.990661,-0.004944,-0.025605,0.133671,0.0,0.0,0.0,0,0
2026-06-16 15:37:56.414,289751,L_Shank,-0.0001,-0.02,0.9834,1.75,-1.19,-0.19,0.0,0.0,0.0,0.990661,-0.004944,-0.025605,0.133671,0.0,0.0,0.0,0,0
2026-06-16 15:37:56.416,289712,L_Shank,-0.001,-0.0151,0.9916,1.76,-1.17,-0.19,-6.06,14.49,-23.92,0.990661,-0.004944,-0.025575,0.133671,0.0,0.0,0.0,0,0
2026-06-16 15:37:56.421,289584,R_Shank,0.0424,0.1864,1.0013,-0.1,-1.45,-8.42,-15.59,25.27,-20.94,0.930143,0.035432,-0.021455,0.364788,0.0,0.0,0.0,0,0
2026-06-16 15:37:56.423,289604,R_Shank,0.0473,3.1396,1.0056,-0.09,-1.45,-8.41,-16.95,25.96,-20.62,0.930143,0.035432,-0.021455,0.364788,0.0,0.0,0.0,0,0
2026-06-16 15:37:56.425,289624,R_Shank,0.0438,1.4688,1.0104,-0.09,-1.45,-8.41,-15.59,24.95,-20.34,0.930143,0.035401,-0.021485,0.364788,0.0,0.0,0.0,0,0
2026-06-16 15:37:56.426,289644,R_Shank,0.0483,-2.514,1.01,-0.09,-1.46,-8.41,0.0,0.0,0.0,0.930143,0.035432,-0.021485,0.364818,0.0,0.0,0.0,0,0
2026-06-16 15:37:56.428,289589,R_Ankle,0.0238,-0.0161,1.0149,0.77,-1.7,-0.49,-25.9,30.41,-27.85,0.243568,0.090976,0.015351,0.965453,0.0,0.0,0.0,0,0
2026-06-16 15:37:56.429,289609,R_Ankle,0.0155,-0.0067,0.9981,0.75,-1.71,-0.49,-26.08,30.26,-28.62,0.243568,0.091006,0.01532,0.965453,0.0,0.0,0.0,0,0
2026-06-16 15:37:56.431,289629,R_Ankle,0.0165,-0.0146,1.0053,0.76,-1.71,-0.49,-25.74,31.22,-29.25,0.243568,0.091006,0.01532,0.965453,0.0,0.0,0.0,0,0
2026-06-16 15:37:56.433,289649,R_Ankle,0.015,-0.0181,0.9914,0.76,-1.7,-0.49,-24.87,31.7,-28.47,0.243568,0.090976,0.015351,0.965453,0.0,0.0,0.0,0,0
2026-06-16 15:37:56.434,289734,L_Ankle,0.13,0.0144,0.9918,5.4,-0.81,-10.3,-96.11,-31.57,-9.57,0.916257,0.048006,-0.063478,0.39256,0.0,0.0,0.0,0,0
2026-06-16 15:37:56.436,289754,L_Ankle,0.1325,0.0173,0.9918,5.39,-0.83,-10.3,-94.37,-31.6,-10.22,0.916257,0.047975,-0.063478,0.39259,0.0,0.0,0.0,0,0
2026-06-16 15:37:56.437,289774,L_Ankle,0.1286,0.0129,0.987,5.41,-0.82,-10.29,-94.54,-32.84,-11.08,0.916257,0.047975,-0.063478,0.39259,0.0,0.0,0.0,0,0
2026-06-16 15:37:56.439,289794,L_Ankle,0.129,0.0149,0.9875,5.41,-0.83,-10.3,0.0,0.0,0.0,0.916257,0.048006,-0.063478,0.39259,0.0,0.0,0.0,0,0
2026-06-16 15:37:56.449,289612,R_Hip,0.0535,0.0045,0.9948,0.25,-1.57,1.77,-19.42,27.07,-32.31,0.913266,-0.006897,-0.041353,-0.405133,0.0,0.0,0.0,0,0
2026-06-16 15:37:56.450,289632,R_Hip,0.0505,0.0089,0.9861,0.25,-1.57,1.77,0.0,0.0,0.0,0.913266,-0.006897,-0.041383,-0.405133,0.0,0.0,0.0,0,0
2026-06-16 15:37:56.452,289652,R_Hip,0.0407,0.0074,0.9982,0.26,-1.58,1.77,-19.78,26.71,-32.99,0.913266,-0.006897,-0.041383,-0.405133,0.0,0.0,0.0,0,0
2026-06-16 15:37:56.453,289672,R_Hip,0.0525,0.0074,0.976,0.25,-1.58,1.77,-19.96,27.26,-33.16,0.913266,-0.006897,-0.041414,-0.405133,0.0,0.0,0.0,0,0
2026-06-16 15:37:56.456,289756,L_Ankle,0.1197,0.0178,0.9808,5.41,-0.82,-10.29,-94.35,-33.01,-10.22,0.916227,0.048006,-0.063478,0.39259,0.0,0.0,0.0,0,0
2026-06-16 15:37:56.457,289757,L_Ankle,0.1271,0.0124,0.9966,5.41,-0.82,-10.3,-95.59,-32.46,-10.76,0.916227,0.048006,-0.063478,0.39259,0.0,0.0,0.0,0,0
2026-06-16 15:37:56.459,289777,L_Ankle,0.1261,0.0149,0.9885,5.41,-0.82,-10.3,-95.06,-32.65,-10.24,0.916227,0.048006,-0.063478,0.39259,0.0,0.0,0.0,0,0
2026-06-16 15:37:56.461,289797,L_Ankle,0.1227,0.0183,0.9866,5.4,-0.82,-10.29,0.0,0.0,0.0,0.916227,0.048006,-0.063478,0.39259,0.0,0.0,0.0,0,0
2026-06-16 15:37:56.462,289761,L_Shank,0.0047,-0.0268,0.9854,1.76,-1.18,-0.19,-4.84,13.3,-24.07,0.990661,-0.004975,-0.025575,0.133671,0.0,0.0,0.0,0,0
2026-06-16 15:37:56.464,289781,L_Shank,0.0067,-0.0263,0.9906,1.76,-1.17,-0.21,-4.65,14.51,-25.49,0.990661,-0.004975,-0.025544,0.133671,0.0,0.0,0.0,0,0
2026-06-16 15:37:56.466,289801,L_Shank,-0.0001,-0.0229,0.9897,1.74,-1.19,-0.19,0.0,0.0,0.0,0.990661,-0.004975,-0.025544,0.133671,0.0,0.0,0.0,0,0
2026-06-16 15:37:56.467,289629,R_Shank,0.034,-1.6136,0.9984,-0.09,-1.45,-8.41,-16.95,25.96,-21.23,0.930143,0.035401,-0.021485,0.364818,0.0,0.0,0.0,0,0
2026-06-16 15:37:56.468,289821,L_Shank,0.012,-0.0248,0.9954,1.76,-1.18,-0.19,-5.02,14.82,-23.0,0.990661,-0.004975,-0.025544,0.133671,0.0,0.0,0.0,0,0
2026-06-16 15:37:56.469,289649,R_Shank,0.0478,-2.6436,1.0143,-0.09,-1.45,-8.43,-15.76,25.11,-20.79,0.930143,0.035432,-0.021485,0.364818,0.0,0.0,0.0,0,0
2026-06-16 15:37:56.470,289766,L_Hip,0.1176,-0.0626,0.9895,-4.14,4.54,2.96,-19.36,17.98,-24.2,0.98706,-0.035951,-0.067263,-0.140843,0.0,0.0,0.0,0,0
2026-06-16 15:37:56.471,289669,R_Shank,0.0488,2.2392,1.008,-0.09,-1.45,-8.42,0.0,0.0,0.0,0.930143,0.035401,-0.021485,0.364818,0.0,0.0,0.0,0,0
2026-06-16 15:37:56.473,289786,L_Hip,0.1077,-0.0754,0.9841,-4.14,4.55,2.96,-18.32,18.65,-24.8,0.98706,-0.035951,-0.067263,-0.140843,0.0,0.0,0.0,0,0
2026-06-16 15:37:56.474,289689,R_Shank,0.0384,-1.7432,0.9956,-0.09,-1.46,-8.41,-17.12,25.8,-20.47,0.930143,0.035401,-0.021485,0.364818,0.0,0.0,0.0,0,0
2026-06-16 15:37:56.475,289806,L_Hip,0.1298,-0.07,0.9953,-4.13,4.55,2.96,0.0,0.0,0.0,0.98706,-0.035951,-0.067263,-0.140873,0.0,0.0,0.0,0,0
2026-06-16 15:37:56.476,289635,R_Ankle,0.0111,-0.0047,0.9938,0.75,-1.71,-0.5,-25.04,31.86,-28.63,0.243568,0.091006,0.015351,0.965453,0.0,0.0,0.0,0,0
2026-06-16 15:37:56.477,289826,L_Hip,0.1313,-0.0779,0.9943,-4.13,4.56,2.97,-18.16,18.49,-24.65,0.98706,-0.03592,-0.067263,-0.140873,0.0,0.0,0.0,0,0
2026-06-16 15:37:56.478,289655,R_Ankle,0.0189,-0.0106,1.0091,0.75,-1.71,-0.49,0.0,0.0,0.0,0.243568,0.090976,0.015351,0.965453,0.0,0.0,0.0,0,0
2026-06-16 15:37:56.480,289675,R_Ankle,0.0155,-0.0111,1.0192,0.77,-1.72,-0.5,-23.85,30.74,-27.53,0.243568,0.090976,0.015351,0.965453,0.0,0.0,0.0,0,0
2026-06-16 15:37:56.482,289695,R_Ankle,0.0155,-0.0166,1.0048,0.76,-1.72,-0.51,-25.4,29.94,-28.3,0.243568,0.090976,0.015351,0.965453,0.0,0.0,0.0,0,0
2026-06-16 15:37:56.483,289637,R_Hip,0.0505,0.0054,0.9958,0.25,-1.58,1.77,-21.06,26.17,-33.5,0.913266,-0.006928,-0.041414,-0.405133,0.0,0.0,0.0,0,0
2026-06-16 15:37:56.485,289657,R_Hip,0.054,0.0098,0.9972,0.24,-1.57,1.77,0.0,0.0,0.0,0.913266,-0.006897,-0.041414,-0.405133,0.0,0.0,0.0,0,0
2026-06-16 15:37:56.486,289677,R_Hip,0.0456,0.0001,0.9982,0.25,-1.56,1.78,-19.42,26.35,-33.67,0.913266,-0.006928,-0.041414,-0.405133,0.0,0.0,0.0,0,0
2026-06-16 15:37:56.489,289697,R_Hip,0.0456,0.0118,0.9958,0.25,-1.57,1.77,-18.87,27.63,-33.85,0.913266,-0.006928,-0.041414,-0.405133,0.0,0.0,0.0,0,0
2026-06-16 15:37:56.490,289789,L_Hip,0.1107,-0.0641,0.9778,-4.15,4.54,2.98,-17.85,16.24,-25.81,0.98706,-0.035951,-0.067232,-0.140873,0.0,0.0,0.0,0,0
2026-06-16 15:37:56.491,289652,R_Shank,0.0443,2.2392,1.0143,-0.09,-1.48,-8.41,-14.91,25.58,-21.85,0.930143,0.035401,-0.021516,0.364818,0.0,0.0,0.0,0,0
2026-06-16 15:37:56.492,289809,L_Hip,0.1283,-0.0769,0.9812,-4.14,4.54,2.98,-17.14,18.83,-24.67,0.98706,-0.035951,-0.067263,-0.140873,0.0,0.0,0.0,0,0
2026-06-16 15:37:56.494,289672,R_Shank,0.0434,-2.2548,1.0052,-0.09,-1.45,-8.42,-15.77,25.78,-20.49,0.930143,0.035432,-0.021546,0.364818,0.0,0.0,0.0,0,0
2026-06-16 15:37:56.495,289829,L_Hip,0.1225,-0.0739,0.9875,-4.14,4.55,2.96,0.0,0.0,0.0,0.98706,-0.035981,-0.067293,-0.140873,0.0,0.0,0.0,0,0
2026-06-16 15:37:56.496,289692,R_Shank,0.0492,2.628,1.0095,-0.09,-1.45,-8.41,0.0,0.0,0.0,0.930143,0.035401,-0.021546,0.364818,0.0,0.0,0.0,0,0
2026-06-16 15:37:56.497,289849,L_Hip,0.1279,-0.0651,0.9924,-4.14,4.55,2.97,-18.72,16.06,-24.49,0.98706,-0.035951,-0.067263,-0.140873,0.0,0.0,0.0,0,0
2026-06-16 15:37:56.498,289712,R_Shank,0.0483,-1.6136,1.0013,-0.09,-1.47,-8.42,-15.08,25.75,-22.3,0.930143,0.035401,-0.021577,0.364818,0.0,0.0,0.0,0,0
2026-06-16 15:37:56.500,289657,R_Ankle,0.0121,-0.0166,1.0034,0.77,-1.71,-0.49,-25.21,31.37,-27.55,0.243568,0.090945,0.015351,0.965453,0.0,0.0,0.0,0,0
2026-06-16 15:37:56.501,289801,L_Ankle,0.1335,0.0149,0.9803,5.41,-0.82,-10.29,-93.28,-33.38,-9.53,0.916227,0.047975,-0.063509,0.39259,0.0,0.0,0.0,0,0
2026-06-16 15:37:56.502,289677,R_Ankle,0.0233,-0.0136,1.0201,0.76,-1.71,-0.5,0.0,0.0,0.0,0.243568,0.090945,0.015351,0.965453,0.0,0.0,0.0,0,0
2026-06-16 15:37:56.504,289821,L_Ankle,0.1364,0.0144,0.9904,5.4,-0.83,-10.29,-94.91,-33.19,-12.11,0.916227,0.047975,-0.063478,0.39259,0.0,0.0,0.0,0,0
2026-06-16 15:37:56.504,289697,R_Ankle,0.016,-0.0156,1.0,0.77,-1.73,-0.49,-25.74,29.94,-28.31,0.243568,0.090976,0.015351,0.965453,0.0,0.0,0.0,0,0
2026-06-16 15:37:56.506,289841,L_Ankle,0.1222,0.028,0.9962,5.41,-0.82,-10.29,-95.43,-31.58,-10.58,0.916227,0.047975,-0.063509,0.392621,0.0,0.0,0.0,0,0
2026-06-16 15:37:56.507,289717,R_Ankle,0.0179,-0.0136,1.0053,0.77,-1.71,-0.49,-25.39,30.25,-27.69,0.243568,0.090976,0.015351,0.965453,0.0,0.0,0.0,0,0
2026-06-16 15:37:56.508,289861,L_Ankle,0.132,0.0129,0.9909,5.4,-0.81,-10.29,-95.77,-31.93,-10.25,0.916227,0.047975,-0.06354,0.392621,0.0,0.0,0.0,0,0
2026-06-16 15:37:56.511,289811,L_Shank,0.0033,-0.018,0.9911,1.76,-1.17,-0.21,-4.48,14.67,-25.02,0.990661,-0.005005,-0.025544,0.133671,0.0,0.0,0.0,0,0
2026-06-16 15:37:56.513,289812,L_Shank,0.0042,-0.016,0.9988,1.76,-1.16,-0.19,-6.06,15.16,-23.61,0.990661,-0.005005,-0.025544,0.133702,0.0,0.0,0.0,0,0
2026-06-16 15:37:56.514,289832,L_Shank,-0.0015,-0.0268,0.994,1.75,-1.17,-0.2,0.0,0.0,0.0,0.990661,-0.004975,-0.025513,0.133702,0.0,0.0,0.0,0,0
2026-06-16 15:37:56.517,289852,L_Shank,0.0047,-0.0185,0.9858,1.74,-1.19,-0.2,-3.98,14.81,-22.7,0.990661,-0.004975,-0.025544,0.133702,0.0,0.0,0.0,0,0
2026-06-16 15:37:56.517,289679,R_Ankle,0.014,-0.0161,1.0014,0.76,-1.71,-0.49,-24.37,29.95,-27.98,0.243568,0.090976,0.015351,0.965453,0.0,0.0,0.0,0,0
2026-06-16 15:37:56.518,289699,R_Ankle,0.0302,-0.0151,1.0225,0.77,-1.71,-0.49,0.0,0.0,0.0,0.243568,0.090976,0.015351,0.965453,0.0,0.0,0.0,0,0
2026-06-16 15:37:56.520,289719,R_Ankle,0.0194,-0.0151,1.012,0.77,-1.71,-0.49,-25.55,31.05,-27.85,0.243568,0.090976,0.015351,0.965453,0.0,0.0,0.0,0,0
2026-06-16 15:37:56.521,289739,R_Ankle,0.0165,-0.0081,1.0158,0.77,-1.7,-0.49,-25.75,29.95,-28.92,0.243568,0.090976,0.015351,0.965453,0.0,0.0,0.0,0,0
2026-06-16 15:37:56.534,289834,L_Hip,0.121,-0.0695,0.9929,-4.15,4.54,2.98,-18.83,18.48,-24.93,0.98706,-0.035981,-0.067293,-0.140873,0.0,0.0,0.0,0,0
2026-06-16 15:37:56.534,289697,R_Shank,0.0438,-1.1024,1.0133,-0.09,-1.47,-8.42,-16.45,25.79,-20.18,0.930143,0.035371,-0.021577,0.364818,0.0,0.0,0.0,0,0
2026-06-16 15:37:56.536,289854,L_Hip,0.1215,-0.0685,0.9832,-4.14,4.54,2.96,-18.52,17.83,-24.36,0.98706,-0.035981,-0.067263,-0.140873,0.0,0.0,0.0,0,0
2026-06-16 15:37:56.537,289717,R_Shank,0.0488,-1.1024,1.0152,-0.09,-1.45,-8.42,-16.61,25.63,-20.33,0.930143,0.035371,-0.021607,0.364818,0.0,0.0,0.0,0,0
2026-06-16 15:37:56.538,289874,L_Hip,0.1283,-0.0695,0.9958,-4.14,4.55,2.97,0.0,0.0,0.0,0.98706,-0.035951,-0.067293,-0.140843,0.0,0.0,0.0,0,0
2026-06-16 15:37:56.539,289737,R_Shank,0.0483,0.8276,1.0056,-0.08,-1.45,-8.41,0.0,0.0,0.0,0.930143,0.035401,-0.021607,0.364818,0.0,0.0,0.0,0,0
2026-06-16 15:37:56.541,289894,L_Hip,0.12,-0.0671,0.9832,-4.13,4.55,2.97,-18.35,18.64,-23.34,0.98706,-0.035981,-0.067293,-0.140843,0.0,0.0,0.0,0,0
2026-06-16 15:37:56.542,289757,R_Shank,0.0453,-1.6136,1.0148,-0.09,-1.46,-8.41,-17.28,24.65,-19.73,0.930143,0.035401,-0.021607,0.364818,0.0,0.0,0.0,0,0
2026-06-16 15:37:56.544,289836,L_Shank,0.0062,-0.019,0.9767,1.77,-1.19,-0.19,-5.19,15.68,-23.79,0.990661,-0.005005,-0.025575,0.133702,0.0,0.0,0.0,0,0
2026-06-16 15:37:56.544,289702,R_Ankle,0.016,-0.0111,1.0211,0.77,-1.71,-0.49,-25.56,31.38,-29.09,0.243568,0.090976,0.015351,0.965453,0.0,0.0,0.0,0,0
2026-06-16 15:37:56.545,289722,R_Ankle,0.0111,-0.0151,0.999,0.77,-1.7,-0.5,0.0,0.0,0.0,0.243568,0.090976,0.015381,0.965453,0.0,0.0,0.0,0,0
2026-06-16 15:37:56.547,289856,L_Shank,-0.0015,-0.0253,0.9974,1.76,-1.17,-0.19,-5.88,13.98,-24.07,0.990661,-0.005005,-0.025575,0.133702,0.0,0.0,0.0,0,0
2026-06-16 15:37:56.548,289742,R_Ankle,0.016,-0.0131,1.0163,0.77,-1.71,-0.49,-25.74,29.94,-28.31,0.243568,0.090945,0.015381,0.965453,0.0,0.0,0.0,0,0
2026-06-16 15:37:56.549,289876,L_Shank,-0.0001,-0.02,0.9878,1.77,-1.16,-0.19,-4.5,13.63,-22.83,0.990661,-0.005005,-0.025605,0.133702,0.0,0.0,0.0,0,0
2026-06-16 15:37:56.550,289762,R_Ankle,0.0155,-0.0195,0.9976,0.77,-1.71,-0.48,-24.72,29.63,-28.6,0.243568,0.090945,0.015381,0.965453,0.0,0.0,0.0,0,0
2026-06-16 15:37:56.552,289896,L_Shank,0.0013,-0.0224,0.9849,1.75,-1.19,-0.2,0.0,0.0,0.0,0.990661,-0.005005,-0.025605,0.133671,0.0,0.0,0.0,0,0
2026-06-16 15:37:56.552,289712,R_Hip,0.0535,0.003,0.9943,0.27,-1.56,1.77,-21.05,25.8,-32.13,0.913266,-0.006928,-0.041444,-0.405133,0.0,0.0,0.0,0,0
2026-06-16 15:37:56.554,289846,L_Ankle,0.129,0.0197,1.0014,5.41,-0.83,-10.3,-94.7,-33.01,-10.23,0.916227,0.047975,-0.06354,0.392621,0.0,0.0,0.0,0,0
2026-06-16 15:37:56.554,289732,R_Hip,0.0436,0.002,0.9909,0.25,-1.56,1.78,0.0,0.0,0.0,0.913266,-0.006928,-0.041414,-0.405133,0.0,0.0,0.0,0,0
2026-06-16 15:37:56.556,289866,L_Ankle,0.132,0.01,1.0,5.42,-0.81,-10.29,0.0,0.0,0.0,0.916227,0.047975,-0.06354,0.39259,0.0,0.0,0.0,0,0
2026-06-16 15:37:56.557,289752,R_Hip,0.055,0.0176,0.9909,0.26,-1.58,1.77,-19.05,27.8,-31.62,0.913266,-0.006958,-0.041414,-0.405133,0.0,0.0,0.0,0,0
2026-06-16 15:37:56.558,289886,L_Ankle,0.1276,0.0134,0.9894,5.41,-0.82,-10.3,-95.27,-32.47,-12.11,0.916227,0.047975,-0.06357,0.39259,0.0,0.0,0.0,0,0
2026-06-16 15:37:56.559,289772,R_Hip,0.0491,0.0113,0.9962,0.26,-1.56,1.77,-19.59,25.79,-30.76,0.913266,-0.006928,-0.041444,-0.405133,0.0,0.0,0.0,0,0
2026-06-16 15:37:56.560,289906,L_Ankle,0.1413,0.0192,1.0014,5.41,-0.82,-10.29,-94.2,-31.78,-10.39,0.916227,0.047975,-0.06354,0.392621,0.0,0.0,0.0,0,0
2026-06-16 15:37:56.562,289856,L_Hip,0.1254,-0.072,0.9929,-4.13,4.55,2.96,-19.52,18.14,-24.63,0.98706,-0.036012,-0.067293,-0.140843,0.0,0.0,0.0,0,0
2026-06-16 15:37:56.564,289876,L_Hip,0.119,-0.0656,0.9837,-4.16,4.54,2.97,-18.82,18.8,-24.94,0.98706,-0.036012,-0.067263,-0.140843,0.0,0.0,0.0,0,0
2026-06-16 15:37:56.565,289896,L_Hip,0.1249,-0.07,0.9953,-4.13,4.54,2.97,0.0,0.0,0.0,0.98706,-0.036012,-0.067263,-0.140843,0.0,0.0,0.0,0,0
2026-06-16 15:37:56.567,289916,L_Hip,0.1259,-0.0715,0.9958,-4.14,4.55,2.96,-18.67,18.96,-24.21,0.98706,-0.036012,-0.067293,-0.140843,0.0,0.0,0.0,0,0
2026-06-16 15:37:56.574,289737,R_Hip,0.0481,-0.0057,0.9948,0.27,-1.58,1.78,-19.96,26.53,-31.79,0.913266,-0.006928,-0.041475,-0.405133,0.0,0.0,0.0,0,0
2026-06-16 15:37:56.576,289757,R_Hip,0.0451,0.0045,0.9909,0.26,-1.57,1.76,0.0,0.0,0.0,0.913266,-0.006928,-0.041475,-0.405133,0.0,0.0,0.0,0,0
2026-06-16 15:37:56.577,289777,R_Hip,0.0456,0.003,0.9876,0.26,-1.55,1.78,-19.6,27.26,-31.45,0.913266,-0.006958,-0.041475,-0.405133,0.0,0.0,0.0,0,0
2026-06-16 15:37:56.579,289797,R_Hip,0.0412,0.0074,0.9799,0.25,-1.56,1.77,-19.96,25.79,-31.79,0.913266,-0.006958,-0.041444,-0.405133,0.0,0.0,0.0,0,0
2026-06-16 15:37:56.581,289742,R_Shank,0.0311,-0.7136,1.0066,-0.08,-1.45,-8.41,-16.25,25.28,-22.14,0.930143,0.035401,-0.021638,0.364818,0.0,0.0,0.0,0,0
2026-06-16 15:37:56.582,289762,R_Shank,0.0448,0.1864,0.998,-0.09,-1.45,-8.41,-16.59,25.29,-21.54,0.930143,0.035401,-0.021607,0.364818,0.0,0.0,0.0,0,0
2026-06-16 15:37:56.584,289782,R_Shank,0.0375,3.01,1.0229,-0.09,-1.43,-8.42,0.0,0.0,0.0,0.930143,0.035371,-0.021607,0.364818,0.0,0.0,0.0,0,0
2026-06-16 15:37:56.586,289802,R_Shank,0.0517,-2.6436,1.0056,-0.09,-1.45,-8.41,-17.94,25.31,-21.52,0.930143,0.035371,-0.021577,0.364818,0.0,0.0,0.0,0,0
2026-06-16 15:37:56.588,289747,R_Ankle,0.0189,-0.0131,0.9986,0.77,-1.7,-0.49,-25.9,30.09,-27.85,0.243568,0.090915,0.015351,0.965484,0.0,0.0,0.0,0,0
2026-06-16 15:37:56.590,289767,R_Ankle,0.0165,-0.0151,1.0019,0.77,-1.71,-0.5,0.0,0.0,0.0,0.243568,0.090915,0.015351,0.965484,0.0,0.0,0.0,0,0
2026-06-16 15:37:56.592,289891,L_Ankle,0.129,0.0119,0.9928,5.41,-0.81,-10.29,-95.76,-32.99,-10.59,0.916227,0.047975,-0.063509,0.39259,0.0,0.0,0.0,0,0
2026-06-16 15:37:56.592,289787,R_Ankle,0.0194,-0.0042,1.0024,0.75,-1.71,-0.48,-26.24,31.36,-28.17,0.243568,0.090915,0.015351,0.965484,0.0,0.0,0.0,0,0
2026-06-16 15:37:56.594,289911,L_Ankle,0.1305,0.0119,1.0077,5.41,-0.83,-10.31,0.0,0.0,0.0,0.916227,0.047975,-0.06354,0.392621,0.0,0.0,0.0,0,0
2026-06-16 15:37:56.595,289807,R_Ankle,0.0214,-0.0052,0.9928,0.77,-1.72,-0.5,-24.22,29.49,-29.36,0.243568,0.090915,0.015381,0.965484,0.0,0.0,0.0,0,0
2026-06-16 15:37:56.597,289931,L_Ankle,0.1232,0.0192,0.999,5.41,-0.82,-10.29,-93.83,-32.85,-10.38,0.916227,0.047975,-0.063509,0.392621,0.0,0.0,0.0,0,0
2026-06-16 15:37:56.599,289951,L_Ankle,0.1344,0.0134,0.9866,5.41,-0.81,-10.3,-94.92,-32.12,-11.76,0.916227,0.047975,-0.06354,0.392621,0.0,0.0,0.0,0,0
2026-06-16 15:37:56.602,289901,L_Hip,0.1215,-0.0641,0.9992,-4.15,4.55,2.97,-17.98,18.98,-25.09,0.98706,-0.036012,-0.067293,-0.140843,0.0,0.0,0.0,0,0
2026-06-16 15:37:56.602,289764,R_Shank,0.0404,-1.6136,0.997,-0.09,-1.47,-8.42,-16.91,23.97,-20.94,0.930143,0.03534,-0.021577,0.364818,0.0,0.0,0.0,0,0
2026-06-16 15:37:56.605,289784,R_Shank,0.0419,0.698,1.009,-0.09,-1.45,-8.41,0.0,0.0,0.0,0.930143,0.035371,-0.021607,0.364818,0.0,0.0,0.0,0,0
2026-06-16 15:37:56.605,289921,L_Hip,0.1195,-0.0744,0.9725,-4.13,4.54,2.98,-20.04,17.32,-24.77,0.98706,-0.036012,-0.067293,-0.140843,0.0,0.0,0.0,0,0
2026-06-16 15:37:56.608,289804,R_Shank,0.0478,-1.8728,1.0061,-0.09,-1.45,-8.41,-16.94,25.3,-20.93,0.930143,0.03534,-0.021607,0.364849,0.0,0.0,0.0,0,0
2026-06-16 15:37:56.608,289941,L_Hip,0.1249,-0.071,0.9992,-4.16,4.54,2.96,-17.99,19.29,-23.64,0.98706,-0.036012,-0.067293,-0.140843,0.0,0.0,0.0,0,0
2026-06-16 15:37:56.610,289961,L_Hip,0.1156,-0.0685,0.9832,-4.15,4.55,2.97,0.0,0.0,0.0,0.98706,-0.036012,-0.067293,-0.140843,0.0,0.0,0.0,0,0
2026-06-16 15:37:56.610,289824,R_Shank,0.0492,-1.7432,1.0037,-0.09,-1.45,-8.41,-17.46,26.47,-21.07,0.930113,0.035371,-0.021607,0.364849,0.0,0.0,0.0,0,0
2026-06-16 15:37:56.612,289912,L_Shank,-0.0015,-0.0136,0.9801,1.76,-1.18,-0.18,-5.89,14.31,-23.45,0.990661,-0.005005,-0.025605,0.133671,0.0,0.0,0.0,0,0
2026-06-16 15:37:56.614,289932,L_Shank,0.0042,-0.0146,1.0031,1.74,-1.18,-0.19,-5.54,15.34,-23.78,0.990661,-0.005005,-0.025605,0.133671,0.0,0.0,0.0,0,0
2026-06-16 15:37:56.615,289952,L_Shank,0.0111,-0.0136,0.9887,1.76,-1.16,-0.19,0.0,0.0,0.0,0.990661,-0.005005,-0.025605,0.133671,0.0,0.0,0.0,0,0
2026-06-16 15:37:56.617,289972,L_Shank,0.0111,-0.0151,0.9868,1.77,-1.17,-0.2,-4.84,15.0,-24.09,0.990661,-0.004975,-0.025605,0.133671,0.0,0.0,0.0,0,0
2026-06-16 15:37:56.624,289787,R_Hip,0.0476,0.0064,0.9953,0.27,-1.57,1.78,-18.87,27.26,-33.5,0.913266,-0.006958,-0.041444,-0.405133,0.0,0.0,0.0,0,0
2026-06-16 15:37:56.626,289807,R_Hip,0.0422,0.0152,0.9924,0.28,-1.57,1.78,0.0,0.0,0.0,0.913266,-0.006958,-0.041444,-0.405133,0.0,0.0,0.0,0,0
2026-06-16 15:37:56.628,289827,R_Hip,0.0382,0.0128,0.9982,0.25,-1.57,1.77,-20.51,27.44,-32.31,0.913266,-0.006958,-0.041444,-0.405103,0.0,0.0,0.0,0,0
2026-06-16 15:37:56.630,289847,R_Hip,0.0441,0.0074,0.9876,0.27,-1.56,1.78,-19.23,27.26,-32.48,0.913266,-0.006928,-0.041414,-0.405133,0.0,0.0,0.0,0,0
2026-06-16 15:37:56.636,289936,L_Shank,0.0008,-0.0224,0.9758,1.75,-1.17,-0.2,-5.36,15.51,-24.25,0.990661,-0.004975,-0.025575,0.133702,0.0,0.0,0.0,0,0
2026-06-16 15:37:56.638,289956,L_Shank,0.0023,-0.0136,0.9878,1.76,-1.18,-0.2,-4.13,14.33,-24.71,0.990661,-0.005005,-0.025605,0.133702,0.0,0.0,0.0,0,0
2026-06-16 15:37:56.639,289976,L_Shank,0.0081,-0.0214,0.9806,1.75,-1.19,-0.19,-4.32,14.14,-23.0,0.990661,-0.004975,-0.025605,0.133671,0.0,0.0,0.0,0,0
2026-06-16 15:37:56.641,289996,L_Shank,0.0008,-0.0248,0.9964,1.75,-1.19,-0.21,0.0,0.0,0.0,0.990661,-0.004975,-0.025605,0.133671,0.0,0.0,0.0,0,0
2026-06-16 15:37:56.647,289946,L_Hip,0.1195,-0.071,0.989,-4.14,4.55,2.96,-18.88,17.82,-22.61,0.98706,-0.036042,-0.067293,-0.140843,0.0,0.0,0.0,0,0
2026-06-16 15:37:56.648,289810,R_Shank,0.0434,1.728,1.0023,-0.09,-1.47,-8.41,-15.59,25.27,-20.94,0.930113,0.035371,-0.021607,0.364849,0.0,0.0,0.0,0,0
2026-06-16 15:37:56.650,289966,L_Hip,0.1269,-0.0715,0.9948,-4.12,4.55,2.97,-17.51,18.17,-23.79,0.98706,-0.036042,-0.067263,-0.140843,0.0,0.0,0.0,0,0
2026-06-16 15:37:56.650,289830,R_Shank,0.0473,0.0572,1.0128,-0.1,-1.47,-8.41,0.0,0.0,0.0,0.930113,0.035401,-0.021638,0.364849,0.0,0.0,0.0,0,0
2026-06-16 15:37:56.652,289986,L_Hip,0.1279,-0.0685,0.9933,-4.14,4.57,2.98,-18.33,18.65,-24.51,0.98706,-0.036012,-0.067232,-0.140843,0.0,0.0,0.0,0,0
2026-06-16 15:37:56.653,289850,R_Shank,0.0443,1.728,1.0071,-0.09,-1.45,-8.41,-15.77,26.43,-21.99,0.930113,0.035371,-0.021638,0.364849,0.0,0.0,0.0,0,0
2026-06-16 15:37:56.654,289947,L_Hip,0.1239,-0.0769,0.9861,-4.15,4.55,2.96,0.0,0.0,0.0,0.98706,-0.036042,-0.067232,-0.140843,0.0,0.0,0.0,0,0
2026-06-16 15:37:56.655,289870,R_Shank,0.0434,2.3688,0.9994,-0.09,-1.47,-8.42,-17.3,26.63,-21.22,0.930113,0.035371,-0.021638,0.364849,0.0,0.0,0.0,0,0
2026-06-16 15:37:56.657,289812,R_Hip,0.0461,0.0093,0.9861,0.26,-1.57,1.77,-18.32,27.44,-32.3,0.913266,-0.006928,-0.041414,-0.405103,0.0,0.0,0.0,0,0
2026-06-16 15:37:56.659,289832,R_Hip,0.0515,0.0123,0.9914,0.27,-1.58,1.77,0.0,0.0,0.0,0.913266,-0.006928,-0.041414,-0.405133,0.0,0.0,0.0,0,0
2026-06-16 15:37:56.660,289960,L_Ankle,0.1339,0.0217,0.9851,5.41,-0.81,-10.31,-95.41,-33.35,-10.92,0.916227,0.047975,-0.06354,0.39259,0.0,0.0,0.0,0,0
2026-06-16 15:37:56.661,289852,R_Hip,0.0387,0.001,0.9982,0.27,-1.58,1.77,-19.23,25.79,-31.1,0.913266,-0.006928,-0.041414,-0.405133,0.0,0.0,0.0,0,0
2026-06-16 15:37:56.663,289980,L_Ankle,0.1398,0.0119,0.9971,5.41,-0.81,-10.29,0.0,0.0,0.0,0.916227,0.047975,-0.06354,0.392621,0.0,0.0,0.0,0,0
2026-06-16 15:37:56.664,289872,R_Hip,0.051,0.0079,0.9948,0.25,-1.56,1.77,-18.32,27.8,-31.96,0.913266,-0.006928,-0.041444,-0.405133,0.0,0.0,0.0,0,0
2026-06-16 15:37:56.665,290000,L_Ankle,0.1339,0.0036,0.9837,5.42,-0.82,-10.3,-94.7,-33.01,-10.23,0.916227,0.047975,-0.06354,0.392621,0.0,0.0,0.0,0,0
2026-06-16 15:37:56.666,289814,R_Ankle,0.017,-0.0072,1.0048,0.78,-1.72,-0.48,-26.26,29.47,-28.77,0.243568,0.090945,0.015381,0.965484,0.0,0.0,0.0,0,0
2026-06-16 15:37:56.668,290020,L_Ankle,0.1315,0.0227,0.9861,5.41,-0.82,-10.3,-95.39,-34.42,-10.93,0.916227,0.047975,-0.063509,0.392621,0.0,0.0,0.0,0,0
2026-06-16 15:37:56.669,289815,R_Ankle,0.0145,-0.019,0.9952,0.77,-1.72,-0.5,0.0,0.0,0.0,0.243538,0.090945,0.015412,0.965484,0.0,0.0,0.0,0,0
2026-06-16 15:37:56.670,289969,L_Hip,0.1215,-0.0764,0.9948,-4.14,4.54,2.96,-18.18,18.16,-24.07,0.98706,-0.036012,-0.067232,-0.140843,0.0,0.0,0.0,0,0
2026-06-16 15:37:56.671,289835,R_Ankle,0.016,-0.0121,1.0072,0.77,-1.71,-0.51,-26.09,29.31,-29.23,0.243568,0.090915,0.015412,0.965484,0.0,0.0,0.0,0,0
2026-06-16 15:37:56.673,289989,L_Hip,0.121,-0.0695,0.9914,-4.15,4.54,2.97,-19.89,17.16,-23.75,0.98706,-0.036012,-0.067232,-0.140843,0.0,0.0,0.0,0,0
2026-06-16 15:37:56.674,289855,R_Ankle,0.014,-0.0111,1.0081,0.76,-1.72,-0.49,-25.23,29.79,-28.45,0.243568,0.090945,0.015412,0.965484,0.0,0.0,0.0,0,0
2026-06-16 15:37:56.676,290009,L_Hip,0.1225,-0.0725,0.9764,-4.15,4.54,2.96,-17.82,19.14,-24.08,0.98706,-0.036012,-0.067232,-0.140843,0.0,0.0,0.0,0,0
2026-06-16 15:37:56.677,289837,R_Hip,0.0515,0.0006,0.9909,0.26,-1.57,1.78,-19.6,26.53,-33.16,0.913266,-0.006928,-0.041444,-0.405133,0.0,0.0,0.0,0,0
2026-06-16 15:37:56.679,290029,L_Hip,0.1308,-0.0764,0.9914,-4.14,4.54,2.96,-19.02,18.31,-24.2,0.98706,-0.036042,-0.067232,-0.140843,0.0,0.0,0.0,0,0
2026-06-16 15:37:56.679,289857,R_Hip,0.0535,0.0069,0.9919,0.25,-1.56,1.78,0.0,0.0,0.0,0.913266,-0.006928,-0.041444,-0.405133,0.0,0.0,0.0,0,0
2026-06-16 15:37:56.682,289877,R_Hip,0.0387,0.004,1.0035,0.25,-1.58,1.78,-19.96,27.99,-32.14,0.913266,-0.006928,-0.041444,-0.405133,0.0,0.0,0.0,0,0
2026-06-16 15:37:56.682,289981,L_Ankle,0.1354,0.0192,0.9976,5.41,-0.81,-10.3,-94.54,-32.48,-10.4,0.916227,0.047975,-0.063478,0.392621,0.0,0.0,0.0,0,0
2026-06-16 15:37:56.684,290001,L_Ankle,0.129,0.0183,0.9942,5.41,-0.8,-10.29,0.0,0.0,0.0,0.916227,0.047975,-0.063509,0.392621,0.0,0.0,0.0,0,0
2026-06-16 15:37:56.685,289897,R_Hip,0.0456,0.0049,0.9866,0.26,-1.58,1.77,-18.51,27.62,-32.82,0.913266,-0.006928,-0.041444,-0.405103,0.0,0.0,0.0,0,0
2026-06-16 15:37:56.688,290021,L_Ankle,0.1256,0.0149,0.9813,5.41,-0.83,-10.3,-93.49,-32.14,-10.04,0.916227,0.047975,-0.063478,0.392621,0.0,0.0,0.0,0,0
2026-06-16 15:37:56.690,289982,L_Ankle,0.1281,0.01,0.9856,5.4,-0.81,-10.31,-95.39,-32.29,-9.22,0.916227,0.047945,-0.063478,0.392621,0.0,0.0,0.0,0,0
2026-06-16 15:37:56.692,289854,R_Shank,0.0384,0.8276,0.9907,-0.08,-1.46,-8.42,-17.6,24.98,-21.53,0.930113,0.035371,-0.021638,0.364849,0.0,0.0,0.0,0,0
2026-06-16 15:37:56.693,289986,L_Shank,-0.001,-0.0229,0.9863,1.77,-1.17,-0.19,-6.75,15.18,-24.54,0.990661,-0.004944,-0.025605,0.133702,0.0,0.0,0.0,0,0
2026-06-16 15:37:56.695,290006,L_Shank,-0.005,-0.0244,0.9873,1.77,-1.16,-0.2,-4.68,14.13,-22.37,0.990661,-0.004944,-0.025605,0.133671,0.0,0.0,0.0,0,0
2026-06-16 15:37:56.698,289874,R_Shank,0.0404,3.01,0.9956,-0.08,-1.46,-8.41,0.0,0.0,0.0,0.930113,0.035371,-0.021638,0.364849,0.0,0.0,0.0,0,0
2026-06-16 15:37:56.699,290026,L_Shank,-0.0015,-0.018,0.9983,1.77,-1.16,-0.19,-4.66,14.49,-24.24,0.990661,-0.004944,-0.025636,0.133702,0.0,0.0,0.0,0,0
2026-06-16 15:37:56.701,289894,R_Shank,0.0345,1.3392,1.0076,-0.09,-1.46,-8.42,-16.77,25.46,-21.38,0.930113,0.035371,-0.021638,0.364849,0.0,0.0,0.0,0,0
2026-06-16 15:37:56.701,290046,L_Shank,0.0023,-0.0165,1.0036,1.74,-1.17,-0.2,-3.95,14.17,-25.18,0.990661,-0.004913,-0.025605,0.133671,0.0,0.0,0.0,0,0
2026-06-16 15:37:56.703,289914,R_Shank,0.036,-1.7432,1.0095,-0.08,-1.45,-8.42,-16.78,25.79,-20.78,0.930113,0.035371,-0.021607,0.364849,0.0,0.0,0.0,0,0
2026-06-16 15:37:56.705,290004,L_Ankle,0.1281,0.0202,1.001,5.41,-0.81,-10.29,-93.16,-32.15,-11.39,0.916227,0.047945,-0.063478,0.392621,0.0,0.0,0.0,0,0
2026-06-16 15:37:56.707,289860,R_Ankle,0.0228,-0.0096,1.0053,0.76,-1.72,-0.5,-25.22,31.05,-28.16,0.243568,0.090945,0.015412,0.965484,0.0,0.0,0.0,0,0
2026-06-16 15:37:56.708,290024,L_Ankle,0.1374,0.0207,0.9952,5.41,-0.83,-10.29,0.0,0.0,0.0,0.916227,0.047945,-0.063509,0.392621,0.0,0.0,0.0,0,0
2026-06-16 15:37:56.709,289880,R_Ankle,0.015,-0.019,1.0038,0.76,-1.72,-0.49,0.0,0.0,0.0,0.243568,0.090945,0.015412,0.965484,0.0,0.0,0.0,0,0
2026-06-16 15:37:56.711,290044,L_Ankle,0.1281,0.0197,0.977,5.41,-0.82,-10.29,-93.69,-32.68,-11.91,0.916227,0.047945,-0.063478,0.392621,0.0,0.0,0.0,0,0
2026-06-16 15:37:56.712,289900,R_Ankle,0.0189,-0.0141,1.0019,0.76,-1.7,-0.48,-25.58,30.11,-29.39,0.243538,0.090915,0.015442,0.965484,0.0,0.0,0.0,0,0
2026-06-16 15:37:56.714,290064,L_Ankle,0.1207,0.0217,0.9914,5.42,-0.81,-10.29,-93.29,-33.03,-9.87,0.916227,0.047975,-0.063478,0.392621,0.0,0.0,0.0,0,0
2026-06-16 15:37:56.716,289920,R_Ankle,0.0194,-0.0146,1.0053,0.76,-1.73,-0.5,-24.05,28.37,-28.58,0.243568,0.090945,0.015442,0.965484,0.0,0.0,0.0,0,0
2026-06-16 15:37:56.719,290011,L_Shank,0.0111,-0.0224,0.995,1.76,-1.19,-0.19,-5.19,13.97,-23.45,0.990661,-0.004913,-0.025605,0.133671,0.0,0.0,0.0,0,0
2026-06-16 15:37:56.720,289882,R_Ankle,0.014,-0.0101,1.0158,0.75,-1.7,-0.5,-24.87,30.09,-27.22,0.243538,0.090945,0.015442,0.965484,0.0,0.0,0.0,0,0
2026-06-16 15:37:56.721,290031,L_Shank,0.0003,-0.0195,0.9767,1.76,-1.18,-0.2,-5.7,14.5,-24.85,0.990661,-0.004944,-0.025636,0.133671,0.0,0.0,0.0,0,0
2026-06-16 15:37:56.722,289902,R_Ankle,0.014,-0.0121,0.9981,0.77,-1.71,-0.5,0.0,0.0,0.0,0.243568,0.090915,0.015412,0.965484,0.0,0.0,0.0,0,0
2026-06-16 15:37:56.724,290051,L_Shank,0.0086,-0.0195,0.9935,1.77,-1.18,-0.2,-4.32,15.16,-23.32,0.990661,-0.004944,-0.025636,0.133671,0.0,0.0,0.0,0,0
2026-06-16 15:37:56.726,289922,R_Ankle,0.0199,-0.0136,0.999,0.76,-1.72,-0.48,-24.71,30.59,-28.61,0.243538,0.090915,0.015412,0.965484,0.0,0.0,0.0,0,0
2026-06-16 15:37:56.728,290071,L_Shank,-0.004,-0.017,0.9825,1.76,-1.19,-0.2,-5.71,14.15,-23.92,0.990661,-0.004944,-0.025636,0.133671,0.0,0.0,0.0,0,0
2026-06-16 15:37:56.728,289942,R_Ankle,0.0189,-0.0081,0.988,0.77,-1.71,-0.48,-25.23,29.78,-28.14,0.243538,0.090945,0.015412,0.965484,0.0,0.0,0.0,0,0
2026-06-16 15:37:56.730,290014,L_Hip,0.1215,-0.0739,1.0035,-4.14,4.55,2.96,-17.5,18.18,-24.37,0.98706,-0.036042,-0.067232,-0.140843,0.0,0.0,0.0,0,0
2026-06-16 15:37:56.731,289887,R_Hip,0.0481,0.0118,0.9972,0.26,-1.58,1.78,-20.69,26.53,-32.82,0.913266,-0.006928,-0.041444,-0.405103,0.0,0.0,0.0,0,0
2026-06-16 15:37:56.732,290034,L_Hip,0.1171,-0.0646,0.9827,-4.15,4.55,2.97,0.0,0.0,0.0,0.98706,-0.036042,-0.067232,-0.140843,0.0,0.0,0.0,0,0
2026-06-16 15:37:56.733,289907,R_Hip,0.0535,0.0093,0.9909,0.26,-1.56,1.77,0.0,0.0,0.0,0.913266,-0.006958,-0.041444,-0.405103,0.0,0.0,0.0,0,0
2026-06-16 15:37:56.736,290054,L_Hip,0.1239,-0.0759,0.9759,-4.13,4.54,2.96,-20.19,18.13,-24.62,0.98706,-0.036073,-0.067232,-0.140843,0.0,0.0,0.0,0,0
2026-06-16 15:37:56.737,289927,R_Hip,0.0451,0.0035,0.9967,0.26,-1.56,1.76,-19.24,27.26,-33.16,0.913266,-0.006958,-0.041444,-0.405103,0.0,0.0,0.0,0,0
2026-06-16 15:37:56.737,290074,L_Hip,0.1249,-0.073,0.9909,-4.13,4.56,2.97,-19.03,17.99,-23.91,0.98706,-0.036103,-0.067232,-0.140843,0.0,0.0,0.0,0,0
2026-06-16 15:37:56.739,289947,R_Hip,0.0471,0.0064,0.9958,0.25,-1.58,1.77,-21.24,26.34,-31.62,0.913266,-0.006958,-0.041444,-0.405103,0.0,0.0,0.0,0,0
2026-06-16 15:37:56.740,290036,L_Shank,-0.0006,-0.0209,0.983,1.76,-1.16,-0.2,-6.06,13.81,-23.6,0.990661,-0.004944,-0.025605,0.133671,0.0,0.0,0.0,0,0
2026-06-16 15:37:56.742,290056,L_Shank,0.0047,-0.0224,0.983,1.77,-1.17,-0.19,0.0,0.0,0.0,0.990661,-0.004944,-0.025575,0.133671,0.0,0.0,0.0,0,0
2026-06-16 15:37:56.742,289900,R_Shank,0.0507,2.3688,1.0104,-0.08,-1.46,-8.43,-16.61,25.3,-20.33,0.930113,0.03534,-0.021607,0.364849,0.0,0.0,0.0,0,0
2026-06-16 15:37:56.744,289920,R_Shank,0.0384,-0.8432,1.0311,-0.09,-1.46,-8.43,0.0,0.0,0.0,0.930113,0.035371,-0.021577,0.364849,0.0,0.0,0.0,0,0
2026-06-16 15:37:56.744,290076,L_Shank,0.0003,-0.019,0.9916,1.75,-1.17,-0.18,-6.05,14.85,-25.17,0.990661,-0.004944,-0.025575,0.133671,0.0,0.0,0.0,0,0
2026-06-16 15:37:56.746,290096,L_Shank,0.0042,-0.0283,0.9964,1.75,-1.18,-0.19,-5.02,15.83,-23.01,0.990661,-0.004944,-0.025575,0.133671,0.0,0.0,0.0,0,0
2026-06-16 15:37:56.747,289940,R_Shank,0.0399,-2.514,0.9931,-0.09,-1.45,-8.42,-16.78,25.14,-20.18,0.930113,0.03534,-0.021607,0.364849,0.0,0.0,0.0,0,0
2026-06-16 15:37:56.748,289960,R_Shank,0.0345,-1.6136,1.0061,-0.09,-1.45,-8.41,-16.58,24.63,-21.54,0.930113,0.03534,-0.021607,0.364849,0.0,0.0,0.0,0,0
2026-06-16 15:37:56.750,289904,R_Ankle,0.0189,-0.0111,1.0014,0.77,-1.72,-0.49,-24.87,31.05,-27.54,0.243538,0.090945,0.015412,0.965484,0.0,0.0,0.0,0,0
2026-06-16 15:37:56.752,289924,R_Ankle,0.0228,-0.0146,1.0163,0.77,-1.7,-0.51,-26.09,29.63,-28.92,0.243538,0.090976,0.015442,0.965453,0.0,0.0,0.0,0,0
2026-06-16 15:37:56.754,289944,R_Ankle,0.017,-0.0185,1.0029,0.77,-1.7,-0.51,0.0,0.0,0.0,0.243568,0.090976,0.015442,0.965453,0.0,0.0,0.0,0,0
2026-06-16 15:37:56.755,289964,R_Ankle,0.0228,-0.0146,1.0024,0.78,-1.71,-0.5,-24.54,30.42,-28.15,0.243568,0.090976,0.015442,0.965453,0.0,0.0,0.0,0,0
2026-06-16 15:37:56.757,289912,R_Hip,0.0486,0.0035,0.9837,0.25,-1.57,1.77,-21.06,27.26,-32.14,0.913266,-0.006958,-0.041475,-0.405103,0.0,0.0,0.0,0,0
2026-06-16 15:37:56.759,289932,R_Hip,0.0461,0.0201,0.9943,0.26,-1.58,1.78,0.0,0.0,0.0,0.913297,-0.006958,-0.041414,-0.405103,0.0,0.0,0.0,0,0
2026-06-16 15:37:56.760,290059,L_Hip,0.121,-0.0671,0.987,-4.12,4.55,2.97,-19.17,19.11,-24.35,0.98706,-0.036103,-0.067232,-0.140843,0.0,0.0,0.0,0,0
2026-06-16 15:37:56.761,289952,R_Hip,0.0451,-0.0052,0.9967,0.28,-1.57,1.79,-19.23,27.62,-31.79,0.913297,-0.006958,-0.041444,-0.405103,0.0,0.0,0.0,0,0
2026-06-16 15:37:56.762,290079,L_Hip,0.1195,-0.0764,0.9948,-4.14,4.54,2.97,0.0,0.0,0.0,0.98706,-0.036103,-0.067232,-0.140843,0.0,0.0,0.0,0,0
2026-06-16 15:37:56.763,289972,R_Hip,0.0397,0.0079,0.989,0.27,-1.57,1.77,-19.96,26.16,-32.82,0.913297,-0.006958,-0.041444,-0.405103,0.0,0.0,0.0,0,0
2026-06-16 15:37:56.764,290099,L_Hip,0.1225,-0.0705,0.9953,-4.13,4.56,3.0,-20.04,18.29,-23.61,0.98706,-0.036134,-0.067232,-0.140843,0.0,0.0,0.0,0,0
2026-06-16 15:37:56.766,290119,L_Hip,0.1249,-0.073,0.9885,-4.14,4.57,2.99,-18.17,17.52,-24.94,0.98706,-0.036103,-0.067232,-0.140843,0.0,0.0,0.0,0,0
2026-06-16 15:37:56.772,290071,L_Ankle,0.1325,0.0139,0.9803,5.4,-0.82,-10.29,-94.69,-32.65,-9.21,0.916227,0.047975,-0.063509,0.392621,0.0,0.0,0.0,0,0
2026-06-16 15:37:56.774,290091,L_Ankle,0.133,0.0109,0.9918,5.4,-0.83,-10.29,-94.2,-33.2,-11.75,0.916227,0.047975,-0.063509,0.392621,0.0,0.0,0.0,0,0
2026-06-16 15:37:56.775,290111,L_Ankle,0.1364,0.0236,0.987,5.41,-0.83,-10.29,0.0,0.0,0.0,0.916227,0.047975,-0.06354,0.392621,0.0,0.0,0.0,0,0
2026-06-16 15:37:56.777,290131,L_Ankle,0.1388,0.0144,0.9837,5.41,-0.83,-10.29,-94.34,-33.37,-9.89,0.916227,0.047975,-0.063509,0.392621,0.0,0.0,0.0,0,0
2026-06-16 15:37:56.781,289944,R_Shank,0.0394,0.698,1.0066,-0.1,-1.46,-8.41,-16.77,25.13,-20.78,0.930113,0.03534,-0.021607,0.364849,0.0,0.0,0.0,0,0
2026-06-16 15:37:56.783,289964,R_Shank,0.034,1.728,0.9984,-0.09,-1.46,-8.42,0.0,0.0,0.0,0.930113,0.03534,-0.021577,0.364849,0.0,0.0,0.0,0,0
2026-06-16 15:37:56.785,289984,R_Shank,0.0424,-0.0724,1.0176,-0.09,-1.46,-8.43,-17.6,24.98,-21.53,0.930113,0.03534,-0.021577,0.364849,0.0,0.0,0.0,0,0
2026-06-16 15:37:56.786,290086,L_Shank,-0.0064,-0.0248,1.0002,1.75,-1.16,-0.2,-5.02,14.15,-23.61,0.990661,-0.004944,-0.025605,0.133671,0.0,0.0,0.0,0,0
2026-06-16 15:37:56.788,290004,R_Shank,0.0463,3.1396,1.0186,-0.09,-1.46,-8.41,-15.94,26.27,-21.24,0.930113,0.03534,-0.021577,0.364849,0.0,0.0,0.0,0,0
2026-06-16 15:37:56.788,290106,L_Shank,0.0013,-0.0244,0.9916,1.74,-1.19,-0.2,0.0,0.0,0.0,0.990661,-0.004944,-0.025605,0.133671,0.0,0.0,0.0,0,0
2026-06-16 15:37:56.790,290087,L_Shank,0.0062,-0.0219,0.9858,1.75,-1.17,-0.2,-4.49,13.97,-23.46,0.990661,-0.004944,-0.025605,0.133671,0.0,0.0,0.0,0,0
2026-06-16 15:37:56.792,290107,L_Shank,0.0003,-0.0116,0.9844,1.77,-1.16,-0.19,-6.06,14.15,-23.6,0.990661,-0.004944,-0.025605,0.133671,0.0,0.0,0.0,0,0
2026-06-16 15:37:56.794,290094,L_Ankle,0.132,0.0192,0.9918,5.41,-0.82,-10.31,-94.18,-33.19,-10.39,0.916227,0.047975,-0.063509,0.392621,0.0,0.0,0.0,0,0
2026-06-16 15:37:56.796,290114,L_Ankle,0.1256,0.0173,0.9875,5.41,-0.83,-10.3,-93.82,-32.49,-9.7,0.916227,0.047945,-0.063509,0.392621,0.0,0.0,0.0,0,0
2026-06-16 15:37:56.798,290134,L_Ankle,0.13,0.0183,0.9827,5.4,-0.81,-10.29,0.0,0.0,0.0,0.916227,0.047945,-0.063509,0.392621,0.0,0.0,0.0,0,0
2026-06-16 15:37:56.799,289962,R_Hip,0.0461,0.0064,0.9842,0.27,-1.57,1.77,-21.24,26.34,-31.62,0.913297,-0.006928,-0.041414,-0.405103,0.0,0.0,0.0,0,0
2026-06-16 15:37:56.801,290154,L_Ankle,0.1388,0.0207,0.987,5.4,-0.83,-10.27,-95.24,-32.83,-11.09,0.916227,0.047975,-0.063509,0.392621,0.0,0.0,0.0,0,0
2026-06-16 15:37:56.802,289982,R_Hip,0.0402,-0.0003,0.9905,0.25,-1.57,1.77,-19.96,28.35,-32.14,0.913297,-0.006958,-0.041414,-0.405103,0.0,0.0,0.0,0,0
2026-06-16 15:37:56.804,290002,R_Hip,0.0402,0.0059,0.99,0.26,-1.56,1.78,-19.96,26.89,-31.79,0.913297,-0.006958,-0.041414,-0.405103,0.0,0.0,0.0,0,0
2026-06-16 15:37:56.805,290022,R_Hip,0.0471,0.0098,0.9929,0.25,-1.57,1.77,-19.05,25.98,-32.64,0.913297,-0.006958,-0.041414,-0.405103,0.0,0.0,0.0,0,0
2026-06-16 15:37:56.811,290111,L_Shank,-0.0006,-0.0273,0.9892,1.75,-1.19,-0.2,-5.71,14.82,-23.61,0.990661,-0.004944,-0.025605,0.133671,0.0,0.0,0.0,0,0
2026-06-16 15:37:56.813,290131,L_Shank,0.0013,-0.0185,0.981,1.75,-1.18,-0.2,0.0,0.0,0.0,0.990661,-0.004944,-0.025605,0.133671,0.0,0.0,0.0,0,0
2026-06-16 15:37:56.815,290151,L_Shank,-0.004,-0.0253,0.9959,1.75,-1.18,-0.2,-5.37,14.49,-23.61,0.990661,-0.004975,-0.025605,0.133671,0.0,0.0,0.0,0,0
2026-06-16 15:37:56.816,290171,L_Shank,-0.0015,-0.0268,0.9854,1.76,-1.17,-0.2,-4.32,14.49,-23.62,0.990661,-0.004975,-0.025605,0.133671,0.0,0.0,0.0,0,0
2026-06-16 15:37:56.818,290116,L_Ankle,0.1237,0.0168,0.9899,5.4,-0.82,-10.29,-95.25,-32.12,-11.09,0.916227,0.047975,-0.063478,0.392621,0.0,0.0,0.0,0,0
2026-06-16 15:37:56.820,290136,L_Ankle,0.1261,0.0158,0.9813,5.41,-0.83,-10.29,-93.83,-32.84,-10.04,0.916227,0.048006,-0.063478,0.392621,0.0,0.0,0.0,0,0
2026-06-16 15:37:56.822,290156,L_Ankle,0.1325,0.0212,0.9808,5.4,-0.82,-10.3,0.0,0.0,0.0,0.916227,0.048006,-0.063509,0.392621,0.0,0.0,0.0,0,0
2026-06-16 15:37:56.824,290117,L_Ankle,0.1276,0.0251,0.9942,5.4,-0.82,-10.29,-93.5,-32.85,-11.4,0.916227,0.047975,-0.063509,0.392621,0.0,0.0,0.0,0,0
2026-06-16 15:37:56.826,290126,L_Hip,0.1225,-0.0739,0.9808,-4.13,4.55,2.97,-19.69,18.62,-23.61,0.98706,-0.036134,-0.067232,-0.140843,0.0,0.0,0.0,0,0
2026-06-16 15:37:56.829,290146,L_Hip,0.122,-0.073,0.9977,-4.14,4.54,2.97,0.0,0.0,0.0,0.98706,-0.036103,-0.067232,-0.140843,0.0,0.0,0.0,0,0
2026-06-16 15:37:56.832,290166,L_Hip,0.12,-0.0636,1.0059,-4.14,4.55,2.98,-18.82,18.8,-24.94,0.98706,-0.036134,-0.067232,-0.140843,0.0,0.0,0.0,0,0
2026-06-16 15:37:56.833,289994,R_Ankle,0.0155,-0.0072,1.0067,0.77,-1.72,-0.49,-25.4,29.95,-28.92,0.243568,0.091006,0.015442,0.965453,0.0,0.0,0.0,0,0
2026-06-16 15:37:56.835,290127,L_Hip,0.1279,-0.0681,0.9798,-4.15,4.54,2.97,-18.51,18.48,-24.07,0.98706,-0.036134,-0.067232,-0.140843,0.0,0.0,0.0,0,0
2026-06-16 15:37:56.835,290014,R_Ankle,0.0155,-0.0116,1.0163,0.77,-1.7,-0.5,0.0,0.0,0.0,0.243568,0.091006,0.015442,0.965453,0.0,0.0,0.0,0,0
2026-06-16 15:37:56.837,290034,R_Ankle,0.0101,-0.0156,1.0163,0.76,-1.7,-0.5,-25.56,30.41,-27.54,0.243568,0.090976,0.015473,0.965453,0.0,0.0,0.0,0,0
2026-06-16 15:37:56.840,290054,R_Ankle,0.0165,-0.0067,0.9976,0.76,-1.72,-0.49,-25.91,30.1,-28.46,0.243568,0.090945,0.015442,0.965453,0.0,0.0,0.0,0,0
2026-06-16 15:37:56.849,290149,L_Hip,0.1279,-0.0695,0.9895,-4.13,4.54,2.96,-18.86,17.51,-24.35,0.98706,-0.036134,-0.067232,-0.140843,0.0,0.0,0.0,0,0
2026-06-16 15:37:56.850,290012,R_Hip,0.0451,0.0049,0.9799,0.25,-1.58,1.77,-20.88,25.98,-33.33,0.913297,-0.006958,-0.041383,-0.405103,0.0,0.0,0.0,0,0
2026-06-16 15:37:56.852,290169,L_Hip,0.1254,-0.0641,0.9841,-4.14,4.54,2.96,0.0,0.0,0.0,0.98706,-0.036134,-0.067232,-0.140843,0.0,0.0,0.0,0,0
2026-06-16 15:37:56.852,290032,R_Hip,0.0387,0.0045,0.9905,0.25,-1.56,1.77,0.0,0.0,0.0,0.913297,-0.006958,-0.041383,-0.405072,0.0,0.0,0.0,0,0
2026-06-16 15:37:56.854,290189,L_Hip,0.1166,-0.0759,0.9895,-4.13,4.56,2.96,-18.51,18.16,-24.36,0.98706,-0.036134,-0.067263,-0.140843,0.0,0.0,0.0,0,0
2026-06-16 15:37:56.854,290052,R_Hip,0.0441,0.0049,0.989,0.25,-1.56,1.76,-19.23,27.62,-31.45,0.913297,-0.006958,-0.041383,-0.405103,0.0,0.0,0.0,0,0
2026-06-16 15:37:56.857,290209,L_Hip,0.1097,-0.0676,0.9977,-4.15,4.54,2.98,-18.36,16.71,-24.79,0.98706,-0.036134,-0.067232,-0.140843,0.0,0.0,0.0,0,0
2026-06-16 15:37:56.857,290072,R_Hip,0.0565,0.001,0.9909,0.26,-1.57,1.78,-18.51,27.26,-34.19,0.913297,-0.006989,-0.041383,-0.405103,0.0,0.0,0.0,0,0
2026-06-16 15:37:56.872,290035,R_Shank,0.0458,3.1396,1.009,-0.09,-1.45,-8.44,-16.3,26.94,-20.92,0.930113,0.03534,-0.021577,0.364849,0.0,0.0,0.0,0,0
2026-06-16 15:37:56.875,290055,R_Shank,0.0429,1.3392,1.022,-0.08,-1.48,-8.41,0.0,0.0,0.0,0.930113,0.03531,-0.021546,0.364849,0.0,0.0,0.0,0,0
2026-06-16 15:37:56.876,290075,R_Shank,0.0473,-0.7136,1.0119,-0.09,-1.46,-8.42,-16.26,25.61,-21.84,0.930113,0.03531,-0.021546,0.364849,0.0,0.0,0.0,0,0
2026-06-16 15:37:56.878,290095,R_Shank,0.0419,0.698,0.9994,-0.08,-1.45,-8.41,0.0,0.0,0.0,0.930113,0.03531,-0.021546,0.364849,0.0,0.0,0.0,0,0
2026-06-16 15:37:56.880,290037,R_Hip,0.0496,0.0035,0.9962,0.27,-1.56,1.77,-19.42,27.08,-32.65,0.913297,-0.007019,-0.041383,-0.405103,0.0,0.0,0.0,0,0
2026-06-16 15:37:56.883,290057,R_Hip,0.051,0.0015,0.9972,0.26,-1.55,1.78,-20.51,25.98,-33.33,0.913297,-0.006989,-0.041414,-0.405072,0.0,0.0,0.0,0,0
2026-06-16 15:37:56.884,290184,L_Ankle,0.1251,0.0227,0.9952,5.41,-0.81,-10.29,-93.48,-31.79,-9.35,0.916227,0.047975,-0.063509,0.392621,0.0,0.0,0.0,0,0
2026-06-16 15:37:56.886,290077,R_Hip,0.0397,0.0069,0.9837,0.26,-1.55,1.77,-20.33,27.26,-32.82,0.913297,-0.006989,-0.041414,-0.405072,0.0,0.0,0.0,0,0
2026-06-16 15:37:56.888,290204,L_Ankle,0.1261,0.0129,0.9794,5.41,-0.81,-10.29,-93.67,-31.96,-10.55,0.916227,0.047975,-0.063478,0.392621,0.0,0.0,0.0,0,0
2026-06-16 15:37:56.889,290097,R_Hip,0.0451,0.0049,0.9837,0.26,-1.58,1.76,-19.96,27.99,-32.48,0.913297,-0.007019,-0.041414,-0.405072,0.0,0.0,0.0,0,0
2026-06-16 15:37:56.890,290224,L_Ankle,0.1261,0.0139,1.0029,5.41,-0.82,-10.29,-94.88,-32.83,-10.06,0.916227,0.047975,-0.063478,0.392621,0.0,0.0,0.0,0,0
2026-06-16 15:37:56.892,290039,R_Ankle,0.0101,-0.0126,1.0019,0.75,-1.7,-0.48,-24.87,31.7,-28.47,0.243568,0.090976,0.015473,0.965453,0.0,0.0,0.0,0,0
2026-06-16 15:37:56.893,290244,L_Ankle,0.129,0.009,0.9827,5.42,-0.82,-10.3,0.0,0.0,0.0,0.916227,0.047945,-0.063509,0.392621,0.0,0.0,0.0,0,0
2026-06-16 15:37:56.894,290040,R_Ankle,0.0199,-0.0156,1.0129,0.77,-1.7,-0.5,-25.9,30.73,-27.85,0.243568,0.090976,0.015473,0.965453,0.0,0.0,0.0,0,0
2026-06-16 15:37:56.895,290186,L_Shank,-0.0006,-0.0253,0.9916,1.76,-1.16,-0.19,-5.71,14.5,-24.54,0.990661,-0.005005,-0.025605,0.133671,0.0,0.0,0.0,0,0
2026-06-16 15:37:56.896,290060,R_Ankle,0.0135,-0.02,0.9928,0.75,-1.74,-0.48,0.0,0.0,0.0,0.243568,0.090976,0.015473,0.965453,0.0,0.0,0.0,0,0
2026-06-16 15:37:56.897,290206,L_Shank,0.0072,-0.0312,0.9921,1.77,-1.17,-0.19,0.0,0.0,0.0,0.990661,-0.005005,-0.025605,0.133671,0.0,0.0,0.0,0,0
2026-06-16 15:37:56.898,290080,R_Ankle,0.0106,-0.0176,1.0105,0.76,-1.7,-0.49,-27.29,29.47,-29.7,0.243568,0.090945,0.015473,0.965484,0.0,0.0,0.0,0,0
2026-06-16 15:37:56.899,290226,L_Shank,0.0047,-0.02,0.9954,1.77,-1.17,-0.2,-6.75,14.16,-24.53,0.990661,-0.005005,-0.025605,0.133671,0.0,0.0,0.0,0,0
2026-06-16 15:37:56.901,290246,L_Shank,0.0033,-0.0185,0.9863,1.76,-1.17,-0.19,-5.0,15.18,-24.87,0.990661,-0.005005,-0.025605,0.133671,0.0,0.0,0.0,0,0
2026-06-16 15:37:56.904,290194,L_Hip,0.1239,-0.0749,0.9972,-4.13,4.56,2.97,-19.19,17.5,-24.93,0.98706,-0.036134,-0.067263,-0.140843,0.0,0.0,0.0,0,0
2026-06-16 15:37:56.906,290214,L_Hip,0.1308,-0.0651,0.9929,-4.13,4.54,2.96,0.0,0.0,0.0,0.98706,-0.036134,-0.067232,-0.140843,0.0,0.0,0.0,0,0
2026-06-16 15:37:56.907,290234,L_Hip,0.1205,-0.0641,0.9933,-4.14,4.54,2.97,-17.64,18.66,-25.39,0.98706,-0.036134,-0.067232,-0.140843,0.0,0.0,0.0,0,0
2026-06-16 15:37:56.909,290254,L_Hip,0.1225,-0.0622,0.9982,-4.15,4.54,2.97,-17.04,16.73,-23.36,0.98706,-0.036134,-0.067232,-0.140843,0.0,0.0,0.0,0,0
2026-06-16 15:37:56.912,290206,L_Ankle,0.1305,0.0129,0.9899,5.41,-0.82,-10.29,-95.76,-32.99,-10.93,0.916227,0.047975,-0.063509,0.392621,0.0,0.0,0.0,0,0
2026-06-16 15:37:56.913,290226,L_Ankle,0.1217,0.0227,1.0024,5.41,-0.81,-10.29,-93.81,-33.91,-10.05,0.916227,0.047975,-0.063509,0.392621,0.0,0.0,0.0,0,0
2026-06-16 15:37:56.915,290207,L_Ankle,0.1207,0.0163,0.9866,5.42,-0.81,-10.3,-94.53,-33.19,-10.74,0.916227,0.047975,-0.063478,0.392621,0.0,0.0,0.0,0,0
2026-06-16 15:37:56.917,290227,L_Ankle,0.133,0.0212,0.9923,5.43,-0.83,-10.3,0.0,0.0,0.0,0.916227,0.048006,-0.063478,0.392621,0.0,0.0,0.0,0,0
2026-06-16 15:37:56.919,290211,L_Shank,0.0028,-0.0195,0.983,1.76,-1.17,-0.2,-3.79,13.64,-24.08,0.990661,-0.005036,-0.025605,0.133671,0.0,0.0,0.0,0,0
2026-06-16 15:37:56.921,290231,L_Shank,0.0086,-0.0204,0.9878,1.76,-1.17,-0.2,0.0,0.0,0.0,0.990661,-0.005036,-0.025605,0.133671,0.0,0.0,0.0,0,0
2026-06-16 15:37:56.923,290251,L_Shank,0.0047,-0.0204,0.9849,1.75,-1.18,-0.21,-4.83,14.67,-24.71,0.990661,-0.005036,-0.025605,0.133671,0.0,0.0,0.0,0,0
2026-06-16 15:37:56.924,290085,R_Ankle,0.014,-0.0131,1.0053,0.76,-1.73,-0.48,-25.05,30.9,-28.62,0.243568,0.090945,0.015473,0.965453,0.0,0.0,0.0,0,0
2026-06-16 15:37:56.926,290105,R_Ankle,0.0165,-0.0081,1.0081,0.75,-1.71,-0.48,0.0,0.0,0.0,0.243568,0.090945,0.015473,0.965453,0.0,0.0,0.0,0,0
2026-06-16 15:37:56.926,290271,L_Shank,0.0008,-0.0263,0.983,1.76,-1.18,-0.19,-5.0,15.53,-25.5,0.990661,-0.005036,-0.025605,0.133671,0.0,0.0,0.0,0,0
2026-06-16 15:37:56.928,290125,R_Ankle,0.0155,-0.0166,1.0062,0.76,-1.71,-0.48,-24.72,29.63,-27.98,0.243568,0.090945,0.015473,0.965484,0.0,0.0,0.0,0,0
2026-06-16 15:37:56.930,290145,R_Ankle,0.0165,-0.0076,0.9871,0.77,-1.71,-0.48,-25.56,30.1,-27.84,0.243538,0.090945,0.015473,0.965484,0.0,0.0,0.0,0,0
2026-06-16 15:37:56.930,290216,L_Hip,0.119,-0.0695,0.9841,-4.14,4.54,2.98,-18.86,18.15,-23.48,0.98706,-0.036134,-0.067232,-0.140843,0.0,0.0,0.0,0,0
2026-06-16 15:37:56.932,290087,R_Hip,0.0505,0.0167,0.9929,0.27,-1.58,1.78,-19.42,27.44,-32.31,0.913297,-0.007019,-0.041414,-0.405072,0.0,0.0,0.0,0,0
2026-06-16 15:37:56.933,290236,L_Hip,0.1195,-0.0641,0.9909,-4.15,4.54,2.97,-18.33,18.65,-24.51,0.98706,-0.036134,-0.067232,-0.140843,0.0,0.0,0.0,0,0
2026-06-16 15:37:56.935,290107,R_Hip,0.0407,0.001,0.9919,0.27,-1.57,1.77,-19.96,26.16,-33.16,0.913297,-0.006989,-0.041383,-0.405072,0.0,0.0,0.0,0,0
2026-06-16 15:37:56.936,290256,L_Hip,0.122,-0.0685,0.99,-4.15,4.54,2.96,0.0,0.0,0.0,0.98706,-0.036103,-0.067232,-0.140843,0.0,0.0,0.0,0,0
2026-06-16 15:37:56.937,290127,R_Hip,0.0456,0.0098,0.9808,0.26,-1.58,1.79,-18.14,27.26,-32.82,0.913297,-0.006989,-0.041414,-0.405072,0.0,0.0,0.0,0,0
2026-06-16 15:37:56.938,290217,L_Hip,0.1161,-0.071,0.9778,-4.14,4.54,2.97,-19.34,18.31,-25.07,0.98706,-0.036103,-0.067232,-0.140843,0.0,0.0,0.0,0,0
2026-06-16 15:37:56.940,290147,R_Hip,0.0367,0.004,0.9929,0.25,-1.56,1.77,-19.42,25.98,-32.64,0.913297,-0.006989,-0.041414,-0.405072,0.0,0.0,0.0,0,0
2026-06-16 15:37:56.941,290236,L_Shank,0.0028,-0.0312,0.9916,1.76,-1.16,-0.21,-5.7,14.51,-25.17,0.990661,-0.005066,-0.025605,0.133671,0.0,0.0,0.0,0,0
2026-06-16 15:37:56.943,290102,R_Shank,0.0429,1.3392,1.0052,-0.09,-1.48,-8.41,-16.26,24.3,-19.74,0.930143,0.03531,-0.021546,0.364849,0.0,0.0,0.0,0,0
2026-06-16 15:37:56.943,290256,L_Shank,0.0062,-0.018,0.983,1.77,-1.16,-0.21,0.0,0.0,0.0,0.990661,-0.005066,-0.025575,0.133671,0.0,0.0,0.0,0,0
2026-06-16 15:37:56.945,290276,L_Shank,0.0067,-0.02,0.9906,1.76,-1.16,-0.21,-4.66,15.52,-24.57,0.990661,-0.005066,-0.025605,0.133671,0.0,0.0,0.0,0,0
2026-06-16 15:37:56.945,290122,R_Shank,0.0424,-0.7136,1.0037,-0.1,-1.47,-8.41,-17.44,26.12,-22.58,0.930143,0.03531,-0.021516,0.364818,0.0,0.0,0.0,0,0
2026-06-16 15:37:56.948,290142,R_Shank,0.0355,-0.0724,1.0268,-0.08,-1.47,-8.41,0.0,0.0,0.0,0.930143,0.03531,-0.021546,0.364849,0.0,0.0,0.0,0,0
2026-06-16 15:37:56.948,290296,L_Shank,0.0042,-0.0283,0.9935,1.77,-1.18,-0.2,-3.97,13.81,-23.93,0.990661,-0.005066,-0.025605,0.133671,0.0,0.0,0.0,0,0
2026-06-16 15:37:56.950,290162,R_Shank,0.0355,-0.3316,1.0119,-0.09,-1.47,-8.43,-17.09,25.13,-21.68,0.930143,0.03531,-0.021516,0.364818,0.0,0.0,0.0,0,0
2026-06-16 15:37:56.952,290107,R_Ankle,0.015,-0.0151,1.001,0.76,-1.71,-0.48,-24.89,29.79,-28.14,0.243538,0.090945,0.015473,0.965484,0.0,0.0,0.0,0,0
2026-06-16 15:37:56.953,290127,R_Ankle,0.0233,-0.0076,1.0024,0.77,-1.73,-0.48,0.0,0.0,0.0,0.243538,0.090945,0.015473,0.965484,0.0,0.0,0.0,0,0
2026-06-16 15:37:56.955,290147,R_Ankle,0.0238,-0.0126,1.0053,0.77,-1.72,-0.49,-25.56,30.73,-27.85,0.243538,0.090976,0.015503,0.965484,0.0,0.0,0.0,0,0
2026-06-16 15:37:56.957,290167,R_Ankle,0.0116,-0.0042,1.0091,0.77,-1.7,-0.48,-26.08,29.3,-28.3,0.243538,0.090945,0.015503,0.965484,0.0,0.0,0.0,0,0
2026-06-16 15:37:56.959,290112,R_Hip,0.0362,0.0113,0.9861,0.26,-1.56,1.78,-18.87,28.35,-32.48,0.913297,-0.006989,-0.041383,-0.405072,0.0,0.0,0.0,0,0
2026-06-16 15:37:56.960,290132,R_Hip,0.0407,0.0079,0.9905,0.25,-1.58,1.78,-21.42,25.44,-33.84,0.913297,-0.006958,-0.041383,-0.405072,0.0,0.0,0.0,0,0
2026-06-16 15:37:56.962,290152,R_Hip,0.0535,0.0035,0.9929,0.26,-1.56,1.77,-19.05,28.54,-31.97,0.913297,-0.006958,-0.041383,-0.405072,0.0,0.0,0.0,0,0
2026-06-16 15:37:56.965,290172,R_Hip,0.0466,0.0103,0.9789,0.26,-1.57,1.78,-21.42,26.89,-32.82,0.913297,-0.006958,-0.041383,-0.405072,0.0,0.0,0.0,0,0
2026-06-16 15:37:56.967,290124,R_Shank,0.0389,2.3688,1.0071,-0.11,-1.46,-8.41,-16.91,23.65,-20.64,0.930143,0.03531,-0.021516,0.364849,0.0,0.0,0.0,0,0
2026-06-16 15:37:56.969,290144,R_Shank,0.0355,2.2392,1.0114,-0.09,-1.45,-8.42,-16.59,24.96,-20.94,0.930143,0.035279,-0.021546,0.364849,0.0,0.0,0.0,0,0
2026-06-16 15:37:56.971,290164,R_Shank,0.036,-0.9728,1.0215,-0.09,-1.45,-8.41,0.0,0.0,0.0,0.930143,0.035279,-0.021516,0.364818,0.0,0.0,0.0,0,0
2026-06-16 15:37:56.974,290184,R_Shank,0.0424,1.5984,0.9941,-0.09,-1.48,-8.41,-14.91,25.26,-21.25,0.930143,0.035279,-0.021516,0.364849,0.0,0.0,0.0,0,0
2026-06-16 15:37:56.974,290274,L_Ankle,0.1349,0.0119,1.0168,5.41,-0.81,-10.29,-94.21,-31.78,-11.07,0.916227,0.047975,-0.063478,0.392651,0.0,0.0,0.0,0,0
2026-06-16 15:37:56.976,290129,R_Ankle,0.0253,-0.0176,1.0,0.76,-1.72,-0.51,-24.04,30.6,-28.91,0.243538,0.090945,0.015503,0.965484,0.0,0.0,0.0,0,0
2026-06-16 15:37:56.977,290294,L_Ankle,0.1281,0.0202,0.9894,5.4,-0.83,-10.29,-94.2,-32.13,-10.73,0.916227,0.047975,-0.063478,0.392651,0.0,0.0,0.0,0,0
2026-06-16 15:37:56.979,290149,R_Ankle,0.0219,-0.0116,0.9957,0.77,-1.7,-0.5,0.0,0.0,0.0,0.243538,0.090976,0.015503,0.965484,0.0,0.0,0.0,0,0
2026-06-16 15:37:56.980,290314,L_Ankle,0.1364,0.0212,0.9904,5.41,-0.82,-10.29,-93.66,-33.03,-10.89,0.916196,0.048006,-0.063509,0.392651,0.0,0.0,0.0,0,0
2026-06-16 15:37:56.981,290169,R_Ankle,0.0263,-0.0032,1.001,0.76,-1.71,-0.49,-25.89,31.04,-27.55,0.243538,0.090976,0.015503,0.965484,0.0,0.0,0.0,0,0
2026-06-16 15:37:56.983,290334,L_Ankle,0.1354,0.0144,0.9904,5.42,-0.82,-10.29,0.0,0.0,0.0,0.916196,0.048006,-0.063509,0.392651,0.0,0.0,0.0,0,0
2026-06-16 15:37:56.984,290189,R_Ankle,0.0111,-0.022,1.0144,0.77,-1.71,-0.48,-25.9,30.73,-27.85,0.243538,0.091006,0.015503,0.965453,0.0,0.0,0.0,0,0
2026-06-16 15:37:56.985,290284,L_Hip,0.1288,-0.0676,0.9929,-4.14,4.55,2.97,-16.64,18.36,-25.11,0.98706,-0.036103,-0.067232,-0.140843,0.0,0.0,0.0,0,0
2026-06-16 15:37:56.986,290147,R_Shank,0.0394,1.5984,1.0047,-0.09,-1.45,-8.42,-17.3,25.97,-20.02,0.930143,0.035249,-0.021516,0.364849,0.0,0.0,0.0,0,0
2026-06-16 15:37:56.988,290304,L_Hip,0.1318,-0.0646,0.9948,-4.14,4.54,2.97,-20.54,17.8,-24.62,0.98706,-0.036103,-0.067263,-0.140812,0.0,0.0,0.0,0,0
2026-06-16 15:37:56.989,290167,R_Shank,0.0463,-1.8728,1.0066,-0.11,-1.48,-8.41,-16.09,26.1,-22.29,0.930113,0.035279,-0.021516,0.364849,0.0,0.0,0.0,0,0
2026-06-16 15:37:56.991,290324,L_Hip,0.1288,-0.0676,1.0021,-4.14,4.57,2.98,0.0,0.0,0.0,0.98706,-0.036103,-0.067232,-0.140812,0.0,0.0,0.0,0,0
2026-06-16 15:37:56.991,290187,R_Shank,0.0399,-2.514,1.0128,-0.09,-1.47,-8.41,0.0,0.0,0.0,0.930113,0.035279,-0.021546,0.364849,0.0,0.0,0.0,0,0
2026-06-16 15:37:56.993,290344,L_Hip,0.1254,-0.0612,0.9885,-4.13,4.54,2.96,-17.61,19.63,-26.26,0.98706,-0.036073,-0.067263,-0.140843,0.0,0.0,0.0,0,0
2026-06-16 15:37:56.994,290207,R_Shank,0.0389,0.698,1.0152,-0.1,-1.46,-8.42,-16.63,26.62,-20.62,0.930113,0.035279,-0.021546,0.364849,0.0,0.0,0.0,0,0
2026-06-16 15:37:56.996,290286,L_Shank,0.0081,-0.0278,0.9806,1.74,-1.19,-0.19,-5.53,15.01,-24.71,0.990661,-0.005066,-0.025605,0.133671,0.0,0.0,0.0,0,0
2026-06-16 15:37:56.997,290152,R_Ankle,0.0199,-0.0166,1.0048,0.77,-1.7,-0.51,-24.53,30.74,-27.53,0.243538,0.090976,0.015473,0.965484,0.0,0.0,0.0,0,0
2026-06-16 15:37:56.998,290306,L_Shank,0.0023,-0.0219,0.9906,1.75,-1.17,-0.19,-3.97,15.84,-23.33,0.990661,-0.005066,-0.025605,0.133671,0.0,0.0,0.0,0,0
2026-06-16 15:37:56.999,290172,R_Ankle,0.0194,-0.0101,0.9899,0.77,-1.71,-0.49,0.0,0.0,0.0,0.243538,0.090976,0.015473,0.965484,0.0,0.0,0.0,0,0
2026-06-16 15:37:57.001,290326,L_Shank,0.0067,-0.02,0.9777,1.75,-1.16,-0.21,0.0,0.0,0.0,0.990661,-0.005066,-0.025605,0.133671,0.0,0.0,0.0,0,0
2026-06-16 15:37:57.001,290192,R_Ankle,0.0179,-0.0156,1.0024,0.77,-1.72,-0.49,-24.73,29.97,-29.84,0.243538,0.090976,0.015503,0.965484,0.0,0.0,0.0,0,0
2026-06-16 15:37:57.004,290346,L_Shank,-0.0015,-0.0229,0.9801,1.77,-1.16,-0.2,-4.49,13.98,-24.08,0.990661,-0.005097,-0.025605,0.133671,0.0,0.0,0.0,0,0
2026-06-16 15:37:57.004,290212,R_Ankle,0.0155,-0.0205,1.0014,0.77,-1.71,-0.5,-25.04,30.25,-27.07,0.243538,0.090976,0.015503,0.965484,0.0,0.0,0.0,0,0
2026-06-16 15:37:57.006,290296,L_Ankle,0.1276,0.0075,0.9986,5.4,-0.82,-10.3,-93.85,-32.85,-11.41,0.916227,0.048006,-0.063509,0.392651,0.0,0.0,0.0,0,0
2026-06-16 15:37:57.007,290162,R_Hip,0.0417,0.0093,0.9871,0.25,-1.58,1.78,-19.24,27.26,-33.5,0.913297,-0.006958,-0.041414,-0.405072,0.0,0.0,0.0,0,0
2026-06-16 15:37:57.010,290182,R_Hip,0.055,0.0089,0.9876,0.26,-1.57,1.77,-19.96,26.89,-32.13,0.913297,-0.006958,-0.041383,-0.405072,0.0,0.0,0.0,0,0
2026-06-16 15:37:57.011,290297,L_Ankle,0.1256,0.0227,0.9904,5.4,-0.83,-10.31,-93.99,-32.66,-9.54,0.916196,0.048006,-0.063509,0.392651,0.0,0.0,0.0,0,0
2026-06-16 15:37:57.013,290202,R_Hip,0.0431,0.0108,0.9799,0.26,-1.58,1.77,-19.96,26.89,-32.48,0.913297,-0.006958,-0.041383,-0.405072,0.0,0.0,0.0,0,0
2026-06-16 15:37:57.014,290317,L_Ankle,0.1349,0.008,0.9971,5.41,-0.82,-10.29,-93.99,-33.37,-9.88,0.916196,0.048036,-0.06354,0.392651,0.0,0.0,0.0,0,0
2026-06-16 15:37:57.016,290222,R_Hip,0.0431,0.0054,0.9881,0.25,-1.57,1.77,-19.96,27.62,-32.82,0.913297,-0.006958,-0.041414,-0.405072,0.0,0.0,0.0,0,0
2026-06-16 15:37:57.016,290337,L_Ankle,0.132,0.0144,0.9698,5.41,-0.81,-10.29,0.0,0.0,0.0,0.916196,0.048036,-0.06354,0.392682,0.0,0.0,0.0,0,0
2026-06-16 15:37:57.018,290306,L_Hip,0.1244,-0.07,0.9861,-4.15,4.55,2.96,-18.66,18.96,-24.79,0.98706,-0.036073,-0.067263,-0.140812,0.0,0.0,0.0,0,0
2026-06-16 15:37:57.021,290326,L_Hip,0.1254,-0.0769,0.9841,-4.14,4.54,2.97,-19.17,17.83,-25.51,0.98706,-0.036073,-0.067293,-0.140843,0.0,0.0,0.0,0,0
2026-06-16 15:37:57.023,290346,L_Hip,0.1239,-0.0622,0.9929,-4.15,4.54,2.98,0.0,0.0,0.0,0.98706,-0.036042,-0.067324,-0.140843,0.0,0.0,0.0,0,0
2026-06-16 15:37:57.025,290187,R_Hip,0.0481,-0.0042,0.9953,0.27,-1.57,1.76,-19.42,27.44,-32.99,0.913297,-0.006958,-0.041414,-0.405072,0.0,0.0,0.0,0,0
2026-06-16 15:37:57.026,290307,L_Hip,0.1279,-0.0666,0.9856,-4.14,4.54,2.98,-19.87,17.17,-24.91,0.98706,-0.036042,-0.067324,-0.140843,0.0,0.0,0.0,0,0
2026-06-16 15:37:57.027,290207,R_Hip,0.0491,0.0079,0.9982,0.27,-1.58,1.78,-19.24,27.63,-33.16,0.913297,-0.006958,-0.041414,-0.405072,0.0,0.0,0.0,0,0
2026-06-16 15:37:57.028,290311,L_Shank,0.0052,-0.018,1.0065,1.77,-1.17,-0.19,-5.87,15.35,-25.02,0.990661,-0.005097,-0.025605,0.133641,0.0,0.0,0.0,0,0
2026-06-16 15:37:57.030,290227,R_Hip,0.0387,0.0049,0.9871,0.26,-1.57,1.79,-21.06,26.89,-32.14,0.913297,-0.006989,-0.041414,-0.405072,0.0,0.0,0.0,0,0
2026-06-16 15:37:57.031,290331,L_Shank,0.0033,-0.018,0.9791,1.77,-1.18,-0.2,-3.28,14.48,-23.01,0.990661,-0.005066,-0.025605,0.133641,0.0,0.0,0.0,0,0
2026-06-16 15:37:57.032,290247,R_Hip,0.0402,0.0089,0.9905,0.27,-1.58,1.76,-19.23,27.62,-32.14,0.913297,-0.006989,-0.041414,-0.405072,0.0,0.0,0.0,0,0
2026-06-16 15:37:57.033,290351,L_Shank,0.0008,-0.0146,0.983,1.76,-1.16,-0.21,0.0,0.0,0.0,0.990661,-0.005097,-0.025636,0.133671,0.0,0.0,0.0,0,0
2026-06-16 15:37:57.035,290192,R_Shank,0.0448,-1.6136,1.0205,-0.09,-1.47,-8.41,-16.41,24.13,-20.79,0.930113,0.035279,-0.021546,0.364849,0.0,0.0,0.0,0,0
2026-06-16 15:37:57.035,290371,L_Shank,0.0067,-0.0253,0.9863,1.77,-1.18,-0.19,-3.45,13.97,-23.16,0.990661,-0.005097,-0.025636,0.133671,0.0,0.0,0.0,0,0
2026-06-16 15:37:57.038,290319,L_Ankle,0.1403,0.0134,0.9904,5.41,-0.81,-10.29,-94.18,-32.84,-10.39,0.916196,0.048036,-0.06354,0.392682,0.0,0.0,0.0,0,0
2026-06-16 15:37:57.038,290212,R_Shank,0.0404,-0.8432,1.0215,-0.09,-1.48,-8.41,-15.75,24.78,-20.8,0.930113,0.035279,-0.021516,0.364849,0.0,0.0,0.0,0,0
2026-06-16 15:37:57.040,290232,R_Shank,0.0419,-0.8432,1.0047,-0.09,-1.48,-8.41,0.0,0.0,0.0,0.930113,0.035249,-0.021546,0.364849,0.0,0.0,0.0,0,0
2026-06-16 15:37:57.041,290339,L_Ankle,0.1276,0.0192,0.9842,5.41,-0.82,-10.29,-94.88,-33.18,-10.4,0.916196,0.048036,-0.06354,0.392682,0.0,0.0,0.0,0,0
2026-06-16 15:37:57.044,290252,R_Shank,0.0409,2.1096,1.0071,-0.09,-1.48,-8.41,-16.58,24.95,-21.84,0.930113,0.035249,-0.021546,0.364849,0.0,0.0,0.0,0,0
2026-06-16 15:37:57.044,290359,L_Ankle,0.1251,0.0163,0.9846,5.4,-0.82,-10.3,-95.23,-32.82,-10.07,0.916196,0.048067,-0.06354,0.392682,0.0,0.0,0.0,0,0
2026-06-16 15:37:57.046,290196,R_Ankle,0.0175,-0.0121,1.0077,0.76,-1.71,-0.49,-26.25,29.77,-27.85,0.243538,0.090945,0.015473,0.965484,0.0,0.0,0.0,0,0
2026-06-16 15:37:57.047,290379,L_Ankle,0.133,0.0178,0.9904,5.41,-0.82,-10.31,-94.89,-33.54,-11.77,0.916196,0.048067,-0.06354,0.392682,0.0,0.0,0.0,0,0
2026-06-16 15:37:57.048,290216,R_Ankle,0.0194,-0.0121,1.0038,0.75,-1.71,-0.49,-25.73,30.58,-28.31,0.243538,0.090945,0.015473,0.965484,0.0,0.0,0.0,0,0
2026-06-16 15:37:57.049,290329,L_Hip,0.1274,-0.0739,0.9919,-4.13,4.55,2.98,-17.82,18.17,-24.95,0.98706,-0.036073,-0.067354,-0.140843,0.0,0.0,0.0,0,0
2026-06-16 15:37:57.051,290236,R_Ankle,0.0179,-0.0166,0.9919,0.77,-1.7,-0.5,0.0,0.0,0.0,0.243538,0.090945,0.015473,0.965484,0.0,0.0,0.0,0,0
2026-06-16 15:37:57.052,290349,L_Hip,0.1239,-0.071,0.9866,-4.14,4.54,2.97,-18.02,17.36,-24.22,0.98706,-0.036073,-0.067354,-0.140843,0.0,0.0,0.0,0,0
2026-06-16 15:37:57.053,290256,R_Ankle,0.0219,-0.0185,0.9947,0.77,-1.73,-0.49,-26.06,30.88,-27.7,0.243538,0.090976,0.015473,0.965484,0.0,0.0,0.0,0,0
2026-06-16 15:37:57.054,290369,L_Hip,0.119,-0.0705,0.9745,-4.12,4.55,2.96,0.0,0.0,0.0,0.98706,-0.036073,-0.067354,-0.140812,0.0,0.0,0.0,0,0
2026-06-16 15:37:57.056,290214,R_Shank,0.0424,0.9572,1.0143,-0.12,-1.47,-8.41,-16.93,25.29,-21.53,0.930113,0.035249,-0.021577,0.364849,0.0,0.0,0.0,0,0
2026-06-16 15:37:57.057,290389,L_Hip,0.121,-0.0651,0.9948,-4.14,4.54,2.96,-18.33,18.97,-23.93,0.98706,-0.036073,-0.067354,-0.140812,0.0,0.0,0.0,0,0
2026-06-16 15:37:57.058,290234,R_Shank,0.0497,2.628,1.0018,-0.09,-1.45,-8.41,-16.42,24.79,-21.09,0.930113,0.035249,-0.021577,0.364849,0.0,0.0,0.0,0,0
2026-06-16 15:37:57.059,290254,R_Shank,0.0384,0.0572,1.01,-0.09,-1.46,-8.41,0.0,0.0,0.0,0.930113,0.035249,-0.021607,0.364849,0.0,0.0,0.0,0,0
2026-06-16 15:37:57.061,290361,L_Shank,0.0028,-0.02,0.9892,1.75,-1.19,-0.2,-4.67,14.82,-23.0,0.990661,-0.005097,-0.025636,0.133671,0.0,0.0,0.0,0,0
2026-06-16 15:37:57.062,290274,R_Shank,0.0389,-1.8728,1.0273,-0.09,-1.47,-8.41,-16.43,25.12,-21.09,0.930113,0.035249,-0.021607,0.364849,0.0,0.0,0.0,0,0
2026-06-16 15:37:57.064,290381,L_Shank,0.0033,-0.0146,0.9815,1.75,-1.18,-0.2,-4.31,15.18,-24.57,0.990661,-0.005097,-0.025636,0.133671,0.0,0.0,0.0,0,0
2026-06-16 15:37:57.065,290219,R_Ankle,0.0184,-0.02,1.0058,0.77,-1.7,-0.5,-26.07,29.61,-27.69,0.243538,0.090976,0.015442,0.965484,0.0,0.0,0.0,0,0
2026-06-16 15:37:57.066,290401,L_Shank,0.0081,-0.0156,0.9844,1.75,-1.16,-0.19,0.0,0.0,0.0,0.990661,-0.005097,-0.025666,0.133671,0.0,0.0,0.0,0,0
2026-06-16 15:37:57.067,290239,R_Ankle,0.0081,-0.0161,0.9952,0.75,-1.72,-0.49,-25.23,29.47,-28.14,0.243538,0.090976,0.015442,0.965484,0.0,0.0,0.0,0,0
2026-06-16 15:37:57.069,290421,L_Shank,0.0018,-0.0278,0.9825,1.77,-1.18,-0.19,-5.89,14.65,-23.14,0.990661,-0.005097,-0.025636,0.133671,0.0,0.0,0.0,0,0
2026-06-16 15:37:57.069,290259,R_Ankle,0.0135,-0.0067,1.0048,0.77,-1.71,-0.5,0.0,0.0,0.0,0.243538,0.090945,0.015442,0.965484,0.0,0.0,0.0,0,0
2026-06-16 15:37:57.071,290279,R_Ankle,0.017,-0.0086,0.9943,0.77,-1.72,-0.48,-24.72,30.59,-29.23,0.243538,0.090915,0.015473,0.965484,0.0,0.0,0.0,0,0
2026-06-16 15:37:57.074,290237,R_Hip,0.0436,0.0064,0.9938,0.27,-1.56,1.77,-19.6,26.16,-32.47,0.913297,-0.006958,-0.041414,-0.405072,0.0,0.0,0.0,0,0
2026-06-16 15:37:57.076,290257,R_Hip,0.0441,0.0074,1.0025,0.27,-1.57,1.77,-19.78,27.81,-33.33,0.913297,-0.006958,-0.041414,-0.405072,0.0,0.0,0.0,0,0
2026-06-16 15:37:57.077,290277,R_Hip,0.0525,0.0118,0.9924,0.27,-1.57,1.77,-20.14,25.98,-32.65,0.913297,-0.006928,-0.041414,-0.405072,0.0,0.0,0.0,0,0
2026-06-16 15:37:57.079,290297,R_Hip,0.0427,0.0108,0.989,0.25,-1.58,1.77,-20.15,27.08,-32.99,0.913297,-0.006928,-0.041414,-0.405103,0.0,0.0,0.0,0,0
2026-06-16 15:37:57.096,290396,L_Hip,0.1254,-0.0705,0.9924,-4.15,4.55,2.97,-18.18,17.2,-24.94,0.98706,-0.036073,-0.067354,-0.140812,0.0,0.0,0.0,0,0
2026-06-16 15:37:57.098,290260,R_Shank,0.0414,3.01,1.0104,-0.09,-1.45,-8.41,-16.58,24.3,-21.24,0.930113,0.035249,-0.021607,0.364849,0.0,0.0,0.0,0,0
2026-06-16 15:37:57.099,290416,L_Hip,0.1225,-0.0651,0.9841,-4.15,4.55,2.97,-17.82,18.5,-24.95,0.98706,-0.036103,-0.067354,-0.140812,0.0,0.0,0.0,0,0
2026-06-16 15:37:57.101,290280,R_Shank,0.0458,1.728,1.0071,-0.09,-1.48,-8.41,0.0,0.0,0.0,0.930113,0.035249,-0.021607,0.364879,0.0,0.0,0.0,0,0
2026-06-16 15:37:57.101,290436,L_Hip,0.122,-0.0651,0.9938,-4.12,4.54,2.98,-18.62,19.29,-26.25,0.98706,-0.036073,-0.067324,-0.140812,0.0,0.0,0.0,0,0
2026-06-16 15:37:57.103,290300,R_Shank,0.0424,0.698,0.9946,-0.1,-1.48,-8.42,-17.62,25.97,-21.52,0.930113,0.035249,-0.021638,0.364879,0.0,0.0,0.0,0,0
2026-06-16 15:37:57.104,290456,L_Hip,0.1279,-0.07,0.9958,-4.13,4.55,2.98,0.0,0.0,0.0,0.98706,-0.036073,-0.067324,-0.140812,0.0,0.0,0.0,0,0
2026-06-16 15:37:57.106,290320,R_Shank,0.0507,-0.9728,1.0109,-0.08,-1.47,-8.41,-15.25,24.61,-20.35,0.930113,0.035279,-0.021638,0.364879,0.0,0.0,0.0,0,0
2026-06-16 15:37:57.109,290264,R_Ankle,0.0116,-0.0101,1.0029,0.77,-1.7,-0.49,-26.43,29.62,-28.62,0.243538,0.090915,0.015473,0.965484,0.0,0.0,0.0,0,0
2026-06-16 15:37:57.111,290410,L_Ankle,0.1379,0.0134,0.9846,5.4,-0.8,-10.29,-93.67,-33.03,-11.57,0.916196,0.048067,-0.063509,0.392682,0.0,0.0,0.0,0,0
2026-06-16 15:37:57.112,290284,R_Ankle,0.0121,-0.0126,0.9995,0.75,-1.72,-0.49,-25.91,30.1,-28.46,0.243538,0.090945,0.015473,0.965484,0.0,0.0,0.0,0,0
2026-06-16 15:37:57.114,290430,L_Ankle,0.1227,0.0144,0.9942,5.41,-0.8,-10.29,0.0,0.0,0.0,0.916196,0.048036,-0.063478,0.392682,0.0,0.0,0.0,0,0
2026-06-16 15:37:57.114,290304,R_Ankle,0.0184,-0.0096,1.0048,0.75,-1.72,-0.48,0.0,0.0,0.0,0.243538,0.090915,0.015473,0.965484,0.0,0.0,0.0,0,0
2026-06-16 15:37:57.116,290450,L_Ankle,0.133,0.0153,0.9856,5.41,-0.82,-10.29,-94.55,-32.13,-11.08,0.916196,0.048036,-0.063478,0.392682,0.0,0.0,0.0,0,0
2026-06-16 15:37:57.117,290324,R_Ankle,0.0243,-0.022,1.0014,0.77,-1.71,-0.5,-25.9,30.73,-27.85,0.243538,0.090915,0.015503,0.965484,0.0,0.0,0.0,0,0
2026-06-16 15:37:57.118,290470,L_Ankle,0.129,0.0085,0.9894,5.41,-0.83,-10.3,-95.63,-31.05,-11.43,0.916196,0.048036,-0.063478,0.392712,0.0,0.0,0.0,0,0
2026-06-16 15:37:57.120,290411,L_Shank,0.0062,-0.0229,0.9777,1.75,-1.18,-0.21,-6.06,15.85,-24.25,0.990661,-0.005097,-0.025636,0.133671,0.0,0.0,0.0,0,0
2026-06-16 15:37:57.122,290431,L_Shank,0.0086,-0.02,0.995,1.76,-1.17,-0.2,-4.33,16.17,-22.71,0.990661,-0.005097,-0.025636,0.133671,0.0,0.0,0.0,0,0
2026-06-16 15:37:57.125,290451,L_Shank,-0.003,-0.0146,0.9767,1.74,-1.18,-0.19,0.0,0.0,0.0,0.990661,-0.005097,-0.025666,0.133671,0.0,0.0,0.0,0,0
2026-06-16 15:37:57.125,290287,R_Hip,0.0441,0.0128,0.9924,0.25,-1.58,1.77,-19.96,26.89,-31.79,0.913297,-0.006958,-0.041414,-0.405103,0.0,0.0,0.0,0,0
2026-06-16 15:37:57.128,290471,L_Shank,0.0033,-0.0165,0.9806,1.74,-1.18,-0.21,-5.71,14.15,-23.92,0.990661,-0.005097,-0.025697,0.133641,0.0,0.0,0.0,0,0
2026-06-16 15:37:57.128,290307,R_Hip,0.0451,0.0074,0.9972,0.27,-1.56,1.78,-20.15,27.81,-32.99,0.913297,-0.006989,-0.041414,-0.405103,0.0,0.0,0.0,0,0
2026-06-16 15:37:57.130,290419,L_Hip,0.1249,-0.0779,1.0001,-4.12,4.55,2.96,-19.18,18.15,-24.64,0.98706,-0.036073,-0.067354,-0.140812,0.0,0.0,0.0,0,0
2026-06-16 15:37:57.131,290327,R_Hip,0.0412,0.0113,0.9847,0.26,-1.57,1.77,-19.42,27.81,-32.99,0.913297,-0.006989,-0.041383,-0.405072,0.0,0.0,0.0,0,0
2026-06-16 15:37:57.132,290439,L_Hip,0.1225,-0.071,1.005,-4.14,4.55,2.96,-18.53,18.47,-22.91,0.98706,-0.036073,-0.067354,-0.140812,0.0,0.0,0.0,0,0
2026-06-16 15:37:57.133,290347,R_Hip,0.0481,0.0098,0.9982,0.26,-1.57,1.78,0.0,0.0,0.0,0.913297,-0.006958,-0.041383,-0.405072,0.0,0.0,0.0,0,0
2026-06-16 15:37:57.135,290459,L_Hip,0.1195,-0.0754,0.9856,-4.15,4.56,2.96,-18.17,18.17,-24.65,0.98706,-0.036073,-0.067354,-0.140812,0.0,0.0,0.0,0,0
2026-06-16 15:37:57.137,290479,L_Hip,0.1185,-0.0617,0.9841,-4.15,4.54,2.96,-17.99,18.97,-24.51,0.98706,-0.036073,-0.067354,-0.140812,0.0,0.0,0.0,0,0
2026-06-16 15:37:57.138,290431,L_Ankle,0.1217,0.0163,0.9923,5.38,-0.82,-10.31,-95.08,-31.94,-10.91,0.916196,0.048006,-0.063478,0.392712,0.0,0.0,0.0,0,0
2026-06-16 15:37:57.141,290451,L_Ankle,0.131,0.0124,0.9952,5.41,-0.83,-10.29,-94.51,-33.54,-9.72,0.916196,0.048006,-0.063448,0.392712,0.0,0.0,0.0,0,0
2026-06-16 15:37:57.142,290304,R_Shank,0.0394,-1.8728,1.0148,-0.09,-1.45,-8.41,-16.42,25.44,-22.29,0.930113,0.035279,-0.021668,0.364879,0.0,0.0,0.0,0,0
2026-06-16 15:37:57.144,290471,L_Ankle,0.1359,0.0119,0.975,5.41,-0.81,-10.3,0.0,0.0,0.0,0.916196,0.048036,-0.063417,0.392712,0.0,0.0,0.0,0,0
2026-06-16 15:37:57.145,290324,R_Shank,0.0365,-0.8432,1.0056,-0.08,-1.45,-8.41,0.0,0.0,0.0,0.930113,0.035279,-0.021638,0.364879,0.0,0.0,0.0,0,0
2026-06-16 15:37:57.147,290491,L_Ankle,0.1217,0.0168,0.9942,5.41,-0.81,-10.29,-94.88,-33.9,-11.43,0.916196,0.048006,-0.063417,0.392712,0.0,0.0,0.0,0,0
2026-06-16 15:37:57.148,290344,R_Shank,0.0458,-0.9728,1.0196,-0.09,-1.45,-8.41,-16.77,25.13,-20.78,0.930113,0.035279,-0.021638,0.364879,0.0,0.0,0.0,0,0
2026-06-16 15:37:57.149,290436,L_Shank,0.0003,-0.017,1.0065,1.77,-1.17,-0.19,-2.92,14.49,-23.64,0.990661,-0.005097,-0.025697,0.133641,0.0,0.0,0.0,0,0
2026-06-16 15:37:57.150,290364,R_Shank,0.0463,1.728,1.0008,-0.09,-1.45,-8.42,-15.27,25.93,-20.94,0.930113,0.03531,-0.021607,0.364879,0.0,0.0,0.0,0,0
2026-06-16 15:37:57.151,290456,L_Shank,-0.0064,-0.0244,0.9782,1.76,-1.18,-0.19,-5.36,14.84,-24.55,0.990661,-0.005066,-0.025697,0.133641,0.0,0.0,0.0,0,0
2026-06-16 15:37:57.153,290309,R_Ankle,0.016,-0.0057,1.012,0.77,-1.71,-0.51,-27.26,30.4,-27.56,0.243538,0.090915,0.015473,0.965484,0.0,0.0,0.0,0,0
2026-06-16 15:37:57.154,290476,L_Shank,0.0057,-0.0229,0.9873,1.76,-1.16,-0.19,0.0,0.0,0.0,0.990661,-0.005097,-0.025697,0.133641,0.0,0.0,0.0,0,0
2026-06-16 15:37:57.155,290329,R_Ankle,0.014,-0.0185,1.0034,0.77,-1.71,-0.51,-25.06,29.95,-28.61,0.243538,0.090915,0.015503,0.965484,0.0,0.0,0.0,0,0
2026-06-16 15:37:57.156,290496,L_Shank,0.0057,-0.0156,0.9921,1.76,-1.17,-0.2,-4.84,14.31,-23.46,0.990661,-0.005097,-0.025727,0.133641,0.0,0.0,0.0,0,0
2026-06-16 15:37:57.157,290349,R_Ankle,0.0179,-0.0101,0.9981,0.77,-1.72,-0.5,0.0,0.0,0.0,0.243538,0.090915,0.015503,0.965484,0.0,0.0,0.0,0,0
2026-06-16 15:37:57.159,290369,R_Ankle,0.0194,-0.0121,0.9995,0.77,-1.72,-0.48,-26.94,29.14,-28.16,0.243538,0.090915,0.015503,0.965484,0.0,0.0,0.0,0,0
2026-06-16 15:37:57.164,290464,L_Hip,0.1215,-0.0685,0.989,-4.14,4.55,2.97,-18.85,18.15,-24.35,0.98706,-0.036103,-0.067354,-0.140812,0.0,0.0,0.0,0,0
2026-06-16 15:37:57.165,290327,R_Shank,0.0507,0.698,1.0114,-0.09,-1.45,-8.41,-16.42,25.44,-22.29,0.930113,0.03531,-0.021638,0.364879,0.0,0.0,0.0,0,0
2026-06-16 15:37:57.166,290484,L_Hip,0.118,-0.0739,0.9948,-4.13,4.56,2.97,0.0,0.0,0.0,0.98706,-0.036103,-0.067324,-0.140812,0.0,0.0,0.0,0,0
2026-06-16 15:37:57.167,290347,R_Shank,0.0399,0.698,1.0037,-0.09,-1.47,-8.41,0.0,0.0,0.0,0.930113,0.035279,-0.021638,0.364879,0.0,0.0,0.0,0,0
2026-06-16 15:37:57.168,290504,L_Hip,0.1195,-0.0739,0.9798,-4.14,4.54,2.96,-19.35,18.3,-24.49,0.98706,-0.036103,-0.067324,-0.140812,0.0,0.0,0.0,0,0
2026-06-16 15:37:57.169,290367,R_Shank,0.0399,0.9572,1.0119,-0.07,-1.45,-8.41,-15.6,26.26,-21.84,0.930113,0.035279,-0.021638,0.364879,0.0,0.0,0.0,0,0
2026-06-16 15:37:57.171,290524,L_Hip,0.1254,-0.0695,0.9851,-4.13,4.54,2.97,-18.53,17.51,-24.06,0.98706,-0.036073,-0.067354,-0.140812,0.0,0.0,0.0,0,0
2026-06-16 15:37:57.172,290387,R_Shank,0.0316,1.9804,1.0071,-0.09,-1.47,-8.42,-15.94,25.94,-20.63,0.930113,0.035279,-0.021638,0.364879,0.0,0.0,0.0,0,0
2026-06-16 15:37:57.175,290336,R_Hip,0.0353,0.0045,0.9871,0.25,-1.57,1.77,-19.05,27.44,-32.99,0.913297,-0.006958,-0.041383,-0.405072,0.0,0.0,0.0,0,0
2026-06-16 15:37:57.177,290476,L_Ankle,0.1335,0.0119,0.9808,5.41,-0.83,-10.29,-93.85,-32.49,-11.4,0.916196,0.048006,-0.063417,0.392712,0.0,0.0,0.0,0,0
2026-06-16 15:37:57.178,290356,R_Hip,0.0387,0.0054,0.9943,0.25,-1.57,1.77,-19.78,26.71,-34.02,0.913297,-0.006958,-0.041414,-0.405072,0.0,0.0,0.0,0,0
2026-06-16 15:37:57.180,290376,R_Hip,0.0431,0.0152,0.9914,0.26,-1.57,1.78,-20.33,27.26,-32.14,0.913297,-0.006958,-0.041383,-0.405072,0.0,0.0,0.0,0,0
2026-06-16 15:37:57.180,290496,L_Ankle,0.1261,0.0178,0.9923,5.41,-0.81,-10.29,-94.89,-32.12,-10.4,0.916196,0.048006,-0.063417,0.392712,0.0,0.0,0.0,0,0
2026-06-16 15:37:57.182,290396,R_Hip,0.0451,0.0098,0.99,0.27,-1.57,1.78,0.0,0.0,0.0,0.913297,-0.006928,-0.041383,-0.405072,0.0,0.0,0.0,0,0
2026-06-16 15:37:57.182,290516,L_Ankle,0.1315,0.0173,0.9938,5.41,-0.81,-10.29,0.0,0.0,0.0,0.916196,0.048036,-0.063448,0.392712,0.0,0.0,0.0,0,0
2026-06-16 15:37:57.185,290536,L_Ankle,0.1241,0.0173,0.9856,5.41,-0.81,-10.3,-94.54,-32.13,-10.05,0.916196,0.048036,-0.063448,0.392712,0.0,0.0,0.0,0,0
2026-06-16 15:37:57.187,290486,L_Shank,0.0003,-0.0185,0.9844,1.75,-1.17,-0.19,-5.19,14.66,-24.08,0.990661,-0.005097,-0.025758,0.133641,0.0,0.0,0.0,0,0
2026-06-16 15:37:57.187,290349,R_Shank,0.0404,-0.9728,1.0061,-0.09,-1.46,-8.41,-15.44,26.76,-21.39,0.930113,0.035279,-0.021607,0.364879,0.0,0.0,0.0,0,0
2026-06-16 15:37:57.190,290369,R_Shank,0.0448,2.3688,1.0225,-0.09,-1.45,-8.42,0.0,0.0,0.0,0.930113,0.035279,-0.021607,0.364879,0.0,0.0,0.0,0,0
2026-06-16 15:37:57.191,290506,L_Shank,0.0076,-0.0219,0.9964,1.75,-1.19,-0.19,-5.71,15.17,-24.24,0.990661,-0.005097,-0.025727,0.133641,0.0,0.0,0.0,0,0
2026-06-16 15:37:57.192,290526,L_Shank,0.0013,-0.0244,0.9887,1.75,-1.18,-0.2,0.0,0.0,0.0,0.990661,-0.005066,-0.025758,0.133641,0.0,0.0,0.0,0,0
2026-06-16 15:37:57.193,290389,R_Shank,0.0453,-2.6436,1.0258,-0.1,-1.45,-8.42,-16.28,26.27,-21.53,0.930113,0.03531,-0.021577,0.364879,0.0,0.0,0.0,0,0
2026-06-16 15:37:57.195,290546,L_Shank,0.0057,-0.0214,0.9892,1.75,-1.17,-0.2,-4.32,15.16,-23.01,0.990661,-0.005097,-0.025758,0.133641,0.0,0.0,0.0,0,0
2026-06-16 15:37:57.196,290409,R_Shank,0.0438,-1.8728,1.0133,-0.09,-1.45,-8.41,-16.61,25.95,-20.93,0.930113,0.035279,-0.021577,0.364879,0.0,0.0,0.0,0,0
2026-06-16 15:37:57.197,290354,R_Ankle,0.0189,-0.0106,1.0077,0.77,-1.71,-0.48,-25.74,30.58,-28.62,0.243538,0.090915,0.015473,0.965484,0.0,0.0,0.0,0,0
2026-06-16 15:37:57.199,290499,L_Ankle,0.1271,0.0192,0.9784,5.41,-0.82,-10.29,-94.87,-32.83,-9.72,0.916196,0.048006,-0.063478,0.392712,0.0,0.0,0.0,0,0
2026-06-16 15:37:57.200,290374,R_Ankle,0.0116,-0.0101,1.0024,0.77,-1.74,-0.48,-25.38,30.88,-27.08,0.243538,0.090884,0.015503,0.965484,0.0,0.0,0.0,0,0
2026-06-16 15:37:57.202,290519,L_Ankle,0.132,0.0212,0.9957,5.41,-0.83,-10.29,-94.88,-33.18,-10.4,0.916196,0.048006,-0.063448,0.392712,0.0,0.0,0.0,0,0
2026-06-16 15:37:57.203,290394,R_Ankle,0.0052,-0.0181,1.0024,0.76,-1.72,-0.48,0.0,0.0,0.0,0.243538,0.090915,0.015534,0.965484,0.0,0.0,0.0,0,0
2026-06-16 15:37:57.205,290414,R_Ankle,0.0189,-0.0136,1.0192,0.77,-1.71,-0.5,-25.57,30.1,-28.46,0.243538,0.090884,0.015534,0.965484,0.0,0.0,0.0,0,0
2026-06-16 15:37:57.205,290539,L_Ankle,0.1349,0.0163,0.9837,5.41,-0.82,-10.29,0.0,0.0,0.0,0.916196,0.048006,-0.063448,0.392712,0.0,0.0,0.0,0,0
2026-06-16 15:37:57.207,290362,R_Hip,0.0407,0.0015,0.9775,0.28,-1.57,1.78,-19.05,27.44,-32.65,0.913297,-0.006928,-0.041383,-0.405072,0.0,0.0,0.0,0,0
2026-06-16 15:37:57.208,290559,L_Ankle,0.13,0.0144,0.9918,5.41,-0.83,-10.29,-95.92,-33.17,-10.08,0.916196,0.047975,-0.063478,0.392743,0.0,0.0,0.0,0,0
2026-06-16 15:37:57.210,290382,R_Hip,0.0431,0.0074,1.003,0.26,-1.56,1.78,-19.96,27.99,-32.82,0.913297,-0.006897,-0.041414,-0.405072,0.0,0.0,0.0,0,0
2026-06-16 15:37:57.210,290509,L_Hip,0.1195,-0.0671,0.9827,-4.15,4.54,2.98,-18.86,17.51,-24.35,0.98706,-0.036103,-0.067324,-0.140812,0.0,0.0,0.0,0,0
2026-06-16 15:37:57.212,290402,R_Hip,0.0486,0.0015,0.9866,0.26,-1.57,1.77,-19.42,26.71,-32.3,0.913297,-0.006897,-0.041383,-0.405072,0.0,0.0,0.0,0,0
2026-06-16 15:37:57.212,290529,L_Hip,0.1176,-0.0641,0.9914,-4.13,4.54,2.98,0.0,0.0,0.0,0.98706,-0.036103,-0.067354,-0.140812,0.0,0.0,0.0,0,0
2026-06-16 15:37:57.214,290422,R_Hip,0.0496,0.0074,0.9967,0.26,-1.57,1.77,0.0,0.0,0.0,0.913297,-0.006928,-0.041383,-0.405072,0.0,0.0,0.0,0,0
2026-06-16 15:37:57.216,290549,L_Hip,0.119,-0.0651,0.9856,-4.15,4.56,2.96,-16.66,18.03,-24.24,0.98706,-0.036073,-0.067354,-0.140812,0.0,0.0,0.0,0,0
2026-06-16 15:37:57.218,290372,R_Shank,0.0409,3.2692,1.009,-0.09,-1.46,-8.42,-16.46,26.45,-20.78,0.930113,0.035279,-0.021577,0.364879,0.0,0.0,0.0,0,0
2026-06-16 15:37:57.220,290392,R_Shank,0.0502,-0.8432,1.021,-0.1,-1.46,-8.43,-16.27,25.29,-20.33,0.930113,0.035279,-0.021577,0.364879,0.0,0.0,0.0,0,0
2026-06-16 15:37:57.221,290569,L_Hip,0.121,-0.0739,0.9851,-4.14,4.56,2.96,-17.68,18.01,-23.93,0.98706,-0.036103,-0.067354,-0.140812,0.0,0.0,0.0,0,0
2026-06-16 15:37:57.224,290511,L_Shank,0.0018,-0.0244,0.9868,1.75,-1.18,-0.19,-6.06,14.48,-23.61,0.990661,-0.005097,-0.025727,0.133641,0.0,0.0,0.0,0,0
2026-06-16 15:37:57.224,290412,R_Shank,0.0448,2.4984,1.0076,-0.08,-1.46,-8.42,-16.78,26.12,-21.38,0.930113,0.035279,-0.021577,0.364879,0.0,0.0,0.0,0,0
2026-06-16 15:37:57.227,290432,R_Shank,0.0522,-0.8432,1.0071,-0.09,-1.47,-8.41,0.0,0.0,0.0,0.930113,0.035279,-0.021607,0.364879,0.0,0.0,0.0,0,0
2026-06-16 15:37:57.227,290531,L_Shank,-0.0006,-0.0337,0.9844,1.77,-1.16,-0.19,-6.93,15.68,-24.08,0.990661,-0.005097,-0.025727,0.133641,0.0,0.0,0.0,0,0
2026-06-16 15:37:57.231,290377,R_Ankle,0.0258,-0.0195,1.0058,0.76,-1.72,-0.5,-25.23,30.11,-29.07,0.243538,0.090884,0.015534,0.965484,0.0,0.0,0.0,0,0
2026-06-16 15:37:57.232,290551,L_Shank,0.0013,-0.0146,0.9892,1.77,-1.18,-0.19,-4.85,15.33,-23.16,0.990661,-0.005097,-0.025727,0.133641,0.0,0.0,0.0,0,0
2026-06-16 15:37:57.235,290397,R_Ankle,0.0199,-0.0176,1.0129,0.76,-1.72,-0.48,-26.24,29.77,-27.54,0.243538,0.090884,0.015503,0.965484,0.0,0.0,0.0,0,0
2026-06-16 15:37:57.236,290571,L_Shank,0.0023,-0.02,0.994,1.75,-1.18,-0.19,-4.85,15.66,-22.85,0.990661,-0.005097,-0.025758,0.133671,0.0,0.0,0.0,0,0
2026-06-16 15:37:57.238,290417,R_Ankle,0.0224,-0.0176,1.0192,0.77,-1.7,-0.49,0.0,0.0,0.0,0.243538,0.090884,0.015473,0.965484,0.0,0.0,0.0,0,0
2026-06-16 15:37:57.239,290521,L_Ankle,0.1276,0.0188,0.9851,5.41,-0.82,-10.29,-95.42,-32.65,-10.92,0.916166,0.047975,-0.063509,0.392743,0.0,0.0,0.0,0,0
2026-06-16 15:37:57.241,290437,R_Ankle,0.0194,-0.0067,0.9971,0.76,-1.71,-0.49,-25.05,30.58,-28.61,0.243507,0.090884,0.015442,0.965484,0.0,0.0,0.0,0,0
2026-06-16 15:37:57.242,290541,L_Ankle,0.129,0.0144,0.9885,5.41,-0.83,-10.3,-93.64,-32.31,-9.19,0.916166,0.048006,-0.063509,0.392743,0.0,0.0,0.0,0,0
2026-06-16 15:37:57.243,290387,R_Hip,0.0456,0.004,0.9958,0.25,-1.57,1.77,-19.42,25.61,-32.64,0.913297,-0.006928,-0.041383,-0.405072,0.0,0.0,0.0,0,0
2026-06-16 15:37:57.246,290522,L_Ankle,0.1364,0.0105,0.9914,5.41,-0.82,-10.29,0.0,0.0,0.0,0.916166,0.048006,-0.063509,0.392743,0.0,0.0,0.0,0,0
2026-06-16 15:37:57.246,290407,R_Hip,0.0431,-0.0003,0.9929,0.25,-1.58,1.78,-19.96,27.99,-32.14,0.913297,-0.006928,-0.041414,-0.405072,0.0,0.0,0.0,0,0
2026-06-16 15:37:57.249,290542,L_Ankle,0.1271,0.0168,0.9923,5.4,-0.83,-10.29,-93.83,-33.2,-10.39,0.916166,0.048036,-0.063478,0.392743,0.0,0.0,0.0,0,0
2026-06-16 15:37:57.250,290427,R_Hip,0.0486,0.0108,0.9871,0.26,-1.56,1.77,-17.96,27.07,-31.96,0.913297,-0.006958,-0.041383,-0.405072,0.0,0.0,0.0,0,0
2026-06-16 15:37:57.252,290531,L_Hip,0.1279,-0.0676,0.9919,-4.15,4.55,2.99,-17.32,18.34,-24.52,0.98706,-0.036073,-0.067324,-0.140812,0.0,0.0,0.0,0,0
2026-06-16 15:37:57.253,290447,R_Hip,0.0461,-0.0018,1.0049,0.26,-1.56,1.77,0.0,0.0,0.0,0.913297,-0.006928,-0.041383,-0.405072,0.0,0.0,0.0,0,0
2026-06-16 15:37:57.254,290551,L_Hip,0.1283,-0.0681,0.9953,-4.14,4.55,2.99,0.0,0.0,0.0,0.98706,-0.036073,-0.067324,-0.140812,0.0,0.0,0.0,0,0
2026-06-16 15:37:57.257,290532,L_Hip,0.1264,-0.0568,0.9803,-4.14,4.54,2.98,-19.69,18.3,-24.19,0.98706,-0.036073,-0.067293,-0.140812,0.0,0.0,0.0,0,0
2026-06-16 15:37:57.259,290552,L_Hip,0.1225,-0.0705,0.99,-4.13,4.55,2.96,-17.65,18.02,-25.39,0.98706,-0.036073,-0.067324,-0.140812,0.0,0.0,0.0,0,0
2026-06-16 15:37:57.261,290561,L_Shank,0.0028,-0.018,1.0041,1.75,-1.19,-0.2,-5.54,16.01,-23.16,0.990661,-0.005097,-0.025758,0.133671,0.0,0.0,0.0,0,0
2026-06-16 15:37:57.263,290581,L_Shank,0.0042,-0.0229,0.9945,1.75,-1.16,-0.19,0.0,0.0,0.0,0.990661,-0.005127,-0.025758,0.133641,0.0,0.0,0.0,0,0
2026-06-16 15:37:57.265,290601,L_Shank,0.0047,-0.0146,0.9791,1.76,-1.18,-0.2,-5.88,14.32,-24.07,0.990661,-0.005127,-0.025758,0.133641,0.0,0.0,0.0,0,0
2026-06-16 15:37:57.267,290562,L_Shank,0.0067,-0.0283,0.981,1.76,-1.19,-0.19,0.0,0.0,0.0,0.990661,-0.005127,-0.025788,0.133641,0.0,0.0,0.0,0,0
2026-06-16 15:37:57.269,290566,L_Ankle,0.131,0.0188,0.9866,5.41,-0.82,-10.29,-94.71,-33.72,-11.25,0.916166,0.048006,-0.063509,0.392743,0.0,0.0,0.0,0,0
2026-06-16 15:37:57.271,290586,L_Ankle,0.1276,0.0173,0.9765,5.41,-0.81,-10.31,-95.6,-31.76,-10.41,0.916166,0.048006,-0.063478,0.392743,0.0,0.0,0.0,0,0
2026-06-16 15:37:57.273,290606,L_Ankle,0.1266,0.0129,0.9952,5.41,-0.8,-10.29,0.0,0.0,0.0,0.916166,0.048036,-0.063509,0.392743,0.0,0.0,0.0,0,0
2026-06-16 15:37:57.275,290626,L_Ankle,0.1325,0.0109,0.9885,5.41,-0.83,-10.3,-93.67,-33.03,-11.23,0.916166,0.048006,-0.063509,0.392743,0.0,0.0,0.0,0,0
2026-06-16 15:37:57.276,290437,R_Hip,0.0461,0.0079,0.9861,0.26,-1.57,1.78,-18.5,26.53,-32.82,0.913297,-0.006928,-0.041383,-0.405072,0.0,0.0,0.0,0,0
2026-06-16 15:37:57.277,290576,L_Hip,0.1274,-0.0735,0.9885,-4.14,4.56,2.97,-17.49,18.5,-24.66,0.98706,-0.036073,-0.067324,-0.140812,0.0,0.0,0.0,0,0
2026-06-16 15:37:57.278,290457,R_Hip,0.0496,0.0089,0.9881,0.27,-1.56,1.8,-20.33,27.99,-32.82,0.913297,-0.006928,-0.041383,-0.405072,0.0,0.0,0.0,0,0
2026-06-16 15:37:57.280,290596,L_Hip,0.121,-0.0685,0.9909,-4.15,4.56,2.96,0.0,0.0,0.0,0.98706,-0.036073,-0.067354,-0.140812,0.0,0.0,0.0,0,0
2026-06-16 15:37:57.281,290477,R_Hip,0.0422,0.0059,0.989,0.26,-1.58,1.78,-19.6,26.53,-33.16,0.913297,-0.006928,-0.041383,-0.405042,0.0,0.0,0.0,0,0
2026-06-16 15:37:57.283,290616,L_Hip,0.1269,-0.0759,0.9919,-4.14,4.54,2.98,-17.84,18.17,-24.08,0.98706,-0.036073,-0.067354,-0.140812,0.0,0.0,0.0,0,0
2026-06-16 15:37:57.283,290497,R_Hip,0.0456,0.0093,0.9866,0.26,-1.56,1.79,0.0,0.0,0.0,0.913297,-0.006928,-0.041383,-0.405042,0.0,0.0,0.0,0,0
2026-06-16 15:37:57.285,290636,L_Hip,0.1205,-0.0538,0.9919,-4.15,4.55,2.96,-18.36,17.68,-23.92,0.98706,-0.036073,-0.067354,-0.140812,0.0,0.0,0.0,0,0
2026-06-16 15:37:57.286,290444,R_Ankle,0.0135,-0.0101,1.0091,0.77,-1.73,-0.5,-25.07,29.64,-29.22,0.243538,0.090884,0.015442,0.965484,0.0,0.0,0.0,0,0
2026-06-16 15:37:57.289,290587,L_Shank,-0.0025,-0.0214,0.9878,1.77,-1.18,-0.2,-4.49,14.65,-23.47,0.990661,-0.005158,-0.025788,0.133671,0.0,0.0,0.0,0,0
2026-06-16 15:37:57.289,290464,R_Ankle,0.017,-0.0166,1.0058,0.78,-1.71,-0.5,-25.23,30.11,-28.46,0.243538,0.090915,0.015473,0.965484,0.0,0.0,0.0,0,0
2026-06-16 15:37:57.291,290607,L_Shank,0.0076,-0.0195,0.9844,1.76,-1.17,-0.2,-4.66,14.49,-24.24,0.990661,-0.005158,-0.025788,0.133671,0.0,0.0,0.0,0,0
2026-06-16 15:37:57.291,290484,R_Ankle,0.0204,-0.0141,1.0,0.77,-1.7,-0.48,0.0,0.0,0.0,0.243538,0.090884,0.015473,0.965484,0.0,0.0,0.0,0,0
2026-06-16 15:37:57.294,290627,L_Shank,-0.0108,-0.0244,0.995,1.76,-1.19,-0.19,-5.0,15.52,-24.87,0.990661,-0.005158,-0.025788,0.133671,0.0,0.0,0.0,0,0
2026-06-16 15:37:57.294,290504,R_Ankle,0.0228,-0.0126,0.9943,0.76,-1.71,-0.49,-25.73,30.9,-28.63,0.243538,0.090884,0.015473,0.965484,0.0,0.0,0.0,0,0
2026-06-16 15:37:57.295,290647,L_Shank,-0.0059,-0.0229,0.9993,1.76,-1.19,-0.19,0.0,0.0,0.0,0.990661,-0.005158,-0.025788,0.133671,0.0,0.0,0.0,0,0
2026-06-16 15:37:57.304,290467,R_Ankle,0.0214,-0.0081,0.9904,0.76,-1.7,-0.51,-25.23,29.15,-28.14,0.243538,0.090884,0.015473,0.965484,0.0,0.0,0.0,0,0
2026-06-16 15:37:57.306,290487,R_Ankle,0.0135,-0.0062,1.0081,0.76,-1.7,-0.5,-24.71,30.58,-28.3,0.243538,0.090915,0.015473,0.965484,0.0,0.0,0.0,0,0
2026-06-16 15:37:57.307,290507,R_Ankle,0.0179,-0.0156,0.9943,0.76,-1.71,-0.48,0.0,0.0,0.0,0.243538,0.090915,0.015503,0.965484,0.0,0.0,0.0,0,0
2026-06-16 15:37:57.309,290527,R_Ankle,0.0145,-0.0072,1.0024,0.76,-1.71,-0.5,-25.22,30.74,-28.16,0.243538,0.090915,0.015503,0.965484,0.0,0.0,0.0,0,0
2026-06-16 15:37:57.321,290621,L_Hip,0.1264,-0.0725,0.9817,-4.13,4.55,2.97,-18.84,19.76,-23.2,0.98706,-0.036073,-0.067354,-0.140812,0.0,0.0,0.0,0,0
2026-06-16 15:37:57.323,290485,R_Shank,0.0542,0.9572,1.0095,-0.09,-1.45,-8.41,-15.25,25.27,-20.95,0.930113,0.035279,-0.021607,0.364879,0.0,0.0,0.0,0,0
2026-06-16 15:37:57.323,290641,L_Hip,0.1259,-0.0651,0.9992,-4.14,4.54,2.96,0.0,0.0,0.0,0.98706,-0.036103,-0.067354,-0.140812,0.0,0.0,0.0,0,0
2026-06-16 15:37:57.326,290505,R_Shank,0.0409,-2.3844,1.0037,-0.1,-1.46,-8.41,-16.64,26.95,-20.62,0.930113,0.035249,-0.021638,0.364879,0.0,0.0,0.0,0,0
2026-06-16 15:37:57.326,290622,L_Hip,0.1249,-0.071,0.9919,-4.14,4.54,2.96,-18.87,17.18,-24.06,0.98706,-0.036073,-0.067385,-0.140812,0.0,0.0,0.0,0,0
2026-06-16 15:37:57.329,290525,R_Shank,0.0463,0.698,1.0066,-0.09,-1.47,-8.42,-15.92,24.95,-20.64,0.930113,0.035249,-0.021668,0.364879,0.0,0.0,0.0,0,0
2026-06-16 15:37:57.329,290642,L_Hip,0.12,-0.07,0.9822,-4.14,4.55,2.96,-19.19,17.82,-24.64,0.98706,-0.036073,-0.067385,-0.140812,0.0,0.0,0.0,0,0
2026-06-16 15:37:57.330,290545,R_Shank,0.0443,-0.0724,1.0181,-0.09,-1.45,-8.41,0.0,0.0,0.0,0.930113,0.035218,-0.021668,0.364879,0.0,0.0,0.0,0,0
2026-06-16 15:37:57.332,290487,R_Hip,0.0486,0.0006,0.9803,0.27,-1.58,1.77,-21.06,27.26,-32.48,0.913327,-0.006928,-0.041353,-0.405042,0.0,0.0,0.0,0,0
2026-06-16 15:37:57.334,290634,L_Ankle,0.1281,0.0109,0.9789,5.4,-0.82,-10.29,-95.39,-33.0,-9.9,0.916166,0.048006,-0.063509,0.392743,0.0,0.0,0.0,0,0
2026-06-16 15:37:57.335,290507,R_Hip,0.0456,-0.0003,0.9982,0.26,-1.56,1.77,-19.23,27.62,-30.77,0.913327,-0.006928,-0.041383,-0.405042,0.0,0.0,0.0,0,0
2026-06-16 15:37:57.336,290527,R_Hip,0.051,0.0089,0.9958,0.25,-1.57,1.77,-20.69,26.53,-32.14,0.913327,-0.006958,-0.041383,-0.405042,0.0,0.0,0.0,0,0
2026-06-16 15:37:57.337,290654,L_Ankle,0.1315,0.0158,0.9986,5.41,-0.82,-10.3,-95.05,-33.0,-10.24,0.916166,0.048006,-0.063478,0.392743,0.0,0.0,0.0,0,0
2026-06-16 15:37:57.339,290547,R_Hip,0.0358,0.0093,0.9929,0.27,-1.56,1.78,0.0,0.0,0.0,0.913297,-0.006958,-0.041383,-0.405042,0.0,0.0,0.0,0,0
2026-06-16 15:37:57.339,290674,L_Ankle,0.1335,0.0149,0.9794,5.42,-0.83,-10.3,0.0,0.0,0.0,0.916166,0.048006,-0.063478,0.392743,0.0,0.0,0.0,0,0
2026-06-16 15:37:57.341,290694,L_Ankle,0.1359,0.0197,0.9918,5.41,-0.83,-10.29,-94.37,-31.95,-10.22,0.916166,0.047975,-0.063478,0.392743,0.0,0.0,0.0,0,0
2026-06-16 15:37:57.343,290636,L_Shank,-0.0015,-0.0209,0.9849,1.76,-1.17,-0.21,-5.36,13.48,-24.53,0.990661,-0.005158,-0.025788,0.133671,0.0,0.0,0.0,0,0
2026-06-16 15:37:57.345,290656,L_Shank,0.0081,-0.0253,0.9897,1.77,-1.16,-0.19,-5.01,14.15,-24.23,0.990661,-0.005158,-0.025819,0.133671,0.0,0.0,0.0,0,0
2026-06-16 15:37:57.347,290676,L_Shank,0.0042,-0.0209,0.9791,1.76,-1.17,-0.2,-5.87,14.67,-25.01,0.990661,-0.005158,-0.025819,0.133671,0.0,0.0,0.0,0,0
2026-06-16 15:37:57.348,290696,L_Shank,0.0101,-0.018,0.9887,1.77,-1.18,-0.19,-6.05,14.51,-25.16,0.990661,-0.005127,-0.025819,0.133671,0.0,0.0,0.0,0,0
2026-06-16 15:37:57.356,290656,L_Ankle,0.132,0.0227,0.9995,5.41,-0.82,-10.29,-95.74,-33.35,-10.25,0.916166,0.048006,-0.063478,0.392743,0.0,0.0,0.0,0,0
2026-06-16 15:37:57.358,290676,L_Ankle,0.1339,0.0168,0.9774,5.41,-0.82,-10.29,-94.01,-32.67,-10.56,0.916166,0.047975,-0.063448,0.392773,0.0,0.0,0.0,0,0
2026-06-16 15:37:57.360,290696,L_Ankle,0.1246,0.0173,0.9942,5.41,-0.83,-10.3,0.0,0.0,0.0,0.916166,0.047975,-0.063448,0.392743,0.0,0.0,0.0,0,0
2026-06-16 15:37:57.362,290657,L_Ankle,0.1359,0.0192,0.9976,5.41,-0.81,-10.29,-95.77,-31.93,-10.59,0.916166,0.047975,-0.063448,0.392743,0.0,0.0,0.0,0,0
2026-06-16 15:37:57.367,290666,L_Hip,0.1249,-0.0705,0.9933,-4.14,4.56,2.97,-18.33,18.0,-25.09,0.98706,-0.036073,-0.067385,-0.140812,0.0,0.0,0.0,0,0
2026-06-16 15:37:57.368,290530,R_Shank,0.0463,1.4688,1.0047,-0.09,-1.45,-8.42,-17.61,24.98,-20.62,0.930113,0.035249,-0.021668,0.364879,0.0,0.0,0.0,0,0
2026-06-16 15:37:57.369,290686,L_Hip,0.1215,-0.0685,0.99,-4.12,4.56,2.97,0.0,0.0,0.0,0.98706,-0.036073,-0.067385,-0.140812,0.0,0.0,0.0,0,0
2026-06-16 15:37:57.371,290550,R_Shank,0.0404,0.8276,1.0032,-0.09,-1.46,-8.41,-15.75,25.44,-21.7,0.930113,0.035249,-0.021668,0.364879,0.0,0.0,0.0,0,0
2026-06-16 15:37:57.373,290706,L_Hip,0.1185,-0.0656,0.9875,-4.12,4.54,2.97,-18.19,17.84,-23.78,0.98706,-0.036073,-0.067385,-0.140812,0.0,0.0,0.0,0,0
2026-06-16 15:37:57.375,290570,R_Shank,0.0473,-2.514,1.0056,-0.08,-1.46,-8.41,0.0,0.0,0.0,0.930113,0.035249,-0.021668,0.364879,0.0,0.0,0.0,0,0
2026-06-16 15:37:57.375,290726,L_Hip,0.1225,-0.0764,0.9861,-4.15,4.54,2.98,-18.03,16.39,-24.79,0.98706,-0.036073,-0.067385,-0.140812,0.0,0.0,0.0,0,0
2026-06-16 15:37:57.377,290590,R_Shank,0.0355,-1.8728,1.0071,-0.09,-1.46,-8.41,-16.61,25.63,-20.63,0.930113,0.035249,-0.021699,0.364879,0.0,0.0,0.0,0,0
2026-06-16 15:37:57.379,290535,R_Ankle,0.0165,-0.0076,1.0077,0.77,-1.73,-0.48,-24.88,30.42,-27.84,0.243538,0.090884,0.015503,0.965484,0.0,0.0,0.0,0,0
2026-06-16 15:37:57.380,290555,R_Ankle,0.014,-0.0076,0.9818,0.77,-1.7,-0.49,-25.56,31.38,-28.78,0.243538,0.090915,0.015503,0.965484,0.0,0.0,0.0,0,0
2026-06-16 15:37:57.382,290575,R_Ankle,0.0219,-0.0027,0.9904,0.77,-1.71,-0.49,0.0,0.0,0.0,0.243538,0.090884,0.015503,0.965484,0.0,0.0,0.0,0,0
2026-06-16 15:37:57.384,290595,R_Ankle,0.0243,-0.019,0.9899,0.76,-1.7,-0.5,-25.41,29.64,-29.22,0.243538,0.090915,0.015534,0.965484,0.0,0.0,0.0,0,0
2026-06-16 15:37:57.386,290536,R_Hip,0.0436,0.0054,0.9924,0.26,-1.57,1.78,-21.42,27.63,-32.82,0.913297,-0.006928,-0.041353,-0.405042,0.0,0.0,0.0,0,0
2026-06-16 15:37:57.386,290686,L_Shank,0.0076,-0.0244,0.9863,1.77,-1.17,-0.19,-5.2,15.67,-23.16,0.990661,-0.005127,-0.025819,0.133671,0.0,0.0,0.0,0,0
2026-06-16 15:37:57.389,290706,L_Shank,-0.0006,-0.0234,1.0007,1.77,-1.18,-0.19,0.0,0.0,0.0,0.990661,-0.005158,-0.025819,0.133671,0.0,0.0,0.0,0,0
2026-06-16 15:37:57.389,290556,R_Hip,0.0491,0.0001,1.0001,0.27,-1.57,1.78,-19.78,26.71,-32.99,0.913327,-0.006928,-0.041353,-0.405042,0.0,0.0,0.0,0,0
2026-06-16 15:37:57.391,290726,L_Shank,-0.004,-0.0244,0.9854,1.74,-1.18,-0.19,-4.84,14.65,-23.46,0.990661,-0.005158,-0.025788,0.133671,0.0,0.0,0.0,0,0
2026-06-16 15:37:57.391,290576,R_Hip,0.0441,0.0147,0.9909,0.27,-1.55,1.78,-18.87,25.8,-34.18,0.913327,-0.006958,-0.041353,-0.405042,0.0,0.0,0.0,0,0
2026-06-16 15:37:57.393,290596,R_Hip,0.0431,0.0035,0.9929,0.25,-1.57,1.78,0.0,0.0,0.0,0.913327,-0.006928,-0.041353,-0.405042,0.0,0.0,0.0,0,0
2026-06-16 15:37:57.393,290746,L_Shank,0.0033,-0.0258,0.9892,1.74,-1.16,-0.2,-5.19,14.32,-23.77,0.990661,-0.005127,-0.025788,0.133671,0.0,0.0,0.0,0,0
2026-06-16 15:37:57.396,290552,R_Shank,0.0409,-2.6436,1.0181,-0.09,-1.45,-8.41,-18.32,26.98,-20.6,0.930113,0.035249,-0.021668,0.364879,0.0,0.0,0.0,0,0
2026-06-16 15:37:57.397,290689,L_Hip,0.122,-0.072,0.9885,-4.15,4.55,2.97,-19.04,17.98,-23.33,0.98706,-0.036073,-0.067385,-0.140812,0.0,0.0,0.0,0,0
2026-06-16 15:37:57.398,290572,R_Shank,0.0448,0.0572,1.0157,-0.09,-1.45,-8.41,-17.11,25.79,-21.68,0.930113,0.035249,-0.021668,0.364879,0.0,0.0,0.0,0,0
2026-06-16 15:37:57.399,290709,L_Hip,0.118,-0.0857,0.9996,-4.15,4.56,2.98,0.0,0.0,0.0,0.98706,-0.036042,-0.067385,-0.140812,0.0,0.0,0.0,0,0
2026-06-16 15:37:57.400,290592,R_Shank,0.0394,3.01,1.0229,-0.08,-1.47,-8.42,0.0,0.0,0.0,0.930113,0.035249,-0.021668,0.364879,0.0,0.0,0.0,0,0
2026-06-16 15:37:57.401,290729,L_Hip,0.1259,-0.0754,0.9851,-4.14,4.54,2.97,-18.82,18.8,-24.94,0.98706,-0.036073,-0.067385,-0.140812,0.0,0.0,0.0,0,0
2026-06-16 15:37:57.403,290612,R_Shank,0.0404,-0.8432,1.0225,-0.1,-1.47,-8.42,-14.76,26.09,-20.8,0.930113,0.035249,-0.021668,0.364879,0.0,0.0,0.0,0,0
2026-06-16 15:37:57.404,290749,L_Hip,0.1229,-0.0779,0.9962,-4.13,4.54,2.96,-19.2,17.18,-24.34,0.98706,-0.036103,-0.067385,-0.140812,0.0,0.0,0.0,0,0
2026-06-16 15:37:57.406,290557,R_Ankle,0.0228,-0.0146,1.0062,0.75,-1.7,-0.5,-23.19,30.45,-29.06,0.243538,0.090915,0.015503,0.965484,0.0,0.0,0.0,0,0
2026-06-16 15:37:57.407,290701,L_Ankle,0.1241,0.0266,1.0014,5.41,-0.83,-10.31,-94.36,-32.3,-9.88,0.916166,0.047975,-0.063448,0.392743,0.0,0.0,0.0,0,0
2026-06-16 15:37:57.409,290577,R_Ankle,0.0175,-0.0106,1.0153,0.75,-1.7,-0.5,-25.22,29.46,-27.52,0.243538,0.090945,0.015503,0.965484,0.0,0.0,0.0,0,0
2026-06-16 15:37:57.410,290721,L_Ankle,0.1251,0.01,0.9856,5.4,-0.83,-10.29,-94.01,-32.67,-10.56,0.916166,0.048006,-0.063417,0.392773,0.0,0.0,0.0,0,0
2026-06-16 15:37:57.411,290597,R_Ankle,0.0199,-0.0037,1.001,0.76,-1.72,-0.49,0.0,0.0,0.0,0.243538,0.090915,0.015503,0.965484,0.0,0.0,0.0,0,0
2026-06-16 15:37:57.412,290741,L_Ankle,0.1256,0.0173,0.9928,5.39,-0.81,-10.29,-94.22,-31.78,-11.41,0.916166,0.048006,-0.063448,0.392773,0.0,0.0,0.0,0,0
2026-06-16 15:37:57.413,290617,R_Ankle,0.0233,-0.0146,1.0014,0.76,-1.73,-0.51,-25.05,30.9,-28.31,0.243538,0.090945,0.015503,0.965484,0.0,0.0,0.0,0,0
2026-06-16 15:37:57.415,290761,L_Ankle,0.1339,0.0134,0.9837,5.4,-0.83,-10.29,0.0,0.0,0.0,0.916166,0.048006,-0.063448,0.392773,0.0,0.0,0.0,0,0
