python_time,esp32_hw_time,sensor_name,ax,ay,az,gx,gy,gz,mx,my,mz,q0,q1,q2,q3,quat_roll,quat_pitch,quat_yaw,is_paused_flag,t_pose_flag
2026-06-16 16:11:24.247,2297519,L_Hip,-0.1825,0.8946,0.3766,-4.19,4.36,2.64,0.0,0.0,0.0,0.720573,0.398114,0.350963,0.446181,0.0,0.0,0.0,0,0
2026-06-16 16:11:24.249,2297539,L_Hip,-0.183,0.8946,0.3916,-4.16,4.35,2.64,34.91,-4.72,-18.4,0.720573,0.398144,0.350871,0.446211,0.0,0.0,0.0,0,0
2026-06-16 16:11:24.252,2297559,L_Hip,-0.1933,0.8906,0.3746,-4.17,4.33,2.64,35.27,-5.03,-20.15,0.720573,0.398206,0.35081,0.446181,0.0,0.0,0.0,0,0
2026-06-16 16:11:24.254,2297387,R_Hip,-0.0002,-1.1197,0.1198,-0.93,-3.21,4.25,-30.86,11.87,-16.04,0.425062,-0.308908,0.567919,-0.633473,0.0,0.0,0.0,0,0
2026-06-16 16:11:24.256,2297407,R_Hip,0.0027,-1.0817,0.0827,-1.06,-2.42,4.19,-31.77,10.59,-16.55,0.426191,-0.309244,0.568224,-0.632282,0.0,0.0,0.0,0,0
2026-06-16 16:11:24.257,2297427,R_Hip,-0.0031,-1.048,0.0948,-1.25,-2.15,4.03,0.0,0.0,0.0,0.426923,-0.309397,0.568896,-0.631123,0.0,0.0,0.0,0,0
2026-06-16 16:11:24.259,2297447,R_Hip,-0.0648,-1.0011,0.0885,-1.64,-1.28,3.09,-31.22,10.41,-16.04,0.427015,-0.309549,0.569781,-0.630177,0.0,0.0,0.0,0,0
2026-06-16 16:11:24.266,2297531,L_Hip,-0.1982,0.898,0.3906,-4.15,4.32,2.7,34.78,-3.59,-19.42,0.720573,0.398297,0.350749,0.446181,0.0,0.0,0.0,0,0
2026-06-16 16:11:24.268,2297551,L_Hip,-0.1869,0.8906,0.4071,-4.16,4.33,2.72,0.0,0.0,0.0,0.720573,0.398389,0.350688,0.44615,0.0,0.0,0.0,0,0
2026-06-16 16:11:24.269,2297402,R_Shank,0.0934,2.5344,0.7212,-0.18,-2.67,-8.06,-23.33,-17.16,-10.33,0.902982,0.036592,-0.030152,-0.426984,0.0,0.0,0.0,0,0
2026-06-16 16:11:24.270,2297532,L_Hip,-0.1889,0.8995,0.394,-4.15,4.35,2.74,36.63,-4.36,-19.59,0.720542,0.39848,0.350627,0.44612,0.0,0.0,0.0,0,0
2026-06-16 16:11:24.272,2297422,R_Shank,0.0699,2.8468,0.8159,-0.7,-2.62,-9.22,-23.45,-20.3,-9.9,0.903226,0.037538,-0.0318,-0.426313,0.0,0.0,0.0,0,0
2026-06-16 16:11:24.272,2297552,L_Hip,-0.1874,0.897,0.3814,-4.13,4.38,2.76,36.11,-4.54,-19.15,0.720542,0.398541,0.350627,0.446089,0.0,0.0,0.0,0,0
2026-06-16 16:11:24.274,2297442,R_Shank,0.0335,1.8372,0.9024,-1.09,-2.4,-10.16,-23.97,-19.14,-10.64,0.902829,0.037111,-0.032716,-0.427107,0.0,0.0,0.0,0,0
2026-06-16 16:11:24.275,2297462,R_Shank,-0.0056,2.628,1.119,-1.29,-1.99,-11.51,0.0,0.0,0.0,0.902005,0.036195,-0.032746,-0.428907,0.0,0.0,0.0,0,0
2026-06-16 16:11:24.279,2297544,L_Ankle,0.2035,-0.1708,0.9592,5.4,-0.69,-10.31,34.72,10.25,-11.48,-0.367748,-0.078524,0.11008,-0.920011,0.0,0.0,0.0,0,0
2026-06-16 16:11:24.279,2297412,R_Hip,-0.119,-0.9127,0.024,-1.83,-0.15,1.77,-31.22,11.87,-17.07,0.426313,-0.309641,0.57091,-0.629597,0.0,0.0,0.0,0,0
2026-06-16 16:11:24.281,2297564,L_Ankle,0.1996,-0.1713,0.9592,5.39,-0.64,-10.31,33.51,9.74,-10.99,-0.367748,-0.078524,0.11005,-0.920011,0.0,0.0,0.0,0,0
2026-06-16 16:11:24.282,2297432,R_Hip,-0.1471,-0.8571,0.011,-1.75,-0.09,1.54,-31.58,10.04,-16.38,0.425184,-0.309702,0.572222,-0.629139,0.0,0.0,0.0,0,0
2026-06-16 16:11:24.283,2297584,L_Ankle,0.1972,-0.1688,0.9477,5.39,-0.64,-10.3,35.29,8.65,-10.29,-0.367748,-0.078524,0.110019,-0.920042,0.0,0.0,0.0,0,0
2026-06-16 16:11:24.284,2297452,R_Hip,-0.1501,-0.839,-0.0091,-1.65,-0.19,1.49,-31.22,11.14,-17.41,0.424055,-0.309732,0.573504,-0.628712,0.0,0.0,0.0,0,0
2026-06-16 16:11:24.285,2297604,L_Ankle,0.1991,-0.1742,0.9635,5.4,-0.61,-10.29,0.0,0.0,0.0,-0.367748,-0.078494,0.109928,-0.920042,0.0,0.0,0.0,0,0
2026-06-16 16:11:24.286,2297472,R_Hip,-0.1728,-0.7922,-0.0308,-1.31,-0.45,1.61,0.0,0.0,0.0,0.423139,-0.309763,0.574664,-0.628254,0.0,0.0,0.0,0,0
2026-06-16 16:11:24.288,2297415,R_Ankle,0.0929,-0.0255,0.9713,0.98,-1.69,-0.41,-31.55,-11.72,-13.56,0.833522,0.084017,-0.089328,0.538682,0.0,0.0,0.0,0,0
2026-06-16 16:11:24.290,2297435,R_Ankle,0.0895,-0.0413,0.9794,0.92,-1.75,-0.38,-31.73,-11.88,-14.02,0.83346,0.08417,-0.089206,0.538743,0.0,0.0,0.0,0,0
2026-06-16 16:11:24.291,2297455,R_Ankle,0.09,-0.0389,0.9995,0.81,-1.78,-0.32,0.0,0.0,0.0,0.833399,0.084292,-0.089175,0.538804,0.0,0.0,0.0,0,0
2026-06-16 16:11:24.293,2297475,R_Ankle,0.1184,-0.0909,1.0062,0.8,-1.81,-0.32,-32.22,-11.09,-13.27,0.833338,0.084292,-0.089206,0.538926,0.0,0.0,0.0,0,0
2026-06-16 16:11:24.312,2297576,L_Hip,-0.1987,0.8926,0.4027,-4.12,4.44,2.76,35.78,-5.18,-20.01,0.720542,0.398602,0.350688,0.445997,0.0,0.0,0.0,0,0
2026-06-16 16:11:24.315,2297577,L_Hip,-0.1953,0.8916,0.3984,-4.14,4.48,2.76,0.0,0.0,0.0,0.720542,0.398633,0.350719,0.445906,0.0,0.0,0.0,0,0
2026-06-16 16:11:24.315,2297447,R_Shank,-0.0105,-0.5976,0.8995,-0.35,-1.72,-7.99,-23.12,-19.32,-10.8,0.90054,0.035218,-0.031343,-0.432142,0.0,0.0,0.0,0,0
2026-06-16 16:11:24.317,2297597,L_Hip,-0.2007,0.8906,0.3959,-4.15,4.5,2.78,37.63,-4.35,-19.03,0.720573,0.398663,0.350749,0.445784,0.0,0.0,0.0,0,0
2026-06-16 16:11:24.318,2297467,R_Shank,0.0031,-1.1088,0.9307,-0.41,-1.74,-7.99,-22.14,-18.01,-10.5,0.900693,0.035035,-0.031465,-0.431867,0.0,0.0,0.0,0,0
2026-06-16 16:11:24.321,2297487,R_Shank,-0.0042,0.562,0.9417,-0.42,-1.76,-8.03,0.0,0.0,0.0,0.900815,0.03473,-0.031526,-0.431623,0.0,0.0,0.0,0,0
2026-06-16 16:11:24.321,2297617,L_Hip,-0.2017,0.8887,0.4042,-4.16,4.53,2.83,35.96,-3.73,-19.0,0.720664,0.398663,0.35081,0.445662,0.0,0.0,0.0,0,0
2026-06-16 16:11:24.323,2297507,R_Shank,-0.0262,1.0868,0.9739,-0.32,-1.87,-8.28,-22.6,-20.15,-10.36,0.900876,0.034394,-0.031648,-0.431501,0.0,0.0,0.0,0,0
2026-06-16 16:11:24.337,2297470,R_Shank,-0.0223,0.8612,1.1363,-0.14,-1.42,-7.51,-22.43,-19.67,-11.41,0.900906,0.033998,-0.031709,-0.431471,0.0,0.0,0.0,0,0
2026-06-16 16:11:24.338,2297490,R_Shank,0.0198,-1.846,1.1608,-0.24,-0.6,-6.97,-21.59,-19.52,-11.57,0.901151,0.03354,-0.031404,-0.431043,0.0,0.0,0.0,0,0
2026-06-16 16:11:24.340,2297510,R_Shank,0.036,1.2296,1.1733,-0.29,0.24,-6.51,0.0,0.0,0.0,0.9017,0.033204,-0.030274,-0.429945,0.0,0.0,0.0,0,0
2026-06-16 16:11:24.342,2297530,R_Shank,0.0129,-0.066,1.1752,-0.25,1.03,-5.54,-22.58,-20.82,-11.27,0.902554,0.033357,-0.028718,-0.428236,0.0,0.0,0.0,0,0
2026-06-16 16:11:24.349,2297482,R_Ankle,0.112,-0.1835,1.0594,0.97,-1.84,-0.47,-33.26,-12.05,-13.57,0.833247,0.084292,-0.089511,0.539018,0.0,0.0,0.0,0,0
2026-06-16 16:11:24.351,2297502,R_Ankle,0.0821,-0.1855,1.0656,1.16,-1.87,-0.33,-31.89,-10.76,-14.19,0.833155,0.084231,-0.089969,0.539079,0.0,0.0,0.0,0,0
2026-06-16 16:11:24.352,2297522,R_Ankle,0.0615,-0.1741,1.058,1.6,-2.14,0.33,0.0,0.0,0.0,0.832972,0.084109,-0.090152,0.539354,0.0,0.0,0.0,0,0
2026-06-16 16:11:24.354,2297542,R_Ankle,0.038,-0.1404,1.0805,1.82,-2.22,0.58,-32.76,-11.87,-15.27,0.832514,0.084323,-0.090213,0.540025,0.0,0.0,0.0,0,0
2026-06-16 16:11:24.356,2297621,L_Hip,-0.2002,0.899,0.3911,-4.14,4.57,2.92,35.58,-5.35,-18.41,0.720756,0.398633,0.35078,0.445509,0.0,0.0,0.0,0,0
2026-06-16 16:11:24.358,2297641,L_Hip,-0.2036,0.8842,0.3896,-4.16,4.56,2.95,0.0,0.0,0.0,0.720908,0.398572,0.35078,0.445357,0.0,0.0,0.0,0,0
2026-06-16 16:11:24.360,2297622,L_Hip,-0.2041,0.8887,0.3916,-4.12,4.56,2.96,36.63,-4.36,-19.59,0.72103,0.398541,0.35078,0.445143,0.0,0.0,0.0,0,0
2026-06-16 16:11:24.362,2297642,L_Hip,-0.1953,0.8916,0.3921,-4.14,4.56,3.02,35.95,-4.7,-19.58,0.721183,0.398511,0.35078,0.444929,0.0,0.0,0.0,0,0
2026-06-16 16:11:24.369,2297635,L_Ankle,0.1996,-0.1615,0.9482,5.4,-0.59,-10.26,35.42,9.53,-11.81,-0.367748,-0.078463,0.109836,-0.920042,0.0,0.0,0.0,0,0
2026-06-16 16:11:24.371,2297655,L_Ankle,0.2075,-0.1698,0.9496,5.41,-0.61,-10.25,34.21,9.37,-10.98,-0.367779,-0.078402,0.109775,-0.920072,0.0,0.0,0.0,0,0
2026-06-16 16:11:24.373,2297675,L_Ankle,0.1952,-0.162,0.9602,5.41,-0.59,-10.25,34.88,10.42,-11.99,-0.367779,-0.078341,0.109653,-0.920072,0.0,0.0,0.0,0,0
2026-06-16 16:11:24.375,2297695,L_Ankle,0.1932,-0.1639,0.9597,5.41,-0.62,-10.25,35.08,9.89,-11.13,-0.367809,-0.07828,0.109622,-0.920072,0.0,0.0,0.0,0,0
2026-06-16 16:11:24.377,2297715,L_Ankle,0.1854,-0.1659,0.9496,5.39,-0.67,-10.31,35.42,10.59,-10.79,-0.36784,-0.078219,0.109561,-0.920072,0.0,0.0,0.0,0,0
2026-06-16 16:11:24.379,2297735,L_Ankle,0.1986,-0.1698,0.9578,5.39,-0.68,-10.32,35.27,10.07,-9.94,-0.36787,-0.078127,0.109531,-0.920072,0.0,0.0,0.0,0,0
2026-06-16 16:11:24.380,2297513,R_Hip,-0.159,-0.7487,-0.0062,-0.39,-1.04,1.77,-31.04,11.69,-16.55,0.422559,-0.309671,0.575549,-0.627888,0.0,0.0,0.0,0,0
2026-06-16 16:11:24.382,2297755,L_Ankle,0.1888,-0.1732,0.9506,5.4,-0.7,-10.32,35.43,9.53,-11.13,-0.367901,-0.077975,0.10947,-0.920072,0.0,0.0,0.0,0,0
2026-06-16 16:11:24.383,2297533,R_Hip,-0.158,-0.7272,-0.024,0.32,-1.41,1.96,-31.4,12.78,-15.87,0.422346,-0.309519,0.575976,-0.627674,0.0,0.0,0.0,0,0
2026-06-16 16:11:24.385,2297775,L_Ankle,0.1834,-0.1688,0.9501,5.41,-0.74,-10.32,33.69,9.56,-10.82,-0.367901,-0.077822,0.109409,-0.920103,0.0,0.0,0.0,0,0
2026-06-16 16:11:24.385,2297553,R_Hip,-0.1437,-0.6852,-0.0115,0.7,-1.55,2.01,0.0,0.0,0.0,0.422498,-0.309275,0.576037,-0.627674,0.0,0.0,0.0,0,0
2026-06-16 16:11:24.387,2297644,L_Hip,-0.1972,0.8896,0.3819,-4.11,4.54,3.09,36.97,-4.03,-19.6,0.721335,0.39845,0.35078,0.444716,0.0,0.0,0.0,0,0
2026-06-16 16:11:24.387,2297573,R_Hip,-0.1294,-0.676,-0.0173,1.45,-1.7,2.12,-31.4,10.95,-15.87,0.422926,-0.308847,0.575701,-0.627918,0.0,0.0,0.0,0,0
2026-06-16 16:11:24.389,2297664,L_Hip,-0.1918,0.8842,0.4076,-4.11,4.52,3.14,36.28,-5.66,-20.46,0.721488,0.398419,0.35078,0.444533,0.0,0.0,0.0,0,0
2026-06-16 16:11:24.390,2297515,R_Shank,0.0149,2.5544,1.1493,-1.95,-1.32,-6.41,-24.14,-18.97,-10.78,0.908933,0.031831,-0.024354,-0.41496,0.0,0.0,0.0,0,0
2026-06-16 16:11:24.392,2297684,L_Hip,-0.2007,0.8887,0.3935,-4.12,4.52,3.16,0.0,0.0,0.0,0.721641,0.398389,0.350749,0.444349,0.0,0.0,0.0,0,0
2026-06-16 16:11:24.393,2297535,R_Shank,-0.0046,1.0332,1.0878,-2.04,-0.87,-7.3,0.0,0.0,0.0,0.909635,0.031495,-0.024415,-0.413465,0.0,0.0,0.0,0,0
2026-06-16 16:11:24.394,2297704,L_Hip,-0.1953,0.8965,0.3911,-4.13,4.54,3.16,35.81,-2.93,-19.15,0.721763,0.398358,0.350719,0.444197,0.0,0.0,0.0,0,0
2026-06-16 16:11:24.395,2297555,R_Shank,-0.0223,-1.5176,1.0076,-2.05,-0.53,-8.15,-23.67,-17.16,-10.32,0.909848,0.031098,-0.023682,-0.413007,0.0,0.0,0.0,0,0
2026-06-16 16:11:24.396,2297656,L_Ankle,0.1996,-0.1664,0.9626,5.44,-0.79,-10.29,34.58,9.01,-10.64,-0.367901,-0.077639,0.109378,-0.920103,0.0,0.0,0.0,0,0
2026-06-16 16:11:24.398,2297575,R_Shank,-0.0238,2.7508,0.9081,-1.93,-0.46,-9.29,-22.96,-18.5,-11.25,0.909726,0.030427,-0.022553,-0.413434,0.0,0.0,0.0,0,0
2026-06-16 16:11:24.398,2297676,L_Ankle,0.1879,-0.1674,0.9582,5.43,-0.8,-10.3,0.0,0.0,0.0,-0.367901,-0.077486,0.109287,-0.920133,0.0,0.0,0.0,0,0
2026-06-16 16:11:24.400,2297696,L_Ankle,0.1996,-0.163,0.9539,5.42,-0.83,-10.29,33.65,10.97,-11.5,-0.367901,-0.077334,0.109226,-0.920164,0.0,0.0,0.0,0,0
2026-06-16 16:11:24.402,2297716,L_Ankle,0.1893,-0.1664,0.951,5.43,-0.87,-10.28,35.1,9.18,-10.46,-0.367901,-0.077151,0.109134,-0.920194,0.0,0.0,0.0,0,0
2026-06-16 16:11:24.404,2297661,L_Shank,0.058,-0.1237,0.9772,1.72,-1.38,-0.36,34.52,7.43,-15.65,0.517747,0.008423,-0.064241,0.853053,0.0,0.0,0.0,0,0
2026-06-16 16:11:24.404,2297537,R_Hip,-0.1121,-0.6735,-0.0033,2.48,-1.72,2.07,-31.22,12.6,-17.41,0.423505,-0.308267,0.574969,-0.628468,0.0,0.0,0.0,0,0
2026-06-16 16:11:24.406,2297681,L_Shank,0.0585,-0.13,0.9676,1.72,-1.36,-0.35,0.0,0.0,0.0,0.517685,0.008484,-0.064211,0.853084,0.0,0.0,0.0,0,0
2026-06-16 16:11:24.407,2297557,R_Hip,-0.1027,-0.6984,0.023,3.04,-1.64,1.87,-32.13,10.96,-16.55,0.424177,-0.307505,0.573962,-0.629292,0.0,0.0,0.0,0,0
2026-06-16 16:11:24.409,2297701,L_Shank,0.0624,-0.1281,0.9825,1.74,-1.32,-0.3,35.04,6.57,-15.17,0.517624,0.008515,-0.064241,0.853114,0.0,0.0,0.0,0,0
2026-06-16 16:11:24.410,2297577,R_Hip,-0.1027,-0.7111,0.0182,3.29,-1.61,1.7,-31.77,10.96,-16.89,0.424818,-0.306681,0.572619,-0.630512,0.0,0.0,0.0,0,0
2026-06-16 16:11:24.412,2297721,L_Shank,0.0575,-0.1276,0.9758,1.77,-1.25,-0.2,34.0,7.94,-16.11,0.517563,0.008576,-0.064364,0.853145,0.0,0.0,0.0,0,0
2026-06-16 16:11:24.413,2297597,R_Hip,-0.085,-0.7306,0.0221,3.8,-1.54,1.32,0.0,0.0,0.0,0.425336,-0.305826,0.571001,-0.632038,0.0,0.0,0.0,0,0
2026-06-16 16:11:24.414,2297679,L_Ankle,0.1952,-0.1713,0.9621,5.41,-0.93,-10.3,34.18,9.72,-12.68,-0.367901,-0.077029,0.109043,-0.920225,0.0,0.0,0.0,0,0
2026-06-16 16:11:24.416,2297699,L_Ankle,0.1888,-0.163,0.9568,5.41,-0.92,-10.32,0.0,0.0,0.0,-0.367901,-0.076876,0.108982,-0.920225,0.0,0.0,0.0,0,0
2026-06-16 16:11:24.417,2297550,R_Ankle,0.1169,-0.2276,1.1365,1.85,-2.58,2.1,-31.72,-12.2,-13.4,0.831843,0.084597,-0.090182,0.541002,0.0,0.0,0.0,0,0
2026-06-16 16:11:24.419,2297719,L_Ankle,0.1928,-0.1635,0.9554,5.41,-0.93,-10.32,34.74,9.9,-10.46,-0.367931,-0.076754,0.108951,-0.920225,0.0,0.0,0.0,0,0
2026-06-16 16:11:24.419,2297570,R_Ankle,0.1355,-0.1875,1.1111,1.69,-2.67,2.36,-33.6,-12.37,-13.88,0.830775,0.08475,-0.09067,0.542528,0.0,0.0,0.0,0,0
2026-06-16 16:11:24.421,2297739,L_Ankle,0.1898,-0.1698,0.9621,5.4,-0.97,-10.32,33.86,9.38,-11.33,-0.367962,-0.076662,0.108921,-0.920225,0.0,0.0,0.0,0,0
2026-06-16 16:11:24.421,2297590,R_Ankle,0.1012,-0.1241,1.1063,1.58,-2.25,2.64,0.0,0.0,0.0,0.829524,0.084902,-0.091372,0.544328,0.0,0.0,0.0,0,0
2026-06-16 16:11:24.424,2297610,R_Ankle,-0.0006,0.0542,1.1681,1.58,-1.68,2.29,-33.78,-11.57,-14.66,0.828333,0.084994,-0.09125,0.546129,0.0,0.0,0.0,0,0
2026-06-16 16:11:24.424,2297689,L_Hip,-0.2007,0.8965,0.3809,-4.13,4.55,3.16,36.97,-4.03,-19.6,0.721854,0.398358,0.350719,0.444044,0.0,0.0,0.0,0,0
2026-06-16 16:11:24.426,2297709,L_Hip,-0.1825,0.8951,0.3858,-4.12,4.58,3.22,36.62,-4.37,-19.01,0.721976,0.398297,0.350749,0.443892,0.0,0.0,0.0,0,0
2026-06-16 16:11:24.428,2297729,L_Hip,-0.1953,0.9005,0.3829,-4.11,4.61,3.25,0.0,0.0,0.0,0.722068,0.398206,0.35078,0.44377,0.0,0.0,0.0,0,0
2026-06-16 16:11:24.429,2297749,L_Hip,-0.1879,0.8951,0.3969,-4.11,4.68,3.32,36.95,-4.68,-19.02,0.722159,0.398114,0.350841,0.443678,0.0,0.0,0.0,0,0
2026-06-16 16:11:24.436,2297701,L_Ankle,0.2001,-0.1674,0.9573,5.41,-1.03,-10.32,34.39,9.55,-10.81,-0.367962,-0.076571,0.10889,-0.920225,0.0,0.0,0.0,0,0
2026-06-16 16:11:24.438,2297702,L_Ankle,0.1952,-0.1635,0.9592,5.38,-1.03,-10.32,0.0,0.0,0.0,-0.367992,-0.07654,0.108829,-0.920255,0.0,0.0,0.0,0,0
2026-06-16 16:11:24.440,2297722,L_Ankle,0.1981,-0.1625,0.9405,5.36,-1.04,-10.34,34.37,10.61,-11.15,-0.367962,-0.07651,0.108798,-0.920255,0.0,0.0,0.0,0,0
2026-06-16 16:11:24.442,2297742,L_Ankle,0.2021,-0.1718,0.9251,5.33,-1.06,-10.31,34.37,9.54,-11.83,-0.367962,-0.07651,0.108798,-0.920255,0.0,0.0,0.0,0,0
2026-06-16 16:11:24.446,2297711,L_Shank,0.0546,-0.1232,0.9585,1.8,-1.18,-0.16,33.31,7.61,-17.04,0.517441,0.008667,-0.064516,0.853206,0.0,0.0,0.0,0,0
2026-06-16 16:11:24.448,2297712,L_Shank,0.0394,-0.1193,0.9782,1.8,-1.18,-0.19,0.0,0.0,0.0,0.517258,0.008667,-0.064669,0.853328,0.0,0.0,0.0,0,0
2026-06-16 16:11:24.449,2297582,R_Shank,-0.0046,0.8276,0.777,-1.57,-0.93,-10.29,-23.65,-17.5,-11.53,0.909391,0.029542,-0.021485,-0.414289,0.0,0.0,0.0,0,0
2026-06-16 16:11:24.450,2297732,L_Shank,0.037,-0.111,0.9542,1.81,-1.18,-0.2,35.22,8.45,-16.29,0.517045,0.008698,-0.06473,0.85345,0.0,0.0,0.0,0,0
2026-06-16 16:11:24.452,2297602,R_Shank,-0.0096,-1.232,0.7299,-1.41,-0.98,-10.32,0.0,0.0,0.0,0.908902,0.028687,-0.0206,-0.415418,0.0,0.0,0.0,0,0
2026-06-16 16:11:24.452,2297752,L_Shank,0.0492,-0.1129,0.9628,1.8,-1.17,-0.25,33.65,8.28,-16.43,0.516892,0.008759,-0.064821,0.853511,0.0,0.0,0.0,0,0
2026-06-16 16:11:24.454,2297622,R_Shank,-0.0208,2.6212,0.6977,-1.21,-1.11,-10.21,-23.46,-18.99,-11.09,0.908414,0.028047,-0.019959,-0.416608,0.0,0.0,0.0,0,0
2026-06-16 16:11:24.456,2297642,R_Shank,-0.0326,-3.032,0.6352,-0.69,-1.53,-9.73,-22.31,-17.85,-10.64,0.908017,0.02768,-0.019715,-0.417524,0.0,0.0,0.0,0,0
2026-06-16 16:11:24.457,2297587,R_Hip,-0.0712,-0.9391,-0.0106,4.42,-1.56,0.63,-30.49,12.6,-16.38,0.425733,-0.305063,0.569079,-0.633869,0.0,0.0,0.0,0,0
2026-06-16 16:11:24.459,2297607,R_Hip,-0.0628,-1.1759,-0.0669,4.8,-1.68,0.59,-32.5,11.69,-17.24,0.425947,-0.304453,0.566973,-0.635914,0.0,0.0,0.0,0,0
2026-06-16 16:11:24.461,2297627,R_Hip,-0.3972,-1.9277,-0.18,4.83,-1.85,-0.66,0.0,0.0,0.0,0.425733,-0.304361,0.56502,-0.637806,0.0,0.0,0.0,0,0
2026-06-16 16:11:24.463,2297647,R_Hip,0.1916,-2.0155,0.4259,2.12,-5.8,-6.46,-31.59,11.51,-16.72,0.423963,-0.308084,0.562212,-0.639698,0.0,0.0,0.0,0,0
2026-06-16 16:11:24.465,2297595,R_Ankle,0.0464,0.0205,1.1198,0.12,-1.78,0.45,-31.88,-11.1,-12.95,0.827754,0.084994,-0.090335,0.547197,0.0,0.0,0.0,0,0
2026-06-16 16:11:24.466,2297615,R_Ankle,0.0214,0.0913,1.1365,0.35,-1.5,0.03,-32.05,-10.3,-13.43,0.827448,0.084536,-0.089969,0.547746,0.0,0.0,0.0,0,0
2026-06-16 16:11:24.468,2297635,R_Ankle,0.0003,0.0849,1.1236,-0.07,-1.54,-0.12,0.0,0.0,0.0,0.827387,0.08417,-0.089602,0.54796,0.0,0.0,0.0,0,0
2026-06-16 16:11:24.470,2297735,L_Hip,-0.1845,0.9005,0.3819,-4.2,4.82,3.35,37.14,-3.23,-18.59,0.722251,0.397992,0.350902,0.443587,0.0,0.0,0.0,0,0
2026-06-16 16:11:24.471,2297655,R_Ankle,0.0395,0.0408,0.9018,0.68,-1.37,-0.42,-32.4,-11.25,-13.73,0.827387,0.083956,-0.089236,0.548051,0.0,0.0,0.0,0,0
2026-06-16 16:11:24.473,2297755,L_Hip,-0.186,0.9024,0.3896,-4.21,4.85,3.33,36.97,-3.71,-19.02,0.722282,0.397931,0.350963,0.443556,0.0,0.0,0.0,0,0
2026-06-16 16:11:24.474,2297605,R_Shank,-0.0336,1.0868,0.6002,0.7,-1.77,-9.08,-23.82,-17.98,-10.78,0.907743,0.027619,-0.019776,-0.418134,0.0,0.0,0.0,0,0
2026-06-16 16:11:24.475,2297775,L_Hip,-0.1815,0.8965,0.4047,-4.21,4.87,3.3,36.14,-3.89,-20.02,0.722312,0.397839,0.351024,0.443525,0.0,0.0,0.0,0,0
2026-06-16 16:11:24.476,2297625,R_Shank,-0.015,1.3392,0.605,1.06,-1.85,-9.01,0.0,0.0,0.0,0.907498,0.027985,-0.020051,-0.418561,0.0,0.0,0.0,0,0
2026-06-16 16:11:24.477,2297795,L_Hip,-0.1845,0.8916,0.4047,-4.19,4.89,3.25,0.0,0.0,0.0,0.722312,0.397809,0.351054,0.443525,0.0,0.0,0.0,0,0
2026-06-16 16:11:24.478,2297645,R_Shank,0.0021,-1.4908,0.5992,1.39,-1.96,-8.96,-22.8,-18.01,-11.39,0.907315,0.028718,-0.020692,-0.418897,0.0,0.0,0.0,0,0
2026-06-16 16:11:24.480,2297665,R_Shank,0.0168,1.3256,0.6482,2.07,-2.48,-9.1,-22.11,-19.34,-10.81,0.907102,0.029756,-0.02179,-0.419233,0.0,0.0,0.0,0,0
2026-06-16 16:11:24.482,2297747,L_Ankle,0.1962,-0.1639,0.9438,5.33,-1.12,-10.25,33.34,9.56,-10.49,-0.367962,-0.07654,0.108768,-0.920255,0.0,0.0,0.0,0,0
2026-06-16 16:11:24.482,2297612,R_Hip,-0.4445,-1.4126,0.4235,-3.32,3.03,-3.96,-32.32,10.41,-17.75,0.420606,-0.313089,0.559526,-0.641835,0.0,0.0,0.0,0,0
2026-06-16 16:11:24.484,2297767,L_Ankle,0.1952,-0.1683,0.9611,5.35,-1.15,-10.23,0.0,0.0,0.0,-0.367962,-0.07654,0.108768,-0.920255,0.0,0.0,0.0,0,0
2026-06-16 16:11:24.485,2297632,R_Hip,-0.6043,-0.8009,-0.0717,-2.57,6.57,3.48,-32.13,11.32,-16.89,0.416517,-0.311869,0.561113,-0.643696,0.0,0.0,0.0,0,0
2026-06-16 16:11:24.487,2297787,L_Ankle,0.1957,-0.1742,0.9726,5.34,-1.16,-10.22,35.78,9.52,-11.12,-0.367962,-0.076571,0.108768,-0.920255,0.0,0.0,0.0,0,0
2026-06-16 16:11:24.488,2297652,R_Hip,-0.5323,-0.5681,-0.1699,-2.11,4.83,5.93,-31.22,12.23,-16.04,0.415296,-0.307077,0.565783,-0.642689,0.0,0.0,0.0,0,0
2026-06-16 16:11:24.489,2297807,L_Ankle,0.1986,-0.1674,0.9568,5.36,-1.17,-10.2,33.88,9.38,-10.31,-0.367992,-0.076632,0.108798,-0.920225,0.0,0.0,0.0,0,0
2026-06-16 16:11:24.490,2297672,R_Hip,-0.3503,-0.4226,-0.1992,-1.74,0.13,9.56,0.0,0.0,0.0,0.417493,-0.302805,0.569964,-0.639607,0.0,0.0,0.0,0,0
2026-06-16 16:11:24.491,2297617,R_Ankle,0.0929,0.0572,0.8065,0.22,-0.99,-0.74,-31.89,-10.76,-14.5,0.827631,0.083804,-0.088595,0.547807,0.0,0.0,0.0,0,0
2026-06-16 16:11:24.493,2297637,R_Ankle,0.1086,0.079,0.7739,0.25,-1.03,-0.64,-31.05,-11.23,-14.64,0.827845,0.08359,-0.088168,0.547594,0.0,0.0,0.0,0,0
2026-06-16 16:11:24.495,2297657,R_Ankle,0.1331,0.0913,0.7318,0.37,-1.25,-0.27,0.0,0.0,0.0,0.827937,0.08356,-0.087924,0.547502,0.0,0.0,0.0,0,0
2026-06-16 16:11:24.497,2297761,L_Shank,0.0438,-0.1066,0.9801,1.8,-1.11,-0.25,35.39,7.93,-15.5,0.516861,0.008881,-0.064943,0.853542,0.0,0.0,0.0,0,0
2026-06-16 16:11:24.498,2297677,R_Ankle,0.1796,0.1671,0.6638,0.45,-1.33,-0.09,-31.9,-11.07,-15.11,0.827845,0.083956,-0.087863,0.547594,0.0,0.0,0.0,0,0
2026-06-16 16:11:24.499,2297781,L_Shank,0.0448,-0.1012,0.9714,1.8,-1.1,-0.24,0.0,0.0,0.0,0.516923,0.009003,-0.065096,0.853481,0.0,0.0,0.0,0,0
2026-06-16 16:11:24.500,2297801,L_Shank,0.0448,-0.1134,0.9729,1.8,-1.1,-0.24,34.69,8.6,-14.88,0.516984,0.009125,-0.065249,0.85342,0.0,0.0,0.0,0,0
2026-06-16 16:11:24.503,2297762,L_Shank,0.0438,-0.1017,0.9834,1.8,-1.07,-0.26,35.06,9.31,-17.08,0.517014,0.009247,-0.065401,0.853389,0.0,0.0,0.0,0,0
2026-06-16 16:11:24.505,2297769,L_Ankle,0.2089,-0.1654,0.9525,5.35,-1.16,-10.25,33.29,9.91,-13.21,-0.367992,-0.076724,0.108829,-0.920225,0.0,0.0,0.0,0,0
2026-06-16 16:11:24.505,2297638,R_Hip,0.0565,-0.5119,-0.076,0.73,-4.67,8.0,-31.4,11.32,-16.89,0.421369,-0.300272,0.572314,-0.636158,0.0,0.0,0.0,0,0
2026-06-16 16:11:24.507,2297789,L_Ankle,0.2026,-0.1683,0.9611,5.35,-1.14,-10.29,0.0,0.0,0.0,-0.367992,-0.076815,0.10886,-0.920225,0.0,0.0,0.0,0,0
2026-06-16 16:11:24.508,2297658,R_Hip,0.0121,-0.8097,0.0279,0.69,-4.74,4.64,-31.41,10.96,-17.92,0.42497,-0.2996,0.572436,-0.633961,0.0,0.0,0.0,0,0
2026-06-16 16:11:24.510,2297809,L_Ankle,0.2075,-0.181,0.9616,5.34,-1.12,-10.29,32.31,9.23,-9.83,-0.367992,-0.076937,0.10889,-0.920194,0.0,0.0,0.0,0,0
2026-06-16 16:11:24.510,2297678,R_Hip,0.087,-1.0084,0.1164,0.86,-4.23,3.02,0.0,0.0,0.0,0.426801,-0.300333,0.57149,-0.633229,0.0,0.0,0.0,0,0
2026-06-16 16:11:24.512,2297829,L_Ankle,0.205,-0.1771,0.9688,5.35,-1.09,-10.33,34.7,10.24,-12.5,-0.367992,-0.077059,0.108982,-0.920164,0.0,0.0,0.0,0,0
2026-06-16 16:11:24.513,2297698,R_Hip,0.0688,-1.0514,0.1029,1.28,-3.31,0.17,-31.22,12.6,-16.73,0.426923,-0.301859,0.569842,-0.6339,0.0,0.0,0.0,0,0
2026-06-16 16:11:24.514,2297779,L_Hip,-0.1855,0.9024,0.4056,-4.13,4.82,3.25,36.63,-4.04,-19.3,0.722312,0.397778,0.351085,0.443525,0.0,0.0,0.0,0,0
2026-06-16 16:11:24.516,2297799,L_Hip,-0.1766,0.9024,0.3921,-4.12,4.72,3.27,36.8,-4.52,-19.74,0.722282,0.397778,0.351115,0.443556,0.0,0.0,0.0,0,0
2026-06-16 16:11:24.517,2297650,R_Shank,-0.011,0.0304,0.6804,2.68,-2.97,-9.58,-22.79,-19.0,-10.8,0.906827,0.031007,-0.023347,-0.419691,0.0,0.0,0.0,0,0
2026-06-16 16:11:24.519,2297819,L_Hip,-0.1703,0.9039,0.4051,-4.12,4.68,3.26,0.0,0.0,0.0,0.722221,0.397809,0.351115,0.443617,0.0,0.0,0.0,0,0
2026-06-16 16:11:24.519,2297670,R_Shank,-0.0091,-2.2884,0.7448,3.2,-3.17,-9.84,0.0,0.0,0.0,0.9064,0.032502,-0.025178,-0.420331,0.0,0.0,0.0,0,0
2026-06-16 16:11:24.521,2297839,L_Hip,-0.1629,0.8965,0.4022,-4.09,4.58,3.23,36.45,-5.49,-20.6,0.72219,0.397809,0.351054,0.443709,0.0,0.0,0.0,0,0
2026-06-16 16:11:24.522,2297690,R_Shank,-0.0321,-2.1588,0.8053,3.47,-3.2,-9.96,-22.46,-18.67,-10.8,0.905911,0.034333,-0.027253,-0.421155,0.0,0.0,0.0,0,0
2026-06-16 16:11:24.524,2297710,R_Shank,-0.1269,1.2992,0.9629,3.72,-3.1,-10.19,-23.64,-17.83,-11.53,0.905271,0.036531,-0.029481,-0.422163,0.0,0.0,0.0,0,0
2026-06-16 16:11:24.529,2297662,R_Hip,-0.0278,-1.0548,0.0919,1.86,-2.51,-1.35,-30.31,12.42,-16.89,0.42616,-0.303659,0.567888,-0.635304,0.0,0.0,0.0,0,0
2026-06-16 16:11:24.531,2297682,R_Hip,-0.1338,-1.0426,0.1222,1.61,-1.23,-1.38,-31.77,12.05,-16.9,0.425062,-0.305063,0.566057,-0.636982,0.0,0.0,0.0,0,0
2026-06-16 16:11:24.533,2297702,R_Hip,-0.1861,-1.0538,0.1097,1.16,-0.65,-0.93,-31.59,12.24,-17.75,0.423719,-0.305643,0.564959,-0.638569,0.0,0.0,0.0,0,0
2026-06-16 16:11:24.535,2297722,R_Hip,-0.2285,-1.0719,0.1414,0.08,-0.06,0.23,0.0,0.0,0.0,0.422559,-0.30549,0.564928,-0.639454,0.0,0.0,0.0,0,0
2026-06-16 16:11:24.536,2297801,L_Hip,-0.1673,0.9009,0.3877,-4.11,4.47,3.09,35.96,-3.73,-19.0,0.722129,0.397839,0.351054,0.4438,0.0,0.0,0.0,0,0
2026-06-16 16:11:24.539,2297821,L_Hip,-0.1619,0.899,0.3935,-4.09,4.41,3.03,36.95,-5.32,-19.89,0.722068,0.39787,0.351054,0.443892,0.0,0.0,0.0,0,0
2026-06-16 16:11:24.540,2297672,R_Shank,0.2922,3.1624,1.9313,-2.47,-4.2,-16.19,-22.64,-18.49,-9.44,0.90408,0.039155,-0.030793,-0.424421,0.0,0.0,0.0,0,0
2026-06-16 16:11:24.541,2297841,L_Hip,-0.159,0.899,0.3935,-4.09,4.41,3.0,36.3,-4.37,-20.17,0.721976,0.397931,0.351054,0.443983,0.0,0.0,0.0,0,0
2026-06-16 16:11:24.542,2297692,R_Shank,0.9019,-0.1152,1.9313,-5.12,-6.53,-14.96,0.0,0.0,0.0,0.901822,0.039888,-0.031526,-0.42906,0.0,0.0,0.0,0,0
2026-06-16 16:11:24.544,2297802,L_Hip,-0.1712,0.9,0.3843,-4.09,4.38,2.98,0.0,0.0,0.0,0.721824,0.397992,0.351054,0.444166,0.0,0.0,0.0,0,0
2026-06-16 16:11:24.545,2297712,R_Shank,0.6491,-0.9085,1.9313,-4.29,-3.87,-12.73,-22.61,-19.5,-10.96,0.900266,0.0347,-0.03412,-0.432539,0.0,0.0,0.0,0,0
2026-06-16 16:11:24.547,2297732,R_Shank,-0.4784,1.2672,0.6156,-0.06,5.24,-9.42,-21.76,-19.36,-12.02,0.900021,0.032533,-0.030183,-0.433546,0.0,0.0,0.0,0,0
2026-06-16 16:11:24.549,2297814,L_Ankle,0.2089,-0.1757,0.9659,5.38,-1.01,-10.35,34.39,9.55,-10.81,-0.367992,-0.077181,0.109104,-0.920164,0.0,0.0,0.0,0,0
2026-06-16 16:11:24.551,2297834,L_Ankle,0.2163,-0.1693,0.9424,5.4,-0.98,-10.35,34.41,8.48,-10.47,-0.367962,-0.077303,0.109195,-0.920133,0.0,0.0,0.0,0,0
2026-06-16 16:11:24.553,2297685,R_Ankle,0.1934,0.2241,0.6523,0.89,-1.52,-0.38,-30.87,-11.39,-13.86,0.827662,0.084811,-0.087802,0.547746,0.0,0.0,0.0,0,0
2026-06-16 16:11:24.554,2297854,L_Ankle,0.2099,-0.1649,0.9414,5.44,-0.91,-10.33,0.0,0.0,0.0,-0.36787,-0.077486,0.109317,-0.920133,0.0,0.0,0.0,0,0
2026-06-16 16:11:24.555,2297705,R_Ankle,0.185,0.2063,0.6671,0.94,-1.57,-0.6,-32.07,-11.56,-14.03,0.82757,0.086001,-0.08768,0.547746,0.0,0.0,0.0,0,0
2026-06-16 16:11:24.556,2297874,L_Ankle,0.205,-0.1713,0.9534,5.45,-0.9,-10.32,33.33,9.56,-11.51,-0.367809,-0.07767,0.109439,-0.920164,0.0,0.0,0.0,0,0
2026-06-16 16:11:24.558,2297725,R_Ankle,0.1659,0.1746,0.6542,1.06,-1.71,-0.87,0.0,0.0,0.0,0.827601,0.087283,-0.087497,0.547502,0.0,0.0,0.0,0,0
2026-06-16 16:11:24.561,2297745,R_Ankle,0.1497,0.1557,0.6614,1.09,-1.78,-0.88,-31.56,-11.39,-14.8,0.827692,0.088473,-0.087374,0.547166,0.0,0.0,0.0,0,0
2026-06-16 16:11:24.579,2297712,R_Hip,-0.2196,-0.9894,0.0957,-0.51,-0.26,1.77,-31.22,11.51,-17.06,0.421735,-0.304971,0.565508,-0.63976,0.0,0.0,0.0,0,0
2026-06-16 16:11:24.583,2297846,L_Hip,-0.1639,0.9024,0.3969,-4.07,4.38,2.98,34.94,-4.72,-19.86,0.721671,0.398022,0.351054,0.44438,0.0,0.0,0.0,0,0
2026-06-16 16:11:24.583,2297732,R_Hip,-0.195,-0.9557,0.0577,-0.35,-0.85,2.37,-31.4,11.69,-17.24,0.4214,-0.3043,0.56624,-0.639637,0.0,0.0,0.0,0,0
2026-06-16 16:11:24.586,2297752,R_Hip,-0.1654,-0.9362,0.0394,-0.26,-1.23,2.5,0.0,0.0,0.0,0.421461,-0.303842,0.566912,-0.639241,0.0,0.0,0.0,0,0
2026-06-16 16:11:24.586,2297866,L_Hip,-0.1722,0.9014,0.3863,-4.05,4.43,2.93,35.63,-3.74,-19.87,0.721519,0.398022,0.351085,0.444624,0.0,0.0,0.0,0,0
2026-06-16 16:11:24.590,2297847,L_Hip,-0.1776,0.8936,0.3901,-4.05,4.44,2.9,36.63,-4.04,-19.3,0.721305,0.397992,0.351115,0.444929,0.0,0.0,0.0,0,0
2026-06-16 16:11:24.590,2297772,R_Hip,-0.1146,-0.9494,0.023,0.0,-2.01,2.36,-30.85,11.5,-15.7,0.421796,-0.303781,0.567186,-0.638783,0.0,0.0,0.0,0,0
2026-06-16 16:11:24.593,2297867,L_Hip,-0.1693,0.9049,0.3858,-4.03,4.49,2.85,0.0,0.0,0.0,0.721152,0.397931,0.351146,0.445204,0.0,0.0,0.0,0,0
2026-06-16 16:11:24.594,2297718,R_Shank,0.0168,2.2328,0.7294,1.9,-3.92,-5.01,-23.25,-20.49,-12.16,0.900418,0.032991,-0.025605,-0.432997,0.0,0.0,0.0,0,0
2026-06-16 16:11:24.597,2297859,L_Ankle,0.2055,-0.1669,0.9534,5.48,-0.81,-10.33,34.24,8.31,-10.31,-0.367718,-0.077853,0.109531,-0.920164,0.0,0.0,0.0,0,0
2026-06-16 16:11:24.598,2297738,R_Shank,0.0527,1.6744,0.8101,2.16,-2.83,-4.34,-23.12,-18.66,-11.4,0.901273,0.032929,-0.026337,-0.431166,0.0,0.0,0.0,0,0
2026-06-16 16:11:24.601,2297879,L_Ankle,0.2138,-0.1683,0.9558,5.48,-0.8,-10.32,34.91,9.36,-10.97,-0.367656,-0.078066,0.109622,-0.920133,0.0,0.0,0.0,0,0
2026-06-16 16:11:24.603,2297758,R_Shank,0.0399,0.864,0.7981,2.33,-1.41,-3.86,-23.47,-18.98,-9.89,0.902493,0.034394,-0.027863,-0.428388,0.0,0.0,0.0,0,0
2026-06-16 16:11:24.605,2297899,L_Ankle,0.2011,-0.1659,0.9611,5.48,-0.8,-10.32,0.0,0.0,0.0,-0.367656,-0.078249,0.109714,-0.920133,0.0,0.0,0.0,0,0
2026-06-16 16:11:24.606,2297778,R_Shank,0.035,-2.2456,0.7054,1.54,-0.73,-4.21,0.0,0.0,0.0,0.903714,0.036927,-0.028779,-0.425489,0.0,0.0,0.0,0,0
2026-06-16 16:11:24.609,2297919,L_Ankle,0.204,-0.1659,0.9544,5.48,-0.76,-10.34,33.36,9.92,-9.47,-0.367656,-0.078402,0.109836,-0.920103,0.0,0.0,0.0,0,0
2026-06-16 16:11:24.610,2297737,R_Hip,-0.1047,-0.9913,0.0226,0.19,-2.41,1.9,-30.86,11.87,-16.38,0.422132,-0.304117,0.567186,-0.638417,0.0,0.0,0.0,0,0
2026-06-16 16:11:24.612,2297861,L_Shank,0.0394,-0.1154,0.9748,1.77,-0.98,-0.3,35.05,7.94,-16.12,0.517014,0.009339,-0.065523,0.853389,0.0,0.0,0.0,0,0
2026-06-16 16:11:24.615,2297757,R_Hip,-0.1279,-1.0441,0.0394,0.2,-2.25,1.59,-31.04,11.32,-16.21,0.422315,-0.304605,0.567034,-0.638173,0.0,0.0,0.0,0,0
2026-06-16 16:11:24.617,2297881,L_Shank,0.0379,-0.1188,0.9791,1.77,-0.98,-0.27,35.41,7.62,-17.37,0.517045,0.009339,-0.065462,0.853359,0.0,0.0,0.0,0,0
2026-06-16 16:11:24.618,2297777,R_Hip,-0.122,-1.0514,0.0485,0.19,-2.09,1.48,-31.22,11.51,-17.41,0.422346,-0.305094,0.566912,-0.63805,0.0,0.0,0.0,0,0
2026-06-16 16:11:24.621,2297901,L_Shank,0.034,-0.1056,0.9844,1.76,-0.98,-0.27,0.0,0.0,0.0,0.517075,0.009339,-0.065401,0.853359,0.0,0.0,0.0,0,0
2026-06-16 16:11:24.622,2297797,R_Hip,-0.1624,-1.0367,0.0813,0.16,-1.58,1.29,0.0,0.0,0.0,0.422132,-0.305399,0.566851,-0.638112,0.0,0.0,0.0,0,0
2026-06-16 16:11:24.625,2297921,L_Shank,0.0282,-0.1051,0.9897,1.77,-0.97,-0.25,35.06,8.97,-16.76,0.517106,0.009308,-0.06534,0.853359,0.0,0.0,0.0,0,0
2026-06-16 16:11:24.626,2297740,R_Shank,0.0787,1.1628,0.7626,-1.0,-2.22,-9.37,-21.43,-19.68,-10.82,0.904355,0.038362,-0.03,-0.423963,0.0,0.0,0.0,0,0
2026-06-16 16:11:24.629,2297886,L_Shank,0.0252,-0.1012,0.9676,1.77,-1.03,-0.34,34.88,7.77,-16.28,0.517167,0.009308,-0.065218,0.853328,0.0,0.0,0.0,0,0
2026-06-16 16:11:24.630,2297760,R_Shank,0.0168,1.1964,0.9355,-1.26,-2.0,-10.34,-22.96,-18.5,-11.25,0.904202,0.03824,-0.030946,-0.424177,0.0,0.0,0.0,0,0
2026-06-16 16:11:24.633,2297906,L_Shank,0.0111,-0.1012,0.969,1.77,-1.08,-0.39,35.39,8.28,-15.82,0.517258,0.009247,-0.065157,0.853267,0.0,0.0,0.0,0,0
2026-06-16 16:11:24.633,2297780,R_Shank,-0.0027,0.4324,1.0465,-1.34,-1.86,-11.1,0.0,0.0,0.0,0.903562,0.037477,-0.031037,-0.425642,0.0,0.0,0.0,0,0
2026-06-16 16:11:24.637,2297926,L_Shank,0.0194,-0.1256,0.9743,1.77,-1.07,-0.41,34.35,8.28,-15.81,0.51738,0.009217,-0.065065,0.853206,0.0,0.0,0.0,0,0
2026-06-16 16:11:24.638,2297800,R_Shank,-0.0307,-0.4544,1.2679,-0.99,-1.48,-11.91,-23.31,-17.83,-11.24,0.902585,0.036744,-0.030641,-0.427808,0.0,0.0,0.0,0,0
2026-06-16 16:11:24.640,2297946,L_Shank,0.013,-0.1139,0.9863,1.77,-1.09,-0.41,0.0,0.0,0.0,0.517533,0.009186,-0.065004,0.853114,0.0,0.0,0.0,0,0
2026-06-16 16:11:24.642,2297752,R_Ankle,0.2762,-1.9388,2.0159,-5.43,-2.5,-2.35,-31.22,-12.03,-14.17,0.830775,0.090579,-0.082766,0.542894,0.0,0.0,0.0,0,0
2026-06-16 16:11:24.645,2297891,L_Hip,-0.1722,0.9044,0.3867,-4.05,4.51,2.81,35.24,-5.36,-18.7,0.72103,0.397809,0.351207,0.445479,0.0,0.0,0.0,0,0
2026-06-16 16:11:24.647,2297772,R_Ankle,0.3962,-1.2437,1.5738,-1.85,-2.67,-1.13,-31.05,-11.87,-14.01,0.831996,0.081088,-0.087649,0.541734,0.0,0.0,0.0,0,0
2026-06-16 16:11:24.649,2297911,L_Hip,-0.183,0.9054,0.3834,-4.09,4.53,2.8,37.14,-5.48,-21.2,0.720878,0.397778,0.351268,0.445723,0.0,0.0,0.0,0,0
2026-06-16 16:11:24.650,2297792,R_Ankle,0.0865,-0.2202,0.7964,3.35,-1.47,0.06,0.0,0.0,0.0,0.831629,0.076754,-0.091556,0.542283,0.0,0.0,0.0,0,0
2026-06-16 16:11:24.652,2297931,L_Hip,-0.1943,0.9029,0.3848,-4.12,4.51,2.8,36.11,-5.5,-20.02,0.720725,0.397778,0.351268,0.445967,0.0,0.0,0.0,0,0
2026-06-16 16:11:24.653,2297812,R_Ankle,0.0424,0.5669,0.6743,4.55,-1.21,0.44,-29.85,-10.43,-14.48,0.831111,0.080172,-0.088717,0.543046,0.0,0.0,0.0,0,0
2026-06-16 16:11:24.655,2297951,L_Hip,-0.1835,0.9009,0.3887,-4.16,4.5,2.78,35.95,-4.7,-19.58,0.720603,0.397839,0.351207,0.446181,0.0,0.0,0.0,0,0
2026-06-16 16:11:24.656,2297762,R_Hip,-0.2241,-0.9879,0.076,0.0,-0.98,1.61,-31.77,12.05,-16.55,0.421796,-0.305338,0.566973,-0.638203,0.0,0.0,0.0,0,0
2026-06-16 16:11:24.658,2297912,L_Shank,0.0223,-0.108,0.9642,1.68,-1.45,-0.07,34.17,9.13,-15.98,0.518357,0.007782,-0.064028,0.852718,0.0,0.0,0.0,0,0
2026-06-16 16:11:24.659,2297782,R_Hip,-0.2586,-0.9869,0.0668,-0.12,-1.24,2.32,-30.49,11.87,-17.06,0.421644,-0.305002,0.56737,-0.638142,0.0,0.0,0.0,0,0
2026-06-16 16:11:24.661,2297913,L_Shank,0.015,-0.1168,0.9614,1.67,-1.48,-0.05,36.78,7.93,-15.21,0.518296,0.007752,-0.063997,0.852748,0.0,0.0,0.0,0,0
2026-06-16 16:11:24.662,2297802,R_Hip,-0.264,-1.0021,0.0553,-0.18,-1.67,2.78,0.0,0.0,0.0,0.422102,-0.304453,0.567949,-0.637593,0.0,0.0,0.0,0,0
2026-06-16 16:11:24.663,2297933,L_Shank,0.0169,-0.1119,0.9854,1.67,-1.51,0.0,35.39,7.93,-15.19,0.518265,0.007752,-0.063967,0.852748,0.0,0.0,0.0,0,0
2026-06-16 16:11:24.665,2297822,R_Hip,-0.268,-1.0304,0.0485,-0.25,-2.8,3.54,-29.58,10.23,-17.23,0.423292,-0.304056,0.568438,-0.636555,0.0,0.0,0.0,0,0
2026-06-16 16:11:24.666,2297953,L_Shank,0.0306,-0.1232,0.9782,1.67,-1.48,0.12,0.0,0.0,0.0,0.518235,0.007752,-0.063967,0.852779,0.0,0.0,0.0,0,0
2026-06-16 16:11:24.668,2297775,R_Ankle,0.0753,0.078,0.921,0.84,-1.83,-0.41,-32.74,-10.3,-14.05,0.830622,0.08417,-0.086032,0.543626,0.0,0.0,0.0,0,0
2026-06-16 16:11:24.669,2297927,L_Ankle,0.2084,-0.1703,0.9554,5.46,-0.75,-10.32,35.07,10.24,-11.47,-0.367687,-0.078524,0.109928,-0.920072,0.0,0.0,0.0,0,0
2026-06-16 16:11:24.671,2297795,R_Ankle,0.0846,0.0428,0.9828,0.52,-1.92,-0.63,-32.07,-11.55,-14.65,0.830531,0.084689,-0.085849,0.543748,0.0,0.0,0.0,0,0
2026-06-16 16:11:24.672,2297947,L_Ankle,0.2026,-0.1683,0.9419,5.47,-0.74,-10.32,34.37,9.9,-11.83,-0.367687,-0.078616,0.110019,-0.920042,0.0,0.0,0.0,0,0
2026-06-16 16:11:24.675,2297815,R_Ankle,0.0684,0.0175,0.9507,0.28,-1.92,-0.74,-32.77,-12.51,-14.95,0.830622,0.084811,-0.085818,0.543565,0.0,0.0,0.0,0,0
2026-06-16 16:11:24.676,2297967,L_Ankle,0.2011,-0.16,0.9616,5.45,-0.74,-10.3,0.0,0.0,0.0,-0.367718,-0.078738,0.11005,-0.920011,0.0,0.0,0.0,0,0
2026-06-16 16:11:24.679,2297835,R_Ankle,0.0787,-0.0503,1.0172,-0.04,-2.03,-0.74,0.0,0.0,0.0,0.830744,0.084628,-0.086123,0.543321,0.0,0.0,0.0,0,0
2026-06-16 16:11:24.680,2297987,L_Ankle,0.205,-0.1693,0.9525,5.43,-0.73,-10.3,35.6,8.99,-11.98,-0.367748,-0.078829,0.11005,-0.920011,0.0,0.0,0.0,0,0
2026-06-16 16:11:24.682,2297786,R_Shank,-0.0282,-2.1388,1.1493,0.22,-0.9,-9.25,-23.46,-19.31,-10.19,0.901761,0.03647,-0.029939,-0.429609,0.0,0.0,0.0,0,0
2026-06-16 16:11:24.685,2297949,L_Ankle,0.2035,-0.1659,0.9515,5.41,-0.67,-10.28,34.01,9.9,-12.17,-0.367748,-0.07886,0.110019,-0.91998,0.0,0.0,0.0,0,0
2026-06-16 16:11:24.685,2297806,R_Shank,-0.0096,2.4852,1.0859,0.28,-1.08,-8.59,-22.47,-17.68,-11.09,0.901395,0.036714,-0.02942,-0.430372,0.0,0.0,0.0,0,0
2026-06-16 16:11:24.687,2297826,R_Shank,0.0134,2.226,1.0196,0.24,-1.31,-8.17,0.0,0.0,0.0,0.901425,0.036988,-0.029267,-0.430311,0.0,0.0,0.0,0,0
2026-06-16 16:11:24.688,2297969,L_Ankle,0.2104,-0.1683,0.964,5.4,-0.67,-10.28,34.04,8.84,-11.16,-0.367779,-0.07889,0.109989,-0.91998,0.0,0.0,0.0,0,0
2026-06-16 16:11:24.691,2297846,R_Shank,0.0075,1.1964,0.96,0.06,-1.64,-7.93,-22.25,-19.84,-11.87,0.901547,0.03708,-0.029481,-0.430006,0.0,0.0,0.0,0,0
2026-06-16 16:11:24.692,2297989,L_Ankle,0.2124,-0.1718,0.9477,5.38,-0.65,-10.28,0.0,0.0,0.0,-0.367779,-0.078921,0.109928,-0.91998,0.0,0.0,0.0,0,0
2026-06-16 16:11:24.694,2298009,L_Ankle,0.1996,-0.1727,0.953,5.4,-0.62,-10.27,35.44,8.82,-11.47,-0.367809,-0.07889,0.109867,-0.91998,0.0,0.0,0.0,0,0
2026-06-16 16:11:24.694,2297807,R_Shank,-0.0017,-0.7268,0.9182,-0.51,-1.62,-7.89,-22.77,-20.64,-9.91,0.9017,0.037019,-0.029633,-0.429701,0.0,0.0,0.0,0,0
2026-06-16 16:11:24.697,2297960,L_Hip,-0.1845,0.8985,0.3771,-4.21,4.46,2.67,36.44,-4.53,-18.86,0.720481,0.3979,0.351115,0.446333,0.0,0.0,0.0,0,0
2026-06-16 16:11:24.697,2297827,R_Shank,0.0168,-2.7796,0.9297,-0.58,-1.64,-7.9,-22.25,-19.84,-11.87,0.901883,0.036836,-0.029603,-0.429365,0.0,0.0,0.0,0,0
2026-06-16 16:11:24.699,2297980,L_Hip,-0.1781,0.8926,0.3906,-4.19,4.43,2.64,0.0,0.0,0.0,0.72045,0.397992,0.351024,0.446425,0.0,0.0,0.0,0,0
2026-06-16 16:11:24.700,2297847,R_Shank,0.0149,-1.2384,0.9518,-0.6,-1.61,-7.98,0.0,0.0,0.0,0.902036,0.036409,-0.029633,-0.42906,0.0,0.0,0.0,0,0
2026-06-16 16:11:24.703,2298000,L_Hip,-0.1815,0.9005,0.3877,-4.2,4.4,2.64,36.78,-5.49,-19.74,0.72042,0.398083,0.350902,0.446455,0.0,0.0,0.0,0,0
2026-06-16 16:11:24.703,2297867,R_Shank,0.0016,2.7508,1.0152,-0.56,-1.53,-8.25,-22.25,-20.5,-10.97,0.902127,0.036012,-0.029603,-0.428907,0.0,0.0,0.0,0,0
2026-06-16 16:11:24.706,2298020,L_Hip,-0.184,0.8916,0.3746,-4.19,4.37,2.64,36.64,-3.72,-19.6,0.720389,0.398206,0.35078,0.446486,0.0,0.0,0.0,0,0
2026-06-16 16:11:24.706,2297812,R_Hip,-0.1447,-1.086,0.0678,-0.38,-4.39,3.8,-30.13,12.97,-17.41,0.425092,-0.304147,0.568682,-0.63509,0.0,0.0,0.0,0,0
2026-06-16 16:11:24.709,2297832,R_Hip,-0.0396,-1.1134,0.0755,-0.64,-4.45,3.47,-31.22,11.14,-16.38,0.426923,-0.304849,0.568621,-0.633564,0.0,0.0,0.0,0,0
2026-06-16 16:11:24.711,2297852,R_Hip,-0.009,-1.1202,0.1044,-0.76,-4.06,3.27,-31.77,12.42,-16.55,0.428297,-0.305948,0.568468,-0.632252,0.0,0.0,0.0,0,0
2026-06-16 16:11:24.713,2297872,R_Hip,-0.0006,-1.1026,0.0895,-0.98,-2.87,2.93,0.0,0.0,0.0,0.428938,-0.306894,0.568468,-0.631367,0.0,0.0,0.0,0,0
2026-06-16 16:11:24.716,2297820,R_Ankle,0.0988,-0.0879,1.0709,0.38,-1.7,-0.77,-29.68,-10.58,-14.94,0.830866,0.084201,-0.086642,0.543168,0.0,0.0,0.0,0,0
2026-06-16 16:11:24.718,2297981,L_Hip,-0.184,0.8936,0.3921,-4.17,4.3,2.7,35.76,-4.54,-18.56,0.72042,0.398328,0.350688,0.446455,0.0,0.0,0.0,0,0
2026-06-16 16:11:24.720,2298001,L_Hip,-0.1904,0.8911,0.3955,-4.16,4.29,2.7,0.0,0.0,0.0,0.720389,0.39845,0.350566,0.446455,0.0,0.0,0.0,0,0
2026-06-16 16:11:24.720,2297840,R_Ankle,0.0851,-0.0785,1.0196,0.59,-1.61,-0.78,-31.72,-12.52,-13.09,0.830958,0.083804,-0.086917,0.543016,0.0,0.0,0.0,0,0
2026-06-16 16:11:24.725,2297860,R_Ankle,0.0865,-0.0651,1.0273,0.73,-1.57,-0.74,-32.05,-11.9,-12.48,0.83108,0.08356,-0.086917,0.542863,0.0,0.0,0.0,0,0
2026-06-16 16:11:24.726,2298021,L_Hip,-0.1918,0.8906,0.3984,-4.16,4.31,2.71,36.61,-5.33,-19.88,0.720389,0.398541,0.350536,0.446394,0.0,0.0,0.0,0,0
2026-06-16 16:11:24.728,2297880,R_Ankle,0.1007,-0.0468,1.0139,0.87,-1.52,-0.66,0.0,0.0,0.0,0.831172,0.083438,-0.086825,0.542802,0.0,0.0,0.0,0,0
2026-06-16 16:11:24.729,2298041,L_Hip,-0.1923,0.8921,0.408,-4.17,4.33,2.73,37.15,-3.87,-20.04,0.72042,0.398602,0.350505,0.446333,0.0,0.0,0.0,0,0
2026-06-16 16:11:24.731,2297842,R_Ankle,0.0846,-0.0369,0.9713,0.9,-1.6,-0.48,-30.7,-11.56,-13.4,0.831202,0.083499,-0.086612,0.542741,0.0,0.0,0.0,0,0
2026-06-16 16:11:24.732,2297986,L_Shank,0.0423,-0.1061,0.9719,1.7,-1.41,0.2,34.33,9.27,-14.27,0.518204,0.007782,-0.063967,0.852779,0.0,0.0,0.0,0,0
2026-06-16 16:11:24.734,2297862,R_Ankle,0.0865,-0.028,0.9693,0.83,-1.64,-0.41,-31.89,-11.4,-13.87,0.831202,0.08356,-0.086459,0.542772,0.0,0.0,0.0,0,0
2026-06-16 16:11:24.735,2298006,L_Shank,0.0492,-0.1114,0.9705,1.7,-1.41,0.13,34.34,8.27,-15.5,0.518174,0.007843,-0.063997,0.852809,0.0,0.0,0.0,0,0
2026-06-16 16:11:24.737,2297882,R_Ankle,0.0728,-0.0354,0.9866,0.79,-1.63,-0.38,-31.56,-11.39,-14.49,0.831172,0.08359,-0.086367,0.542802,0.0,0.0,0.0,0,0
2026-06-16 16:11:24.738,2298026,L_Shank,0.0594,-0.1119,0.9782,1.71,-1.43,0.05,35.22,8.44,-15.67,0.518113,0.007904,-0.064028,0.85284,0.0,0.0,0.0,0,0
2026-06-16 16:11:24.740,2297902,R_Ankle,0.0767,-0.0314,0.9895,0.74,-1.68,-0.33,0.0,0.0,0.0,0.831141,0.08356,-0.086306,0.542894,0.0,0.0,0.0,0,0
2026-06-16 16:11:24.741,2298046,L_Shank,0.0551,-0.107,0.9815,1.71,-1.48,-0.16,0.0,0.0,0.0,0.518082,0.007996,-0.064089,0.85287,0.0,0.0,0.0,0,0
2026-06-16 16:11:24.742,2297852,R_Shank,-0.0405,-3.1484,1.0489,0.01,-1.64,-8.36,-22.81,-18.33,-9.89,0.902127,0.035707,-0.029481,-0.428907,0.0,0.0,0.0,0,0
2026-06-16 16:11:24.743,2297994,L_Ankle,0.2055,-0.1669,0.9429,5.38,-0.59,-10.27,34.03,9.55,-11.15,-0.36784,-0.07886,0.109806,-0.91998,0.0,0.0,0.0,0,0
2026-06-16 16:11:24.745,2297872,R_Shank,-0.0567,-1.4776,1.0522,0.15,-1.67,-8.24,-23.46,-18.98,-10.79,0.902158,0.035585,-0.029359,-0.428877,0.0,0.0,0.0,0,0
2026-06-16 16:11:24.746,2298014,L_Ankle,0.2006,-0.1688,0.9515,5.38,-0.59,-10.29,33.83,10.08,-12.35,-0.36784,-0.078829,0.109714,-0.91998,0.0,0.0,0.0,0,0
2026-06-16 16:11:24.748,2297892,R_Shank,-0.0528,-1.348,1.0642,0.21,-1.64,-8.08,0.0,0.0,0.0,0.902249,0.035493,-0.029267,-0.428724,0.0,0.0,0.0,0,0
2026-06-16 16:11:24.749,2298034,L_Ankle,0.1972,-0.1664,0.9573,5.37,-0.58,-10.29,34.9,10.42,-10.97,-0.36787,-0.078768,0.109653,-0.920011,0.0,0.0,0.0,0,0
2026-06-16 16:11:24.751,2297912,R_Shank,-0.041,-1.9824,1.0936,0.13,-1.28,-7.48,-22.28,-18.84,-10.95,0.902493,0.035432,-0.029023,-0.428236,0.0,0.0,0.0,0,0
2026-06-16 16:11:24.752,2298054,L_Ankle,0.1972,-0.1698,0.9707,5.38,-0.61,-10.29,0.0,0.0,0.0,-0.36787,-0.078707,0.109561,-0.920011,0.0,0.0,0.0,0,0
2026-06-16 16:11:24.754,2297862,R_Hip,-0.044,-1.0943,0.0957,-1.32,-1.51,2.58,-31.58,11.14,-16.04,0.428968,-0.307474,0.568926,-0.630634,0.0,0.0,0.0,0,0
2026-06-16 16:11:24.755,2298004,L_Hip,-0.1972,0.9005,0.3935,-4.13,4.37,2.76,36.45,-5.49,-20.31,0.72042,0.398663,0.350536,0.446242,0.0,0.0,0.0,0,0
2026-06-16 16:11:24.757,2298024,L_Hip,-0.1918,0.8946,0.3896,-4.14,4.42,2.77,0.0,0.0,0.0,0.72042,0.398663,0.350627,0.44615,0.0,0.0,0.0,0,0
2026-06-16 16:11:24.757,2297882,R_Hip,-0.0638,-1.0948,0.0803,-1.67,-0.97,2.06,-29.4,13.33,-17.07,0.428632,-0.307871,0.569658,-0.630024,0.0,0.0,0.0,0,0
2026-06-16 16:11:24.759,2298044,L_Hip,-0.1899,0.8911,0.3926,-4.15,4.44,2.79,35.91,-5.67,-18.71,0.72045,0.398694,0.350688,0.446059,0.0,0.0,0.0,0,0
2026-06-16 16:11:24.760,2297902,R_Hip,-0.12,-1.0494,0.102,-1.77,-0.63,1.75,0.0,0.0,0.0,0.427808,-0.308237,0.570605,-0.629536,0.0,0.0,0.0,0,0
2026-06-16 16:11:24.762,2298064,L_Hip,-0.1923,0.8936,0.395,-4.16,4.5,2.8,37.31,-3.71,-19.32,0.720481,0.398663,0.350749,0.445967,0.0,0.0,0.0,0,0
2026-06-16 16:11:24.763,2297922,R_Hip,-0.1683,-0.9777,0.0625,-1.79,-0.1,1.43,-31.77,12.05,-16.55,0.426679,-0.30839,0.571764,-0.62917,0.0,0.0,0.0,0,0
2026-06-16 16:11:24.764,2298011,L_Shank,0.0492,-0.1173,0.9791,1.81,-1.21,-0.22,34.88,8.12,-16.9,0.517472,0.008332,-0.064516,0.853206,0.0,0.0,0.0,0,0
2026-06-16 16:11:24.765,2297897,R_Shank,0.0311,2.8872,1.0868,-0.27,0.12,-6.02,-22.76,-19.99,-11.11,0.902982,0.03534,-0.02826,-0.427259,0.0,0.0,0.0,0,0
2026-06-16 16:11:24.767,2298012,L_Shank,0.0507,-0.1183,0.9777,1.82,-1.22,-0.25,34.52,8.44,-15.66,0.517167,0.008393,-0.064638,0.853359,0.0,0.0,0.0,0,0
2026-06-16 16:11:24.769,2297917,R_Shank,0.0154,2.2392,1.0772,-0.35,0.22,-5.61,-22.75,-20.98,-10.51,0.903684,0.03531,-0.027253,-0.425825,0.0,0.0,0.0,0,0
2026-06-16 16:11:24.770,2298032,L_Shank,0.0438,-0.111,0.9671,1.81,-1.19,-0.28,34.69,8.95,-15.51,0.516953,0.008484,-0.06476,0.853481,0.0,0.0,0.0,0,0
2026-06-16 16:11:24.771,2297937,R_Shank,0.011,-2.6436,1.0897,-0.48,0.33,-5.22,0.0,0.0,0.0,0.90463,0.03534,-0.026154,-0.423872,0.0,0.0,0.0,0,0
2026-06-16 16:11:24.773,2298052,L_Shank,0.0487,-0.111,0.9892,1.83,-1.18,-0.3,35.56,8.44,-15.36,0.516831,0.008667,-0.064913,0.853572,0.0,0.0,0.0,0,0
2026-06-16 16:11:24.774,2297957,R_Shank,-0.0091,2.4916,1.0974,-0.76,0.54,-4.73,-22.8,-18.01,-11.09,0.905759,0.03531,-0.024781,-0.421552,0.0,0.0,0.0,0,0
2026-06-16 16:11:24.775,2298016,L_Ankle,0.2011,-0.1722,0.9597,5.36,-0.64,-10.29,34.71,9.54,-12.16,-0.36787,-0.078646,0.109531,-0.920011,0.0,0.0,0.0,0,0
2026-06-16 16:11:24.778,2297911,R_Ankle,0.0782,-0.1796,1.0532,1.76,-2.06,0.51,-32.58,-12.68,-13.87,0.830775,0.083071,-0.086734,0.543474,0.0,0.0,0.0,0,0
2026-06-16 16:11:24.778,2298017,L_Ankle,0.1972,-0.1766,0.9477,5.37,-0.65,-10.29,34.16,11.49,-12.0,-0.367901,-0.078524,0.10947,-0.920042,0.0,0.0,0.0,0,0
2026-06-16 16:11:24.780,2297931,R_Ankle,0.0792,-0.1483,1.0263,1.92,-2.16,0.77,-31.72,-11.24,-14.03,0.830348,0.083163,-0.086795,0.544053,0.0,0.0,0.0,0,0
2026-06-16 16:11:24.781,2298037,L_Ankle,0.1967,-0.1722,0.9472,5.38,-0.67,-10.31,34.05,9.55,-10.13,-0.367901,-0.078433,0.109439,-0.920042,0.0,0.0,0.0,0,0
2026-06-16 16:11:24.783,2297951,R_Ankle,0.0983,-0.1483,1.0613,1.96,-2.24,1.03,-33.43,-11.57,-14.35,0.829707,0.08356,-0.086886,0.544969,0.0,0.0,0.0,0,0
2026-06-16 16:11:24.784,2298057,L_Ankle,0.1942,-0.1669,0.9554,5.4,-0.7,-10.29,0.0,0.0,0.0,-0.367901,-0.078341,0.109378,-0.920072,0.0,0.0,0.0,0,0
2026-06-16 16:11:24.786,2297971,R_Ankle,0.1262,-0.1815,1.1049,1.81,-2.48,1.54,-32.73,-9.66,-14.06,0.828852,0.084048,-0.087252,0.546159,0.0,0.0,0.0,0,0
2026-06-16 16:11:24.787,2298037,L_Shank,0.037,-0.1046,0.9758,1.79,-1.08,-0.31,35.23,9.14,-16.61,0.5168,0.009491,-0.065615,0.853511,0.0,0.0,0.0,0,0
2026-06-16 16:11:24.789,2298057,L_Shank,0.0541,-0.1105,0.9628,1.77,-1.06,-0.33,0.0,0.0,0.0,0.5168,0.009522,-0.065645,0.853511,0.0,0.0,0.0,0,0
2026-06-16 16:11:24.789,2297911,R_Hip,-0.1895,-0.8503,0.0033,-1.4,-0.73,1.83,-30.86,12.6,-16.38,0.425642,-0.308359,0.573046,-0.628742,0.0,0.0,0.0,0,0
2026-06-16 16:11:24.791,2298077,L_Shank,0.0551,-0.1061,0.9806,1.76,-1.05,-0.35,35.91,7.76,-15.35,0.5168,0.009583,-0.065676,0.853511,0.0,0.0,0.0,0,0
2026-06-16 16:11:24.791,2297931,R_Hip,-0.1812,-0.8356,-0.0004,-1.21,-0.98,1.93,-31.77,11.32,-16.55,0.42497,-0.308329,0.574206,-0.628162,0.0,0.0,0.0,0,0
2026-06-16 16:11:24.793,2298097,L_Shank,0.057,-0.1129,0.9729,1.76,-1.03,-0.36,35.4,7.6,-16.12,0.516861,0.009613,-0.065645,0.853481,0.0,0.0,0.0,0,0
2026-06-16 16:11:24.794,2297951,R_Hip,-0.1836,-0.8195,-0.0029,-0.73,-1.38,2.13,-31.4,10.22,-16.21,0.424635,-0.308329,0.575091,-0.627552,0.0,0.0,0.0,0,0
2026-06-16 16:11:24.796,2298039,L_Ankle,0.2006,-0.1713,0.9578,5.42,-0.76,-10.29,35.6,10.77,-10.27,-0.367901,-0.078158,0.109348,-0.920072,0.0,0.0,0.0,0,0
2026-06-16 16:11:24.797,2297912,R_Hip,-0.156,-0.7951,-0.0149,-0.48,-1.5,2.24,0.0,0.0,0.0,0.424635,-0.308267,0.575701,-0.627003,0.0,0.0,0.0,0,0
2026-06-16 16:11:24.799,2298059,L_Ankle,0.1996,-0.1752,0.9645,5.42,-0.78,-10.29,33.51,10.09,-10.65,-0.367901,-0.078005,0.109287,-0.920103,0.0,0.0,0.0,0,0
2026-06-16 16:11:24.800,2297932,R_Ankle,0.0444,-0.0706,1.1097,1.42,-2.51,2.12,-31.57,-12.34,-14.78,0.827876,0.084231,-0.08771,0.547502,0.0,0.0,0.0,0,0
2026-06-16 16:11:24.802,2298079,L_Ankle,0.2035,-0.1722,0.9544,5.43,-0.81,-10.29,34.03,9.19,-11.5,-0.367901,-0.077822,0.109226,-0.920103,0.0,0.0,0.0,0,0
2026-06-16 16:11:24.802,2297952,R_Ankle,0.0086,-0.0037,1.1193,1.45,-2.21,1.91,-32.38,-11.59,-11.87,0.826807,0.084353,-0.088168,0.549059,0.0,0.0,0.0,0,0
2026-06-16 16:11:24.805,2297972,R_Ankle,-0.0241,0.0299,1.1609,1.07,-1.5,0.87,-31.88,-10.77,-13.27,0.825953,0.084506,-0.087893,0.55034,0.0,0.0,0.0,0,0
2026-06-16 16:11:24.805,2298099,L_Ankle,0.1883,-0.1713,0.9534,5.45,-0.83,-10.29,33.67,10.26,-11.16,-0.367931,-0.077639,0.109165,-0.920133,0.0,0.0,0.0,0,0
2026-06-16 16:11:24.807,2297992,R_Ankle,-0.0246,0.0467,1.1882,0.63,-1.53,0.49,-32.77,-13.47,-14.32,0.825587,0.084353,-0.087161,0.551012,0.0,0.0,0.0,0,0
2026-06-16 16:11:24.808,2298049,L_Hip,-0.1938,0.8921,0.3993,-4.12,4.56,2.89,37.31,-4.35,-20.18,0.720573,0.398633,0.35078,0.445845,0.0,0.0,0.0,0,0
2026-06-16 16:11:24.810,2298069,L_Hip,-0.2017,0.8926,0.3935,-4.11,4.55,2.93,0.0,0.0,0.0,0.720664,0.398572,0.35078,0.445753,0.0,0.0,0.0,0,0
2026-06-16 16:11:24.810,2297937,R_Hip,-0.1225,-0.7482,-0.013,0.3,-1.52,2.57,-31.22,11.87,-15.7,0.424848,-0.308054,0.576098,-0.626606,0.0,0.0,0.0,0,0
2026-06-16 16:11:24.813,2298089,L_Hip,-0.1977,0.8941,0.4022,-4.1,4.58,2.94,34.57,-5.69,-18.98,0.720786,0.398511,0.350841,0.44557,0.0,0.0,0.0,0,0
2026-06-16 16:11:24.813,2297957,R_Hip,-0.1161,-0.7136,-0.0139,0.89,-1.45,2.58,-31.04,12.42,-15.87,0.425184,-0.307688,0.57625,-0.626453,0.0,0.0,0.0,0,0
2026-06-16 16:11:24.815,2297977,R_Hip,-0.1116,-0.6975,-0.0057,1.21,-1.4,2.52,0.0,0.0,0.0,0.425611,-0.307108,0.576128,-0.626545,0.0,0.0,0.0,0,0
2026-06-16 16:11:24.815,2298109,L_Hip,-0.1968,0.8926,0.3974,-4.1,4.58,2.99,36.47,-4.2,-20.03,0.720939,0.39845,0.350841,0.445387,0.0,0.0,0.0,0,0
2026-06-16 16:11:24.817,2297997,R_Hip,-0.1096,-0.6877,-0.0067,1.8,-1.28,2.34,-33.04,10.41,-15.35,0.426038,-0.306345,0.575732,-0.627003,0.0,0.0,0.0,0,0
2026-06-16 16:11:24.819,2298084,L_Ankle,0.1952,-0.1639,0.9587,5.44,-0.87,-10.29,34.22,9.02,-10.98,-0.367931,-0.077456,0.109104,-0.920133,0.0,0.0,0.0,0,0
2026-06-16 16:11:24.821,2298104,L_Ankle,0.1883,-0.1718,0.964,5.43,-0.89,-10.28,34.03,9.19,-11.5,-0.367962,-0.077303,0.109073,-0.920164,0.0,0.0,0.0,0,0
2026-06-16 16:11:24.823,2298124,L_Ankle,0.1923,-0.1752,0.9611,5.45,-0.9,-10.31,34.71,10.6,-11.48,-0.367962,-0.077181,0.109073,-0.920164,0.0,0.0,0.0,0,0
2026-06-16 16:11:24.826,2298144,L_Ankle,0.1942,-0.1698,0.9602,5.42,-0.93,-10.32,35.79,9.17,-11.12,-0.367962,-0.077059,0.109043,-0.920164,0.0,0.0,0.0,0,0
2026-06-16 16:11:24.829,2297962,R_Hip,-0.0968,-0.7033,0.0096,2.54,-1.12,1.8,-31.22,10.41,-16.38,0.426405,-0.30549,0.57506,-0.627796,0.0,0.0,0.0,0,0
2026-06-16 16:11:24.831,2297982,R_Hip,-0.1087,-0.7267,0.0072,3.03,-1.14,1.32,-30.67,11.32,-16.21,0.426649,-0.304636,0.574084,-0.628925,0.0,0.0,0.0,0,0
2026-06-16 16:11:24.833,2298002,R_Hip,-0.1146,-0.736,0.0086,3.26,-1.2,1.09,0.0,0.0,0.0,0.426832,-0.303873,0.572802,-0.63036,0.0,0.0,0.0,0,0
2026-06-16 16:11:24.835,2298022,R_Hip,-0.1042,-0.7726,0.0202,3.74,-1.35,0.61,-30.86,11.87,-16.72,0.426923,-0.303201,0.571154,-0.632069,0.0,0.0,0.0,0,0
2026-06-16 16:11:24.837,2297965,R_Shank,0.0306,1.06,1.1099,-1.37,-0.79,-4.63,-22.14,-18.01,-10.5,0.90698,0.035096,-0.023408,-0.419019,0.0,0.0,0.0,0,0
2026-06-16 16:11:24.839,2297985,R_Shank,0.009,-1.006,1.1253,-1.48,-1.27,-4.88,0.0,0.0,0.0,0.90817,0.034455,-0.022736,-0.416547,0.0,0.0,0.0,0,0
2026-06-16 16:11:24.842,2298005,R_Shank,0.0046,-1.408,1.1771,-1.57,-1.51,-5.22,-22.77,-19.66,-11.41,0.909177,0.033692,-0.022553,-0.414411,0.0,0.0,0.0,0,0
2026-06-16 16:11:24.844,2298025,R_Shank,-0.0091,0.5016,1.2031,-1.7,-1.57,-6.17,-23.45,-18.99,-11.7,0.909909,0.033143,-0.022523,-0.412824,0.0,0.0,0.0,0,0
2026-06-16 16:11:24.846,2298111,L_Shank,0.0453,-0.1154,0.9647,1.79,-1.0,-0.34,34.88,9.47,-16.3,0.516923,0.009644,-0.065584,0.85345,0.0,0.0,0.0,0,0
2026-06-16 16:11:24.848,2298112,L_Shank,0.0531,-0.1105,0.9585,1.77,-1.0,-0.35,0.0,0.0,0.0,0.516953,0.009674,-0.065523,0.85342,0.0,0.0,0.0,0,0
2026-06-16 16:11:24.850,2298132,L_Shank,0.0321,-0.1026,0.9858,1.77,-0.98,-0.33,34.52,8.44,-15.66,0.516984,0.009644,-0.065432,0.853389,0.0,0.0,0.0,0,0
2026-06-16 16:11:24.852,2298152,L_Shank,0.035,-0.1075,0.9897,1.76,-0.97,-0.34,35.75,7.95,-16.44,0.517045,0.009613,-0.065371,0.853389,0.0,0.0,0.0,0,0
2026-06-16 16:11:24.856,2298116,L_Hip,-0.2026,0.899,0.378,-4.12,4.56,3.02,36.64,-4.04,-19.89,0.721061,0.398419,0.350841,0.445173,0.0,0.0,0.0,0,0
2026-06-16 16:11:24.858,2298117,L_Hip,-0.2066,0.8901,0.3887,-4.12,4.54,3.03,0.0,0.0,0.0,0.721213,0.398358,0.35081,0.44499,0.0,0.0,0.0,0,0
2026-06-16 16:11:24.860,2298137,L_Hip,-0.1938,0.8882,0.3863,-4.12,4.55,3.05,36.47,-4.52,-20.32,0.721397,0.398358,0.350749,0.444777,0.0,0.0,0.0,0,0
2026-06-16 16:11:24.863,2298157,L_Hip,-0.1992,0.8946,0.4105,-4.11,4.52,3.07,36.46,-3.56,-18.87,0.721549,0.398297,0.350719,0.444594,0.0,0.0,0.0,0,0
2026-06-16 16:11:24.867,2298129,L_Ankle,0.1908,-0.1664,0.9592,5.41,-0.96,-10.35,34.55,9.36,-12.0,-0.367962,-0.076968,0.108982,-0.920194,0.0,0.0,0.0,0,0
2026-06-16 16:11:24.868,2298000,R_Ankle,0.0346,0.0953,1.1097,0.14,-1.53,-0.1,-32.38,-10.63,-12.5,0.825343,0.083865,-0.087008,0.551531,0.0,0.0,0.0,0,0
2026-06-16 16:11:24.869,2298149,L_Ankle,0.1932,-0.1659,0.9486,5.41,-0.97,-10.33,0.0,0.0,0.0,-0.367962,-0.076907,0.108921,-0.920194,0.0,0.0,0.0,0,0
2026-06-16 16:11:24.871,2298020,R_Ankle,0.0831,0.0022,1.0158,-0.1,-1.64,-0.1,0.0,0.0,0.0,0.82522,0.083621,-0.086795,0.551775,0.0,0.0,0.0,0,0
2026-06-16 16:11:24.874,2298169,L_Ankle,0.2006,-0.1703,0.964,5.41,-0.99,-10.32,34.02,9.55,-11.84,-0.367962,-0.076876,0.108921,-0.920194,0.0,0.0,0.0,0,0
2026-06-16 16:11:24.874,2298040,R_Ankle,0.0718,0.0428,0.8903,0.5,-1.67,-0.17,-31.55,-10.44,-14.5,0.825159,0.083407,-0.086673,0.551897,0.0,0.0,0.0,0,0
2026-06-16 16:11:24.876,2298189,L_Ankle,0.1986,-0.1727,0.9582,5.41,-1.0,-10.32,34.2,9.72,-11.32,-0.367962,-0.076846,0.10889,-0.920225,0.0,0.0,0.0,0,0
2026-06-16 16:11:24.878,2298060,R_Ankle,0.0816,0.0517,0.8932,0.36,-1.32,-0.59,-31.56,-10.43,-15.73,0.825251,0.083438,-0.086245,0.551805,0.0,0.0,0.0,0,0
2026-06-16 16:11:24.880,2298137,L_Shank,0.0257,-0.1134,0.9849,1.76,-1.0,-0.39,34.36,7.61,-16.74,0.517075,0.009583,-0.06531,0.853359,0.0,0.0,0.0,0,0
2026-06-16 16:11:24.881,2298011,R_Shank,-0.0184,-1.3816,1.0157,-1.89,-0.74,-8.52,-23.79,-18.98,-11.39,0.910337,0.032716,-0.02234,-0.411939,0.0,0.0,0.0,0,0
2026-06-16 16:11:24.882,2298157,L_Shank,0.0238,-0.1134,0.9676,1.76,-1.03,-0.41,0.0,0.0,0.0,0.517136,0.009552,-0.065218,0.853328,0.0,0.0,0.0,0,0
2026-06-16 16:11:24.884,2298031,R_Shank,-0.0267,-0.8564,0.948,-1.79,-0.7,-8.98,0.0,0.0,0.0,0.910428,0.032197,-0.021668,-0.411817,0.0,0.0,0.0,0,0
2026-06-16 16:11:24.886,2298177,L_Shank,0.0169,-0.1207,0.9762,1.76,-1.03,-0.41,34.7,7.26,-15.8,0.517228,0.009491,-0.065157,0.853298,0.0,0.0,0.0,0,0
2026-06-16 16:11:24.888,2298051,R_Shank,-0.0336,-3.032,0.9081,-1.71,-0.74,-9.3,-22.29,-18.51,-10.95,0.910276,0.031526,-0.020753,-0.412244,0.0,0.0,0.0,0,0
2026-06-16 16:11:24.890,2298197,L_Shank,0.015,-0.1193,0.9815,1.77,-1.05,-0.38,35.22,7.76,-15.66,0.517319,0.009461,-0.065096,0.853236,0.0,0.0,0.0,0,0
2026-06-16 16:11:24.891,2298071,R_Shank,-0.0361,-0.3248,0.8437,-1.62,-0.9,-9.64,-21.48,-16.38,-11.4,0.90997,0.030702,-0.019807,-0.412976,0.0,0.0,0.0,0,0
2026-06-16 16:11:24.893,2298022,R_Ankle,0.1203,0.0765,0.7725,0.43,-1.38,-0.38,-32.22,-10.45,-13.89,0.825343,0.083377,-0.086001,0.551714,0.0,0.0,0.0,0,0
2026-06-16 16:11:24.896,2298042,R_Ankle,0.1468,0.1007,0.7399,0.51,-1.59,-0.05,0.0,0.0,0.0,0.825373,0.083468,-0.085849,0.551714,0.0,0.0,0.0,0,0
2026-06-16 16:11:24.898,2298161,L_Shank,0.0335,-0.1183,0.9714,1.76,-1.1,-0.25,34.71,8.29,-16.75,0.517441,0.00943,-0.065065,0.853175,0.0,0.0,0.0,0,0
2026-06-16 16:11:24.900,2298062,R_Ankle,0.1742,0.1676,0.7049,0.54,-1.67,0.06,-31.55,-12.05,-12.94,0.825251,0.083865,-0.08591,0.551836,0.0,0.0,0.0,0,0
2026-06-16 16:11:24.904,2298181,L_Shank,0.0199,-0.1183,0.9604,1.78,-1.11,-0.21,0.0,0.0,0.0,0.517533,0.009369,-0.065004,0.853114,0.0,0.0,0.0,0,0
2026-06-16 16:11:24.906,2298082,R_Ankle,0.1767,0.2087,0.6891,0.62,-1.7,0.09,-33.59,-10.14,-14.52,0.825007,0.084658,-0.086001,0.552049,0.0,0.0,0.0,0,0
2026-06-16 16:11:24.908,2298201,L_Shank,0.0199,-0.1207,0.9743,1.77,-1.12,-0.17,34.52,9.46,-15.67,0.517624,0.009247,-0.064913,0.853053,0.0,0.0,0.0,0,0
2026-06-16 16:11:24.911,2298221,L_Shank,0.0262,-0.1139,0.981,1.77,-1.14,-0.15,35.04,8.61,-15.51,0.517716,0.009156,-0.064821,0.853023,0.0,0.0,0.0,0,0
2026-06-16 16:11:24.912,2298045,R_Ankle,0.1414,0.18,0.6968,0.9,-1.87,-0.55,-32.21,-9.83,-12.97,0.824824,0.085788,-0.086001,0.552171,0.0,0.0,0.0,0,0
2026-06-16 16:11:24.914,2298065,R_Ankle,0.1252,0.1622,0.7026,0.93,-1.9,-0.74,0.0,0.0,0.0,0.824763,0.087008,-0.08594,0.552049,0.0,0.0,0.0,0,0
2026-06-16 16:11:24.916,2298085,R_Ankle,0.1174,0.1547,0.7064,0.95,-1.93,-0.82,-32.06,-11.24,-14.03,0.824854,0.088107,-0.085849,0.551775,0.0,0.0,0.0,0,0
2026-06-16 16:11:24.920,2298105,R_Ankle,0.1125,0.1919,0.7097,1.03,-1.89,-0.77,-30.53,-11.07,-13.86,0.824915,0.089175,-0.085696,0.5515,0.0,0.0,0.0,0,0
2026-06-16 16:11:24.922,2298185,L_Hip,-0.1992,0.8857,0.3998,-4.1,4.51,3.14,36.11,-4.54,-19.15,0.721702,0.398236,0.350688,0.444441,0.0,0.0,0.0,0,0
2026-06-16 16:11:24.924,2298205,L_Hip,-0.1884,0.8955,0.3906,-4.11,4.53,3.14,35.46,-4.86,-20.88,0.721824,0.398206,0.350658,0.444258,0.0,0.0,0.0,0,0
2026-06-16 16:11:24.926,2298225,L_Hip,-0.1835,0.9,0.3955,-4.12,4.54,3.17,0.0,0.0,0.0,0.721915,0.398175,0.350688,0.444136,0.0,0.0,0.0,0,0
2026-06-16 16:11:24.928,2298245,L_Hip,-0.1953,0.897,0.3872,-4.12,4.58,3.16,36.28,-4.37,-18.72,0.722007,0.398114,0.350688,0.444014,0.0,0.0,0.0,0,0
2026-06-16 16:11:24.930,2298062,R_Hip,-0.1141,-1.272,-0.075,4.41,-1.76,0.12,-31.04,11.32,-17.23,0.426923,-0.302774,0.56917,-0.634053,0.0,0.0,0.0,0,0
2026-06-16 16:11:24.933,2298197,L_Ankle,0.1962,-0.1674,0.9693,5.38,-1.01,-10.32,33.86,9.38,-11.33,-0.367931,-0.076846,0.10889,-0.920225,0.0,0.0,0.0,0,0
2026-06-16 16:11:24.934,2298082,R_Hip,-0.3528,-1.9594,-0.1049,4.44,-2.47,-2.16,-30.31,13.15,-17.92,0.426832,-0.302683,0.567095,-0.636067,0.0,0.0,0.0,0,0
2026-06-16 16:11:24.936,2298217,L_Ankle,0.2114,-0.161,0.952,5.37,-1.03,-10.32,0.0,0.0,0.0,-0.367931,-0.076846,0.10886,-0.920225,0.0,0.0,0.0,0,0
2026-06-16 16:11:24.937,2298102,R_Hip,-0.0011,-2.0155,0.1169,3.53,-4.37,-5.19,0.0,0.0,0.0,0.425642,-0.304788,0.564684,-0.637989,0.0,0.0,0.0,0,0
2026-06-16 16:11:24.940,2298237,L_Ankle,0.2079,-0.1693,0.9587,5.34,-1.02,-10.31,33.85,9.73,-11.67,-0.367931,-0.076876,0.108829,-0.920225,0.0,0.0,0.0,0,0
2026-06-16 16:11:24.941,2298122,R_Hip,0.0895,-1.7934,0.8013,-1.3,-4.38,-5.81,-31.59,11.14,-17.41,0.422895,-0.31016,0.561419,-0.640095,0.0,0.0,0.0,0,0
2026-06-16 16:11:24.943,2298257,L_Ankle,0.2001,-0.1727,0.9616,5.33,-1.04,-10.29,34.39,8.83,-11.49,-0.367931,-0.076907,0.108829,-0.920225,0.0,0.0,0.0,0,0
2026-06-16 16:11:24.944,2298067,R_Ankle,0.1316,0.2192,0.8266,0.92,-1.44,-1.29,-31.89,-11.08,-14.19,0.825007,0.090365,-0.085299,0.551225,0.0,0.0,0.0,0,0
2026-06-16 16:11:24.946,2298087,R_Ankle,0.0792,0.4669,1.0786,0.69,-1.41,-1.48,0.0,0.0,0.0,0.825282,0.091525,-0.084689,0.550737,0.0,0.0,0.0,0,0
2026-06-16 16:11:24.949,2298107,R_Ankle,0.2727,0.4332,1.1025,1.27,-2.07,-1.55,-32.23,-11.08,-14.19,0.825709,0.092929,-0.083834,0.550005,0.0,0.0,0.0,0,0
2026-06-16 16:11:24.953,2298127,R_Ankle,-0.8341,-0.3247,1.536,-1.65,0.38,-5.96,-31.86,-9.83,-12.66,0.827509,0.091891,-0.082553,0.547655,0.0,0.0,0.0,0,0
2026-06-16 16:11:24.956,2298219,L_Ankle,0.1957,-0.1737,0.951,5.33,-1.09,-10.22,35.25,10.06,-10.96,-0.367962,-0.076937,0.108798,-0.920225,0.0,0.0,0.0,0,0
2026-06-16 16:11:24.958,2298088,R_Hip,-0.559,-1.006,0.0404,-2.41,6.09,0.54,-31.59,11.87,-17.07,0.418683,-0.311625,0.560808,-0.642659,0.0,0.0,0.0,0,0
2026-06-16 16:11:24.959,2298239,L_Ankle,0.1972,-0.1703,0.9611,5.34,-1.09,-10.22,0.0,0.0,0.0,-0.367992,-0.076998,0.108798,-0.920194,0.0,0.0,0.0,0,0
2026-06-16 16:11:24.961,2298108,R_Hip,-0.4963,-0.5344,-0.1838,-1.75,3.79,5.83,-31.04,10.59,-16.89,0.41615,-0.30784,0.564531,-0.642872,0.0,0.0,0.0,0,0
2026-06-16 16:11:24.963,2298259,L_Ankle,0.1981,-0.162,0.9554,5.35,-1.12,-10.21,34.76,9.19,-10.12,-0.367992,-0.07709,0.108798,-0.920194,0.0,0.0,0.0,0,0
2026-06-16 16:11:24.965,2298128,R_Hip,-0.3814,-0.4578,-0.2021,-1.58,1.45,7.83,0.0,0.0,0.0,0.417005,-0.303659,0.568682,-0.640675,0.0,0.0,0.0,0,0
2026-06-16 16:11:24.967,2298279,L_Ankle,0.1986,-0.1742,0.9347,5.35,-1.1,-10.19,34.55,9.36,-12.0,-0.367992,-0.077181,0.108829,-0.920194,0.0,0.0,0.0,0,0
2026-06-16 16:11:24.969,2298148,R_Hip,-0.1989,-0.5007,-0.1482,-0.8,-2.3,9.13,-31.04,12.42,-16.21,0.42024,-0.300638,0.571642,-0.637318,0.0,0.0,0.0,0,0
2026-06-16 16:11:24.972,2298229,L_Hip,-0.1914,0.8955,0.3824,-4.12,4.62,3.2,36.65,-3.07,-19.31,0.722068,0.398053,0.350719,0.443953,0.0,0.0,0.0,0,0
2026-06-16 16:11:24.974,2298100,R_Shank,-0.0218,2.4984,0.7501,-1.22,-1.29,-9.63,-22.63,-17.85,-11.85,0.909635,0.029817,-0.018983,-0.413831,0.0,0.0,0.0,0,0
2026-06-16 16:11:24.976,2298249,L_Hip,-0.1928,0.899,0.3955,-4.13,4.62,3.23,36.64,-4.36,-20.47,0.722129,0.397992,0.35078,0.443892,0.0,0.0,0.0,0,0
2026-06-16 16:11:24.977,2298120,R_Shank,-0.0248,1.7212,0.7227,-1.02,-1.48,-9.45,0.0,0.0,0.0,0.90933,0.029054,-0.018403,-0.414624,0.0,0.0,0.0,0,0
2026-06-16 16:11:24.979,2298269,L_Hip,-0.1815,0.898,0.3882,-4.11,4.65,3.25,0.0,0.0,0.0,0.722159,0.397931,0.35081,0.443892,0.0,0.0,0.0,0,0
2026-06-16 16:11:24.981,2298140,R_Shank,-0.0297,0.9504,0.6939,-0.75,-1.71,-9.2,-22.98,-17.18,-11.84,0.909085,0.028535,-0.01822,-0.415204,0.0,0.0,0.0,0,0
2026-06-16 16:11:24.984,2298289,L_Hip,-0.186,0.8941,0.3766,-4.15,4.71,3.31,37.3,-4.35,-19.6,0.722159,0.39787,0.350871,0.443861,0.0,0.0,0.0,0,0
2026-06-16 16:11:24.985,2298160,R_Shank,-0.0557,0.8208,0.6953,-0.19,-2.0,-8.7,-22.78,-19.0,-11.7,0.908963,0.028352,-0.018403,-0.415448,0.0,0.0,0.0,0,0
2026-06-16 16:11:24.988,2298112,R_Hip,0.0229,-0.8566,0.05,0.45,-4.45,5.83,-31.59,11.88,-18.09,0.423902,-0.299203,0.572558,-0.634754,0.0,0.0,0.0,0,0
2026-06-16 16:11:24.989,2298251,L_Hip,-0.1815,0.9019,0.3901,-4.22,4.8,3.25,37.31,-3.71,-19.32,0.722129,0.397839,0.350932,0.443861,0.0,0.0,0.0,0,0
2026-06-16 16:11:24.991,2298132,R_Hip,0.0747,-1.0192,0.1164,0.7,-3.73,2.73,-30.86,11.87,-18.09,0.426252,-0.299326,0.572192,-0.633442,0.0,0.0,0.0,0,0
2026-06-16 16:11:24.992,2298252,L_Hip,-0.1766,0.9078,0.4008,-4.22,4.81,3.2,36.44,-4.21,-18.28,0.722159,0.397809,0.350963,0.443892,0.0,0.0,0.0,0,0
2026-06-16 16:11:24.995,2298272,L_Hip,-0.1732,0.8995,0.3974,-4.22,4.82,3.17,0.0,0.0,0.0,0.722129,0.397809,0.351024,0.443892,0.0,0.0,0.0,0,0
2026-06-16 16:11:24.995,2298152,R_Hip,0.0762,-1.0504,0.1111,0.91,-3.29,1.4,0.0,0.0,0.0,0.426862,-0.300394,0.571001,-0.633595,0.0,0.0,0.0,0,0
2026-06-16 16:11:24.998,2298292,L_Hip,-0.1801,0.8906,0.3964,-4.19,4.8,3.16,35.09,-5.52,-20.0,0.722098,0.397809,0.351024,0.443922,0.0,0.0,0.0,0,0
2026-06-16 16:11:24.999,2298172,R_Hip,0.0313,-1.0436,0.0919,1.34,-2.86,-0.39,-31.04,12.79,-16.9,0.426435,-0.30195,0.569384,-0.634602,0.0,0.0,0.0,0,0
2026-06-16 16:11:25.001,2298262,L_Shank,0.0233,-0.1139,0.9748,1.79,-1.19,-0.13,34.7,7.94,-16.12,0.517808,0.009003,-0.06473,0.852962,0.0,0.0,0.0,0,0
2026-06-16 16:11:25.002,2298122,R_Shank,-0.0037,1.3324,0.6607,1.15,-2.0,-8.54,-22.98,-18.16,-10.34,0.908902,0.028596,-0.018799,-0.41551,0.0,0.0,0.0,0,0
2026-06-16 16:11:25.004,2298263,L_Shank,0.0292,-0.0958,0.9681,1.77,-1.21,-0.16,0.0,0.0,0.0,0.51793,0.008881,-0.064638,0.852901,0.0,0.0,0.0,0,0
2026-06-16 16:11:25.006,2298142,R_Shank,0.008,0.8144,0.6525,1.41,-2.07,-8.62,0.0,0.0,0.0,0.908872,0.029237,-0.01944,-0.415571,0.0,0.0,0.0,0,0
2026-06-16 16:11:25.007,2298283,L_Shank,0.0248,-0.1119,0.9609,1.77,-1.21,-0.16,35.92,7.77,-15.97,0.518052,0.008728,-0.064547,0.85284,0.0,0.0,0.0,0,0
2026-06-16 16:11:25.010,2298162,R_Shank,0.007,-2.1452,0.6559,1.64,-2.2,-8.74,-23.46,-18.65,-11.09,0.90875,0.030183,-0.020478,-0.415723,0.0,0.0,0.0,0,0
2026-06-16 16:11:25.012,2298303,L_Shank,0.0272,-0.1022,0.9734,1.78,-1.23,-0.18,34.34,8.95,-15.51,0.518174,0.008576,-0.064486,0.852779,0.0,0.0,0.0,0,0
2026-06-16 16:11:25.015,2298182,R_Shank,0.0154,2.6012,0.6818,2.0,-2.57,-9.17,-22.79,-19.0,-10.8,0.908506,0.031373,-0.021882,-0.416089,0.0,0.0,0.0,0,0
2026-06-16 16:11:25.016,2298274,L_Hip,-0.1786,0.9083,0.3979,-4.14,4.67,3.18,35.1,-5.2,-19.71,0.722068,0.397778,0.351024,0.443953,0.0,0.0,0.0,0,0
2026-06-16 16:11:25.018,2298136,R_Ankle,0.38,-0.9029,1.2725,-1.05,-2.74,-0.9,-32.93,-10.44,-15.75,0.829554,0.084078,-0.083865,0.54564,0.0,0.0,0.0,0,0
2026-06-16 16:11:25.019,2298294,L_Hip,-0.1717,0.9063,0.3998,-4.14,4.62,3.15,36.64,-3.72,-19.6,0.722037,0.397809,0.350993,0.444014,0.0,0.0,0.0,0,0
2026-06-16 16:11:25.020,2298156,R_Ankle,0.0851,-0.0235,0.7471,3.74,-1.61,0.07,0.0,0.0,0.0,0.829676,0.077364,-0.089816,0.545457,0.0,0.0,0.0,0,0
2026-06-16 16:11:25.022,2298314,L_Hip,-0.1732,0.8985,0.3969,-4.16,4.58,3.12,0.0,0.0,0.0,0.721976,0.397839,0.350963,0.444075,0.0,0.0,0.0,0,0
2026-06-16 16:11:25.024,2298176,R_Ankle,0.1101,0.557,0.5871,5.83,-1.49,0.07,-31.55,-10.44,-14.81,0.829127,0.078646,-0.08948,0.54619,0.0,0.0,0.0,0,0
2026-06-16 16:11:25.025,2298334,L_Hip,-0.1698,0.9009,0.4047,-4.15,4.47,3.05,36.82,-3.87,-20.32,0.721915,0.3979,0.350932,0.444197,0.0,0.0,0.0,0,0
2026-06-16 16:11:25.027,2298196,R_Ankle,0.0395,0.1969,0.8443,2.52,-1.31,-0.26,-32.91,-10.78,-13.89,0.828913,0.081729,-0.087405,0.546403,0.0,0.0,0.0,0,0
2026-06-16 16:11:25.029,2298137,R_Hip,-0.1348,-1.0245,0.0813,1.38,-1.6,-1.22,-31.77,12.42,-16.21,0.42552,-0.303385,0.567736,-0.635975,0.0,0.0,0.0,0,0
2026-06-16 16:11:25.032,2298157,R_Hip,-0.2793,-1.0402,0.1044,0.49,-0.56,-0.61,-31.4,12.05,-16.9,0.424268,-0.304209,0.566698,-0.637379,0.0,0.0,0.0,0,0
2026-06-16 16:11:25.032,2298296,L_Hip,-0.1654,0.9073,0.4095,-4.15,4.35,2.87,35.43,-5.19,-19.72,0.721824,0.397931,0.350932,0.444288,0.0,0.0,0.0,0,0
2026-06-16 16:11:25.035,2298316,L_Hip,-0.1678,0.9034,0.3979,-4.12,4.32,2.87,35.27,-4.71,-19.57,0.721732,0.397961,0.350902,0.444411,0.0,0.0,0.0,0,0
2026-06-16 16:11:25.035,2298177,R_Hip,-0.3104,-1.0572,0.1193,-0.08,-0.35,-0.03,0.0,0.0,0.0,0.423109,-0.30427,0.566698,-0.638112,0.0,0.0,0.0,0,0
2026-06-16 16:11:25.038,2298336,L_Hip,-0.1683,0.9073,0.3935,-4.12,4.29,2.87,36.78,-5.49,-20.03,0.721641,0.397992,0.350932,0.444563,0.0,0.0,0.0,0,0
2026-06-16 16:11:25.039,2298197,R_Hip,-0.3424,-1.0817,0.1203,-0.9,-0.65,1.45,-29.95,11.69,-17.58,0.422559,-0.303873,0.567431,-0.63802,0.0,0.0,0.0,0,0
2026-06-16 16:11:25.042,2298297,L_Hip,-0.1634,0.9108,0.3819,-4.1,4.26,2.84,0.0,0.0,0.0,0.721519,0.398022,0.350932,0.444746,0.0,0.0,0.0,0,0
2026-06-16 16:11:25.043,2298157,R_Ankle,0.0797,-0.074,0.9607,1.61,-1.55,-0.84,-30.88,-12.34,-14.47,0.829096,0.082644,-0.086795,0.546068,0.0,0.0,0.0,0,0
2026-06-16 16:11:25.046,2298177,R_Ankle,0.0415,-0.1107,0.9526,1.58,-1.69,-0.49,0.0,0.0,0.0,0.829218,0.082919,-0.086612,0.545854,0.0,0.0,0.0,0,0
2026-06-16 16:11:25.047,2298310,L_Ankle,0.203,-0.1722,0.9453,5.33,-1.06,-10.26,35.59,8.63,-13.0,-0.367992,-0.077273,0.10886,-0.920164,0.0,0.0,0.0,0,0
2026-06-16 16:11:25.050,2298330,L_Ankle,0.2001,-0.1703,0.951,5.34,-1.05,-10.29,0.0,0.0,0.0,-0.367992,-0.077364,0.108921,-0.920164,0.0,0.0,0.0,0,0
2026-06-16 16:11:25.050,2298197,R_Ankle,0.1003,-0.0582,0.9823,1.55,-2.0,-0.07,-31.55,-11.72,-13.56,0.829096,0.083224,-0.086428,0.546037,0.0,0.0,0.0,0,0
2026-06-16 16:11:25.053,2298217,R_Ankle,0.0993,0.0259,0.9133,1.51,-2.0,0.28,-33.27,-12.36,-14.8,0.82873,0.083804,-0.086398,0.546495,0.0,0.0,0.0,0,0
2026-06-16 16:11:25.053,2298350,L_Ankle,0.2079,-0.1669,0.9558,5.34,-1.03,-10.32,35.09,9.53,-10.8,-0.367992,-0.077517,0.108951,-0.920133,0.0,0.0,0.0,0,0
2026-06-16 16:11:25.056,2298162,R_Hip,-0.2537,-1.1197,0.0596,-1.39,-2.4,3.06,-30.68,10.96,-17.23,0.422895,-0.303446,0.568468,-0.637104,0.0,0.0,0.0,0,0
2026-06-16 16:11:25.056,2298370,L_Ankle,0.2143,-0.1737,0.9534,5.33,-0.96,-10.35,33.55,7.26,-11.0,-0.367992,-0.077609,0.109043,-0.920133,0.0,0.0,0.0,0,0
2026-06-16 16:11:25.059,2298182,R_Hip,-0.118,-1.152,0.0567,-1.61,-3.73,3.19,-31.58,10.77,-16.38,0.423811,-0.303629,0.569353,-0.635578,0.0,0.0,0.0,0,0
2026-06-16 16:11:25.060,2298312,L_Shank,0.0238,-0.1114,0.9762,1.77,-1.29,-0.16,35.04,7.92,-14.88,0.518265,0.008393,-0.064425,0.852718,0.0,0.0,0.0,0,0
2026-06-16 16:11:25.062,2298332,L_Shank,0.0238,-0.111,0.9762,1.77,-1.28,-0.16,0.0,0.0,0.0,0.518326,0.008271,-0.064394,0.852687,0.0,0.0,0.0,0,0
2026-06-16 16:11:25.062,2298202,R_Hip,-0.0505,-1.1529,0.0736,-1.64,-4.2,3.04,0.0,0.0,0.0,0.424879,-0.304788,0.569842,-0.633869,0.0,0.0,0.0,0,0
2026-06-16 16:11:25.065,2298352,L_Shank,0.0409,-0.1139,0.97,1.77,-1.31,-0.16,34.87,7.08,-15.33,0.518357,0.008209,-0.064333,0.852687,0.0,0.0,0.0,0,0
2026-06-16 16:11:25.066,2298222,R_Hip,0.0067,-1.1471,0.0909,-1.63,-4.15,2.74,-32.5,11.32,-17.24,0.425733,-0.306467,0.569933,-0.632435,0.0,0.0,0.0,0,0
2026-06-16 16:11:25.069,2298372,L_Shank,0.0257,-0.1159,0.9647,1.77,-1.33,-0.15,35.39,8.27,-15.51,0.518326,0.008087,-0.064302,0.852687,0.0,0.0,0.0,0,0
2026-06-16 16:11:25.069,2298180,R_Ankle,0.1003,-0.0121,0.9468,0.6,-2.16,-0.43,-33.1,-11.56,-14.96,0.828486,0.084353,-0.086337,0.5468,0.0,0.0,0.0,0,0
2026-06-16 16:11:25.072,2298200,R_Ankle,0.1223,-0.0651,0.9775,0.37,-2.29,-0.44,0.0,0.0,0.0,0.828425,0.084658,-0.086489,0.5468,0.0,0.0,0.0,0,0
2026-06-16 16:11:25.075,2298220,R_Ankle,0.1189,-0.1211,1.0053,0.23,-2.35,-0.4,-31.38,-10.92,-14.34,0.828394,0.084689,-0.0871,0.5468,0.0,0.0,0.0,0,0
2026-06-16 16:11:25.078,2298341,L_Hip,-0.1742,0.8936,0.3775,-4.07,4.29,2.81,36.47,-4.52,-20.61,0.721335,0.398053,0.350932,0.44496,0.0,0.0,0.0,0,0
2026-06-16 16:11:25.079,2298240,R_Ankle,0.1654,-0.1934,1.0546,0.35,-2.58,0.06,-32.07,-12.2,-14.02,0.82815,0.084506,-0.088137,0.547014,0.0,0.0,0.0,0,0
2026-06-16 16:11:25.081,2298361,L_Hip,-0.1693,0.8896,0.3882,-4.05,4.33,2.79,37.8,-4.82,-19.75,0.721213,0.397992,0.350932,0.445204,0.0,0.0,0.0,0,0
2026-06-16 16:11:25.082,2298190,R_Shank,-0.0135,-0.6176,0.7357,2.87,-3.0,-10.08,-22.8,-18.01,-11.7,0.908109,0.032777,-0.023621,-0.416761,0.0,0.0,0.0,0,0
2026-06-16 16:11:25.084,2298381,L_Hip,-0.1712,0.8926,0.3945,-4.03,4.35,2.77,35.92,-5.99,-19.58,0.721091,0.397931,0.350963,0.445479,0.0,0.0,0.0,0,0
2026-06-16 16:11:25.085,2298210,R_Shank,-0.0091,0.7944,0.7784,3.13,-3.0,-10.27,-23.99,-17.82,-10.93,0.907529,0.034486,-0.025575,-0.417707,0.0,0.0,0.0,0,0
2026-06-16 16:11:25.086,2298342,L_Hip,-0.1766,0.9059,0.3901,-4.03,4.39,2.74,0.0,0.0,0.0,0.720969,0.39787,0.350993,0.445692,0.0,0.0,0.0,0,0
2026-06-16 16:11:25.088,2298230,R_Shank,-0.0783,-2.936,0.8332,3.41,-2.92,-10.45,-22.8,-18.01,-11.39,0.906858,0.036561,-0.027619,-0.418897,0.0,0.0,0.0,0,0
2026-06-16 16:11:25.091,2298250,R_Shank,-0.175,2.4248,1.4577,3.35,-2.53,-12.19,0.0,0.0,0.0,0.905789,0.039094,-0.029145,-0.42085,0.0,0.0,0.0,0,0
2026-06-16 16:11:25.093,2298202,R_Ankle,0.0606,-0.2048,1.0814,1.58,-2.58,1.22,-30.86,-10.12,-13.88,0.827723,0.084262,-0.089175,0.547533,0.0,0.0,0.0,0,0
2026-06-16 16:11:25.096,2298222,R_Ankle,0.0841,-0.2142,1.0872,1.77,-2.73,1.56,0.0,0.0,0.0,0.826991,0.084262,-0.089785,0.548509,0.0,0.0,0.0,0,0
2026-06-16 16:11:25.098,2298362,L_Shank,0.035,-0.1056,0.9748,1.77,-1.35,-0.1,35.05,7.94,-15.81,0.518296,0.007996,-0.064272,0.852718,0.0,0.0,0.0,0,0
2026-06-16 16:11:25.099,2298242,R_Ankle,0.1439,-0.2187,1.092,1.8,-2.93,2.03,-32.39,-11.58,-12.8,0.825983,0.084536,-0.090365,0.549913,0.0,0.0,0.0,0,0
2026-06-16 16:11:25.101,2298382,L_Shank,0.0477,-0.0933,0.9738,1.75,-1.35,-0.09,34.7,7.6,-16.12,0.518265,0.007965,-0.064241,0.852748,0.0,0.0,0.0,0,0
2026-06-16 16:11:25.101,2298262,R_Ankle,0.1022,-0.2083,1.125,1.74,-3.18,2.54,-31.04,-11.87,-13.71,0.824641,0.084933,-0.091403,0.551653,0.0,0.0,0.0,0,0
2026-06-16 16:11:25.103,2298402,L_Shank,0.0355,-0.0929,0.9849,1.72,-1.32,-0.09,0.0,0.0,0.0,0.518235,0.007935,-0.06418,0.852779,0.0,0.0,0.0,0,0
2026-06-16 16:11:25.105,2298212,R_Hip,-0.0273,-1.13,0.0818,-1.55,-2.63,2.87,-31.22,11.51,-17.06,0.42616,-0.30784,0.570147,-0.631275,0.0,0.0,0.0,0,0
2026-06-16 16:11:25.106,2298422,L_Shank,0.0257,-0.0973,0.9642,1.71,-1.32,-0.09,35.56,9.45,-15.06,0.518204,0.007935,-0.06415,0.852779,0.0,0.0,0.0,0,0
2026-06-16 16:11:25.108,2298232,R_Hip,-0.0593,-1.1061,0.0957,-1.52,-1.82,2.38,-32.13,11.32,-15.53,0.426283,-0.308695,0.570696,-0.630299,0.0,0.0,0.0,0,0
2026-06-16 16:11:25.109,2298252,R_Hip,-0.0771,-1.0807,0.0846,-1.48,-1.44,2.11,0.0,0.0,0.0,0.425947,-0.309275,0.571368,-0.629597,0.0,0.0,0.0,0,0
2026-06-16 16:11:25.111,2298272,R_Hip,-0.1244,-1.0148,0.0649,-1.36,-0.72,1.76,-32.13,12.05,-16.21,0.425245,-0.309549,0.572161,-0.629231,0.0,0.0,0.0,0,0
2026-06-16 16:11:25.114,2298225,R_Ankle,0.1164,-0.0215,1.0786,1.86,-2.87,2.83,-32.4,-11.89,-13.41,0.823176,0.08533,-0.092288,0.553667,0.0,0.0,0.0,0,0
2026-06-16 16:11:25.116,2298245,R_Ankle,0.1218,0.0314,1.0723,1.81,-2.59,2.39,0.0,0.0,0.0,0.82165,0.086062,-0.092868,0.555681,0.0,0.0,0.0,0,0
2026-06-16 16:11:25.118,2298265,R_Ankle,0.0841,0.0874,1.0786,1.65,-2.28,1.69,-32.91,-10.78,-13.89,0.820582,0.086856,-0.092929,0.557146,0.0,0.0,0.0,0,0
2026-06-16 16:11:25.120,2298285,R_Ankle,0.0091,0.0245,1.1547,0.57,-1.64,0.0,-31.87,-10.78,-12.34,0.820276,0.087069,-0.092471,0.557634,0.0,0.0,0.0,0,0
2026-06-16 16:11:25.123,2298235,R_Shank,0.4783,2.7108,1.9313,-4.85,-6.0,-14.38,-22.64,-17.84,-10.64,0.903745,0.040742,-0.029756,-0.425031,0.0,0.0,0.0,0,0
2026-06-16 16:11:25.126,2298236,R_Shank,0.4027,-2.0678,1.6777,-3.24,-2.22,-12.45,-21.29,-18.19,-10.36,0.9017,0.037629,-0.031831,-0.429456,0.0,0.0,0.0,0,0
2026-06-16 16:11:25.128,2298256,R_Shank,-0.1868,-0.5265,0.9874,-1.04,2.72,-11.09,0.0,0.0,0.0,0.900937,0.033601,-0.030915,-0.431471,0.0,0.0,0.0,0,0
2026-06-16 16:11:25.130,2298276,R_Shank,-0.5029,-0.3208,0.3999,0.85,2.01,-8.38,-23.43,-20.64,-10.8,0.900937,0.033601,-0.025941,-0.431806,0.0,0.0,0.0,0,0
2026-06-16 16:11:25.133,2298257,R_Shank,0.0542,-0.9032,0.8423,2.13,-2.69,-4.56,-22.65,-17.51,-10.64,0.901486,0.033296,-0.02533,-0.430738,0.0,0.0,0.0,0,0
2026-06-16 16:11:25.135,2298277,R_Shank,0.0458,0.3456,0.7933,2.16,-1.47,-4.06,-23.47,-19.3,-9.59,0.902463,0.033845,-0.027161,-0.42851,0.0,0.0,0.0,0,0
2026-06-16 16:11:25.138,2298297,R_Shank,0.038,-2.2392,0.7472,1.8,-0.95,-4.07,0.0,0.0,0.0,0.903684,0.035951,-0.028352,-0.425703,0.0,0.0,0.0,0,0
2026-06-16 16:11:25.140,2298317,R_Shank,0.0821,-3.1192,0.716,0.62,-1.94,-5.85,-22.43,-19.34,-12.01,0.904538,0.037721,-0.029664,-0.423658,0.0,0.0,0.0,0,0
2026-06-16 16:11:25.142,2298262,R_Hip,-0.1728,-0.8937,0.0331,-1.23,-0.3,2.14,-31.41,11.69,-17.92,0.424451,-0.309488,0.573199,-0.628834,0.0,0.0,0.0,0,0
2026-06-16 16:11:25.145,2298282,R_Hip,-0.1856,-0.8429,0.0182,-1.08,-0.61,2.5,-30.67,12.05,-16.21,0.423902,-0.309122,0.574358,-0.628346,0.0,0.0,0.0,0,0
2026-06-16 16:11:25.145,2298410,L_Hip,-0.1771,0.9,0.3974,-4.06,4.46,2.7,36.64,-4.36,-20.47,0.720878,0.397809,0.351024,0.445875,0.0,0.0,0.0,0,0
2026-06-16 16:11:25.147,2298302,R_Hip,-0.1812,-0.818,-0.0048,-0.96,-0.83,2.64,0.0,0.0,0.0,0.423688,-0.308695,0.575426,-0.627705,0.0,0.0,0.0,0,0
2026-06-16 16:11:25.149,2298430,L_Hip,-0.1869,0.898,0.395,-4.07,4.46,2.69,36.27,-4.37,-18.43,0.720786,0.397748,0.351024,0.446089,0.0,0.0,0.0,0,0
2026-06-16 16:11:25.150,2298322,R_Hip,-0.1634,-0.7814,0.0086,-0.64,-1.3,2.82,-31.59,12.6,-16.73,0.423841,-0.308329,0.576281,-0.627003,0.0,0.0,0.0,0,0
2026-06-16 16:11:25.152,2298450,L_Hip,-0.183,0.9049,0.3824,-4.07,4.48,2.7,35.62,-4.06,-19.29,0.720695,0.397748,0.351024,0.446242,0.0,0.0,0.0,0,0
2026-06-16 16:11:25.153,2298270,R_Ankle,-0.0118,0.0567,1.0944,-0.51,-1.74,-0.79,-32.88,-9.52,-12.37,0.82046,0.086459,-0.092044,0.557543,0.0,0.0,0.0,0,0
2026-06-16 16:11:25.155,2298470,L_Hip,-0.1914,0.8995,0.3727,-4.11,4.49,2.65,36.93,-5.65,-19.01,0.720634,0.397778,0.350932,0.446333,0.0,0.0,0.0,0,0
2026-06-16 16:11:25.156,2298290,R_Ankle,0.0689,0.02,1.0637,-0.43,-2.03,-0.62,0.0,0.0,0.0,0.820734,0.085604,-0.091739,0.557299,0.0,0.0,0.0,0,0
2026-06-16 16:11:25.158,2298310,R_Ankle,0.0875,0.0681,1.0182,0.08,-1.9,-0.72,-33.24,-9.51,-13.91,0.820917,0.085238,-0.091769,0.557115,0.0,0.0,0.0,0,0
2026-06-16 16:11:25.160,2298330,R_Ankle,0.0738,0.0601,0.9497,0.25,-1.35,-1.48,-31.53,-10.46,-12.96,0.821314,0.085269,-0.091372,0.556566,0.0,0.0,0.0,0,0
2026-06-16 16:11:25.162,2298288,R_Hip,-0.119,-0.7199,0.0076,0.02,-1.61,2.87,-30.49,12.24,-16.72,0.424207,-0.307993,0.57683,-0.626392,0.0,0.0,0.0,0,0
2026-06-16 16:11:25.165,2298308,R_Hip,-0.1013,-0.6789,-0.0158,0.56,-1.55,2.64,-31.22,12.97,-16.04,0.424665,-0.307596,0.577105,-0.626057,0.0,0.0,0.0,0,0
2026-06-16 16:11:25.167,2298431,L_Hip,-0.1948,0.898,0.394,-4.13,4.5,2.61,36.63,-4.68,-19.88,0.720634,0.397839,0.35081,0.446394,0.0,0.0,0.0,0,0
2026-06-16 16:11:25.168,2298328,R_Hip,-0.1032,-0.6667,-0.0134,0.82,-1.48,2.5,0.0,0.0,0.0,0.425031,-0.307169,0.577105,-0.626026,0.0,0.0,0.0,0,0
2026-06-16 16:11:25.171,2298432,L_Hip,-0.183,0.8896,0.3935,-4.14,4.48,2.6,37.11,-5.16,-18.87,0.720664,0.3979,0.350719,0.446364,0.0,0.0,0.0,0,0
2026-06-16 16:11:25.172,2298348,R_Hip,-0.0845,-0.6569,-0.0255,1.36,-1.22,2.09,-31.22,11.87,-16.04,0.425245,-0.30665,0.576861,-0.626362,0.0,0.0,0.0,0,0
2026-06-16 16:11:25.174,2298452,L_Hip,-0.1918,0.8916,0.379,-4.16,4.46,2.61,37.66,-4.02,-20.19,0.720756,0.397931,0.350566,0.446333,0.0,0.0,0.0,0,0
2026-06-16 16:11:25.174,2298293,R_Ankle,0.1047,0.0373,0.7902,0.09,-1.38,-0.9,-32.56,-9.82,-13.59,0.821772,0.085025,-0.091098,0.555986,0.0,0.0,0.0,0,0
2026-06-16 16:11:25.177,2298472,L_Hip,-0.2026,0.8911,0.3853,-4.18,4.43,2.65,37.14,-4.51,-20.04,0.720817,0.398053,0.350444,0.446242,0.0,0.0,0.0,0,0
2026-06-16 16:11:25.177,2298313,R_Ankle,0.1301,0.0814,0.7768,0.12,-1.48,-0.63,0.0,0.0,0.0,0.822047,0.08475,-0.091006,0.55562,0.0,0.0,0.0,0,0
2026-06-16 16:11:25.180,2298436,L_Shank,0.0228,-0.1119,0.9786,1.67,-1.45,-0.04,34.7,8.28,-16.44,0.518204,0.007935,-0.064119,0.852779,0.0,0.0,0.0,0,0
2026-06-16 16:11:25.180,2298333,R_Ankle,0.16,0.1275,0.7461,0.19,-1.57,-0.41,-32.39,-9.98,-14.05,0.822108,0.084841,-0.091098,0.555498,0.0,0.0,0.0,0,0
2026-06-16 16:11:25.183,2298437,L_Shank,0.0252,-0.1105,0.9657,1.67,-1.45,-0.02,35.38,7.58,-14.88,0.518174,0.007965,-0.064119,0.852809,0.0,0.0,0.0,0,0
2026-06-16 16:11:25.184,2298353,R_Ankle,0.1693,0.1805,0.6954,0.41,-1.61,-0.26,-31.73,-11.23,-14.65,0.822047,0.085421,-0.091189,0.555498,0.0,0.0,0.0,0,0
2026-06-16 16:11:25.185,2298457,L_Shank,0.0282,-0.1261,0.9815,1.65,-1.42,0.06,0.0,0.0,0.0,0.518143,0.007996,-0.064119,0.852809,0.0,0.0,0.0,0,0
2026-06-16 16:11:25.187,2298303,R_Shank,0.0316,-3.012,1.193,-0.32,-0.13,-5.92,-23.96,-19.14,-11.54,0.902463,0.03531,-0.030244,-0.428205,0.0,0.0,0.0,0,0
2026-06-16 16:11:25.188,2298477,L_Shank,0.0311,-0.1173,0.9873,1.68,-1.4,0.12,35.22,7.77,-16.28,0.518113,0.008057,-0.06415,0.85284,0.0,0.0,0.0,0,0
2026-06-16 16:11:25.190,2298323,R_Shank,0.0591,-1.9892,1.1647,-0.46,0.28,-4.97,-22.09,-19.35,-12.01,0.903104,0.034944,-0.029176,-0.426954,0.0,0.0,0.0,0,0
2026-06-16 16:11:25.192,2298444,L_Ankle,0.2114,-0.1757,0.9385,5.38,-0.87,-10.34,33.67,10.26,-11.16,-0.367962,-0.0777,0.109165,-0.920103,0.0,0.0,0.0,0,0
2026-06-16 16:11:25.194,2298343,R_Shank,0.0527,0.9572,1.1704,-0.62,0.74,-4.25,0.0,0.0,0.0,0.904294,0.03473,-0.027863,-0.424512,0.0,0.0,0.0,0,0
2026-06-16 16:11:25.196,2298464,L_Ankle,0.2177,-0.1791,0.9477,5.41,-0.83,-10.35,0.0,0.0,0.0,-0.367901,-0.077792,0.109287,-0.920103,0.0,0.0,0.0,0,0
2026-06-16 16:11:25.198,2298363,R_Shank,0.0522,-1.4908,1.0998,-1.03,1.33,-3.35,-24.29,-19.79,-10.34,0.90582,0.034669,-0.026124,-0.421369,0.0,0.0,0.0,0,0
2026-06-16 16:11:25.200,2298484,L_Ankle,0.2084,-0.1732,0.9568,5.41,-0.81,-10.33,34.54,9.01,-12.34,-0.36784,-0.077914,0.109409,-0.920103,0.0,0.0,0.0,0,0
2026-06-16 16:11:25.202,2298325,R_Shank,0.0424,-1.252,1.0335,-1.89,-1.08,-3.15,-23.29,-19.15,-10.95,0.907468,0.034272,-0.024476,-0.417951,0.0,0.0,0.0,0,0
2026-06-16 16:11:25.203,2298504,L_Ankle,0.2001,-0.1771,0.9506,5.45,-0.77,-10.3,33.5,9.38,-11.68,-0.367748,-0.078066,0.10947,-0.920133,0.0,0.0,0.0,0,0
2026-06-16 16:11:25.205,2298345,R_Shank,0.0149,-0.624,1.0609,-1.96,-1.78,-3.4,-23.12,-18.34,-12.3,0.909085,0.033235,-0.023804,-0.414563,0.0,0.0,0.0,0,0
2026-06-16 16:11:25.207,2298454,L_Hip,-0.2046,0.8793,0.3858,-4.19,4.35,2.7,37.13,-4.84,-20.04,0.720878,0.398144,0.350322,0.44612,0.0,0.0,0.0,0,0
2026-06-16 16:11:25.208,2298365,R_Shank,0.0007,1.1628,1.1099,-1.94,-2.22,-3.78,0.0,0.0,0.0,0.910489,0.032014,-0.023988,-0.411512,0.0,0.0,0.0,0,0
2026-06-16 16:11:25.210,2298474,L_Hip,-0.21,0.8842,0.3959,-4.18,4.35,2.71,0.0,0.0,0.0,0.720969,0.398236,0.3502,0.445997,0.0,0.0,0.0,0,0
2026-06-16 16:11:25.211,2298385,R_Shank,0.0046,-1.5644,1.1892,-1.8,-2.41,-5.01,-23.32,-17.17,-11.23,0.911588,0.03119,-0.024445,-0.409162,0.0,0.0,0.0,0,0
2026-06-16 16:11:25.213,2298494,L_Hip,-0.2002,0.8936,0.3916,-4.19,4.34,2.73,35.95,-5.02,-19.87,0.72103,0.398358,0.350169,0.445845,0.0,0.0,0.0,0,0
2026-06-16 16:11:25.214,2298337,R_Hip,-0.0963,-0.6882,-0.0072,2.08,-0.86,1.34,-30.31,11.32,-15.86,0.425245,-0.30607,0.576342,-0.627094,0.0,0.0,0.0,0,0
2026-06-16 16:11:25.216,2298514,L_Hip,-0.1992,0.897,0.3988,-4.19,4.38,2.8,36.11,-4.54,-19.15,0.721091,0.398419,0.350139,0.445692,0.0,0.0,0.0,0,0
2026-06-16 16:11:25.217,2298357,R_Hip,-0.1067,-0.7155,0.0009,2.46,-0.76,0.72,-30.86,12.6,-16.38,0.425031,-0.30549,0.575579,-0.628224,0.0,0.0,0.0,0,0
2026-06-16 16:11:25.219,2298461,L_Shank,0.0428,-0.1075,0.97,1.7,-1.36,0.07,34.52,8.44,-15.66,0.518082,0.008118,-0.06418,0.85287,0.0,0.0,0.0,0,0
2026-06-16 16:11:25.220,2298377,R_Hip,-0.1249,-0.7512,0.0052,2.89,-0.78,0.19,-31.22,11.14,-16.38,0.424604,-0.305002,0.574572,-0.629688,0.0,0.0,0.0,0,0
2026-06-16 16:11:25.221,2298462,L_Shank,0.0546,-0.1061,0.969,1.69,-1.38,-0.02,35.21,7.08,-15.34,0.518021,0.008148,-0.064211,0.852901,0.0,0.0,0.0,0,0
2026-06-16 16:11:25.223,2298397,R_Hip,-0.1368,-0.7565,0.011,3.1,-0.82,-0.03,0.0,0.0,0.0,0.424085,-0.304544,0.57326,-0.631458,0.0,0.0,0.0,0,0
2026-06-16 16:11:25.225,2298482,L_Shank,0.0507,-0.1007,0.9695,1.7,-1.4,-0.22,0.0,0.0,0.0,0.51796,0.00824,-0.064272,0.852931,0.0,0.0,0.0,0,0
2026-06-16 16:11:25.226,2298347,R_Shank,-0.011,-1.3612,0.7741,-1.32,-1.39,-9.74,-22.5,-16.35,-10.78,0.911527,0.02768,-0.022187,-0.40968,0.0,0.0,0.0,0,0
2026-06-16 16:11:25.228,2298502,L_Shank,0.0673,-0.1242,0.9743,1.7,-1.41,-0.27,35.39,8.62,-15.83,0.517869,0.008362,-0.064272,0.852962,0.0,0.0,0.0,0,0
2026-06-16 16:11:25.229,2298367,R_Shank,-0.0179,-2.3912,0.7217,-1.18,-1.54,-9.54,0.0,0.0,0.0,0.911161,0.026917,-0.021729,-0.410566,0.0,0.0,0.0,0,0
2026-06-16 16:11:25.231,2298489,L_Ankle,0.2084,-0.1649,0.9635,5.48,-0.68,-10.33,36.3,10.76,-10.26,-0.367687,-0.078219,0.109592,-0.920133,0.0,0.0,0.0,0,0
2026-06-16 16:11:25.232,2298387,R_Shank,-0.0179,0.0504,0.7121,-1.03,-1.7,-9.32,-24.84,-17.31,-11.07,0.910886,0.026276,-0.021546,-0.411237,0.0,0.0,0.0,0,0
2026-06-16 16:11:25.234,2298509,L_Ankle,0.204,-0.1669,0.9707,5.48,-0.67,-10.32,34.9,9.71,-11.31,-0.367656,-0.07831,0.109714,-0.920103,0.0,0.0,0.0,0,0
2026-06-16 16:11:25.235,2298407,R_Shank,-0.037,-1.232,0.6761,-0.61,-1.92,-8.95,-23.64,-18.81,-10.64,0.910703,0.025849,-0.021607,-0.411634,0.0,0.0,0.0,0,0
2026-06-16 16:11:25.236,2298529,L_Ankle,0.2011,-0.162,0.9424,5.48,-0.67,-10.34,0.0,0.0,0.0,-0.367656,-0.078463,0.109806,-0.920103,0.0,0.0,0.0,0,0
2026-06-16 16:11:25.237,2298360,R_Ankle,0.1448,0.1716,0.7117,0.72,-1.77,-0.62,-32.06,-10.29,-14.35,0.821986,0.086337,-0.091159,0.555437,0.0,0.0,0.0,0,0
2026-06-16 16:11:25.239,2298549,L_Ankle,0.2075,-0.1766,0.9626,5.49,-0.64,-10.33,34.04,9.55,-10.47,-0.367656,-0.078524,0.109867,-0.920072,0.0,0.0,0.0,0,0
2026-06-16 16:11:25.240,2298380,R_Ankle,0.1238,0.1453,0.7179,0.81,-1.83,-0.74,0.0,0.0,0.0,0.822016,0.087344,-0.091037,0.555284,0.0,0.0,0.0,0,0
2026-06-16 16:11:25.242,2298499,L_Hip,-0.1977,0.8842,0.3867,-4.17,4.44,2.87,36.14,-4.21,-20.6,0.721152,0.39848,0.350169,0.445509,0.0,0.0,0.0,0,0
2026-06-16 16:11:25.243,2298361,R_Ankle,0.1282,0.1374,0.6891,0.92,-1.87,-0.78,-32.57,-10.45,-14.51,0.822108,0.088321,-0.090945,0.55501,0.0,0.0,0.0,0,0
2026-06-16 16:11:25.244,2298519,L_Hip,-0.2061,0.8867,0.3872,-4.18,4.45,2.9,0.0,0.0,0.0,0.721213,0.398511,0.3502,0.445357,0.0,0.0,0.0,0,0
2026-06-16 16:11:25.245,2298381,R_Ankle,0.1473,0.1334,0.6911,1.08,-2.0,-0.57,-33.09,-11.57,-14.35,0.822108,0.089389,-0.090884,0.554827,0.0,0.0,0.0,0,0
2026-06-16 16:11:25.247,2298539,L_Hip,-0.2036,0.8911,0.3926,-4.16,4.48,2.96,35.79,-3.9,-19.15,0.721274,0.398511,0.350261,0.445204,0.0,0.0,0.0,0,0
2026-06-16 16:11:25.248,2298362,R_Hip,-0.1323,-1.0865,-0.0255,4.0,-1.64,-0.61,-30.68,11.69,-17.92,0.423627,-0.304178,0.571581,-0.633442,0.0,0.0,0.0,0,0
2026-06-16 16:11:25.250,2298559,L_Hip,-0.2041,0.8896,0.3926,-4.15,4.54,3.01,37.3,-4.35,-19.31,0.721335,0.398511,0.350352,0.445051,0.0,0.0,0.0,0,0
2026-06-16 16:11:25.251,2298382,R_Hip,-0.2285,-1.3731,-0.1015,4.25,-1.96,-0.61,-31.22,12.24,-16.72,0.423231,-0.304056,0.569658,-0.635487,0.0,0.0,0.0,0,0
2026-06-16 16:11:25.253,2298402,R_Hip,-0.2798,-1.6074,-0.1458,4.38,-2.64,-1.25,-31.22,11.14,-16.38,0.422987,-0.304453,0.567492,-0.63741,0.0,0.0,0.0,0,0
2026-06-16 16:11:25.254,2298422,R_Hip,0.0377,-2.0155,0.1429,2.91,-5.64,-3.9,0.0,0.0,0.0,0.422346,-0.307321,0.564867,-0.638783,0.0,0.0,0.0,0,0
2026-06-16 16:11:25.271,2298536,L_Shank,0.0546,-0.1105,0.969,1.82,-1.09,-0.36,37.14,8.96,-15.85,0.517228,0.008637,-0.06476,0.853328,0.0,0.0,0.0,0,0
2026-06-16 16:11:25.273,2298556,L_Shank,0.0594,-0.1144,0.9772,1.82,-1.09,-0.37,34.17,8.11,-15.96,0.516984,0.008698,-0.064852,0.85345,0.0,0.0,0.0,0,0
2026-06-16 16:11:25.275,2298537,L_Shank,0.0565,-0.111,0.9724,1.83,-1.06,-0.38,0.0,0.0,0.0,0.516861,0.008789,-0.064974,0.853542,0.0,0.0,0.0,0,0
2026-06-16 16:11:25.276,2298557,L_Shank,0.0511,-0.1056,0.9772,1.83,-1.06,-0.38,34.88,8.45,-16.28,0.516831,0.008942,-0.065065,0.853542,0.0,0.0,0.0,0,0
2026-06-16 16:11:25.279,2298412,R_Hip,-0.2093,-1.6738,0.6126,-2.58,-0.42,-3.77,-30.67,11.69,-16.21,0.420423,-0.311747,0.562334,-0.640126,0.0,0.0,0.0,0,0
2026-06-16 16:11:25.281,2298432,R_Hip,-0.4327,-1.3384,0.3056,-2.15,5.41,1.09,-31.41,11.69,-17.92,0.417005,-0.312632,0.56212,-0.642109,0.0,0.0,0.0,0,0
2026-06-16 16:11:25.283,2298452,R_Hip,-0.5876,-0.7731,-0.0539,-1.79,5.11,3.8,0.0,0.0,0.0,0.414991,-0.308878,0.565538,-0.642232,0.0,0.0,0.0,0,0
2026-06-16 16:11:25.285,2298472,R_Hip,-0.3326,-0.4675,-0.1622,-1.39,0.83,8.41,-32.14,11.69,-18.26,0.416425,-0.304605,0.569445,-0.639882,0.0,0.0,0.0,0,0
2026-06-16 16:11:25.288,2298415,R_Shank,-0.013,-2.3844,0.6357,0.54,-1.77,-8.88,-22.65,-17.18,-10.94,0.910581,0.025727,-0.02179,-0.411908,0.0,0.0,0.0,0,0
2026-06-16 16:11:25.289,2298435,R_Shank,-0.0081,-1.232,0.6468,0.82,-1.81,-8.93,0.0,0.0,0.0,0.910428,0.025971,-0.022034,-0.412183,0.0,0.0,0.0,0,0
2026-06-16 16:11:25.291,2298455,R_Shank,0.0031,-0.9792,0.6617,1.04,-1.94,-9.03,-24.02,-16.81,-9.71,0.910245,0.026521,-0.022614,-0.412519,0.0,0.0,0.0,0,0
2026-06-16 16:11:25.293,2298475,R_Shank,0.0159,0.6848,0.6549,1.46,-2.45,-9.25,-22.64,-17.19,-11.84,0.910001,0.027314,-0.023652,-0.413007,0.0,0.0,0.0,0,0
2026-06-16 16:11:25.295,2298427,R_Ankle,0.1409,0.231,0.8228,1.33,-2.29,-0.19,-32.4,-10.93,-14.04,0.821955,0.090609,-0.090915,0.554827,0.0,0.0,0.0,0,0
2026-06-16 16:11:25.297,2298561,L_Shank,0.0404,-0.108,0.9566,1.82,-1.0,-0.32,33.82,8.1,-15.34,0.516861,0.009125,-0.065249,0.853511,0.0,0.0,0.0,0,0
2026-06-16 16:11:25.298,2298447,R_Ankle,0.2272,0.2657,0.9655,1.29,-2.87,-0.29,-32.56,-9.5,-13.9,0.821772,0.092013,-0.090945,0.554918,0.0,0.0,0.0,0,0
2026-06-16 16:11:25.300,2298581,L_Shank,0.0423,-0.1149,0.9772,1.83,-1.01,-0.32,34.88,8.11,-16.28,0.516953,0.009278,-0.065401,0.85345,0.0,0.0,0.0,0,0
2026-06-16 16:11:25.300,2298467,R_Ankle,0.138,0.1017,0.8314,0.76,-2.6,-1.23,0.0,0.0,0.0,0.821589,0.093875,-0.090762,0.554857,0.0,0.0,0.0,0,0
2026-06-16 16:11:25.302,2298601,L_Shank,0.0238,-0.1031,0.9767,1.83,-1.0,-0.32,35.56,9.12,-15.37,0.516984,0.009369,-0.065523,0.85342,0.0,0.0,0.0,0,0
2026-06-16 16:11:25.303,2298487,R_Ankle,0.0571,0.238,0.8563,0.98,-2.51,-2.09,-31.73,-11.88,-14.02,0.821986,0.095218,-0.090945,0.554033,0.0,0.0,0.0,0,0
2026-06-16 16:11:25.304,2298621,L_Shank,0.0316,-0.1066,0.9642,1.81,-1.01,-0.35,0.0,0.0,0.0,0.516984,0.009461,-0.065584,0.853389,0.0,0.0,0.0,0,0
2026-06-16 16:11:25.306,2298566,L_Hip,-0.2017,0.8931,0.3979,-4.16,4.61,3.07,37.14,-3.55,-19.17,0.721427,0.39845,0.350475,0.444838,0.0,0.0,0.0,0,0
2026-06-16 16:11:25.309,2298586,L_Hip,-0.2095,0.8926,0.3761,-4.15,4.63,3.11,0.0,0.0,0.0,0.721519,0.398389,0.350597,0.444655,0.0,0.0,0.0,0,0
2026-06-16 16:11:25.311,2298606,L_Hip,-0.2017,0.8955,0.3921,-4.13,4.64,3.14,37.13,-4.52,-19.46,0.721641,0.398297,0.350719,0.444441,0.0,0.0,0.0,0,0
2026-06-16 16:11:25.312,2298626,L_Hip,-0.2056,0.8862,0.393,-4.15,4.69,3.23,34.78,-4.23,-20.0,0.721793,0.398206,0.35078,0.444227,0.0,0.0,0.0,0,0
2026-06-16 16:11:25.315,2298579,L_Ankle,0.1967,-0.1722,0.9626,5.47,-0.61,-10.31,34.03,10.62,-10.47,-0.367718,-0.078616,0.109958,-0.920042,0.0,0.0,0.0,0,0
2026-06-16 16:11:25.317,2298450,R_Ankle,0.1512,-1.0847,2.0159,-1.78,0.48,-4.11,-32.23,-11.41,-13.26,0.823878,0.093173,-0.08948,0.551805,0.0,0.0,0.0,0,0
2026-06-16 16:11:25.318,2298599,L_Ankle,0.2006,-0.1732,0.9611,5.47,-0.63,-10.3,33.83,10.44,-11.67,-0.367748,-0.078677,0.109989,-0.920011,0.0,0.0,0.0,0,0
2026-06-16 16:11:25.320,2298470,R_Ankle,0.5138,-1.1758,1.6835,-1.04,-0.94,-1.49,-30.52,-12.04,-12.62,0.826136,0.086978,-0.0871,0.549821,0.0,0.0,0.0,0,0
2026-06-16 16:11:25.320,2298619,L_Ankle,0.2016,-0.1698,0.9467,5.47,-0.62,-10.3,0.0,0.0,0.0,-0.367779,-0.078707,0.110019,-0.920011,0.0,0.0,0.0,0,0
2026-06-16 16:11:25.323,2298490,R_Ankle,0.922,-0.5239,0.8065,1.52,-4.2,1.61,0.0,0.0,0.0,0.825922,0.082949,-0.090152,0.550279,0.0,0.0,0.0,0,0
2026-06-16 16:11:25.323,2298639,L_Ankle,0.2011,-0.1595,0.9438,5.45,-0.62,-10.3,35.07,10.24,-11.47,-0.367779,-0.078707,0.109989,-0.920011,0.0,0.0,0.0,0,0
2026-06-16 16:11:25.325,2298510,R_Ankle,0.6074,-0.0527,0.8898,2.72,-2.48,1.1,-31.37,-10.92,-13.72,0.824549,0.08359,-0.094485,0.5515,0.0,0.0,0.0,0,0
2026-06-16 16:11:25.329,2298462,R_Hip,-0.0584,-0.5119,-0.0601,-0.16,-3.37,9.67,-31.41,12.79,-18.61,0.420118,-0.301431,0.572314,-0.636433,0.0,0.0,0.0,0,0
2026-06-16 16:11:25.330,2298482,R_Hip,0.0224,-0.735,0.0115,0.2,-3.9,7.03,-29.58,12.42,-15.87,0.424085,-0.299509,0.573565,-0.633564,0.0,0.0,0.0,0,0
2026-06-16 16:11:25.332,2298502,R_Hip,0.0673,-0.8449,0.0384,0.3,-3.69,5.33,0.0,0.0,0.0,0.426649,-0.299051,0.573717,-0.631947,0.0,0.0,0.0,0,0
2026-06-16 16:11:25.334,2298522,R_Hip,0.0584,-0.964,0.0769,0.63,-2.95,2.1,-31.59,12.6,-17.07,0.427381,-0.299753,0.573046,-0.631703,0.0,0.0,0.0,0,0
2026-06-16 16:11:25.354,2298487,R_Hip,-0.0347,-1.0431,0.0899,1.19,-2.34,-0.99,-30.86,12.24,-17.41,0.426893,-0.301096,0.571795,-0.632527,0.0,0.0,0.0,0,0
2026-06-16 16:11:25.356,2298507,R_Hip,-0.1447,-1.0856,0.0866,1.22,-1.61,-1.93,-29.77,11.87,-17.75,0.425703,-0.302683,0.570299,-0.63393,0.0,0.0,0.0,0,0
2026-06-16 16:11:25.359,2298527,R_Hip,-0.2251,-1.1202,0.1164,0.99,-1.17,-1.91,0.0,0.0,0.0,0.424085,-0.303903,0.569109,-0.635517,0.0,0.0,0.0,0,0
2026-06-16 16:11:25.360,2298624,L_Ankle,0.2016,-0.1649,0.9573,5.46,-0.63,-10.29,34.75,9.19,-10.46,-0.367809,-0.078646,0.109958,-0.920011,0.0,0.0,0.0,0,0
2026-06-16 16:11:25.361,2298547,R_Hip,-0.3429,-1.1832,0.1535,0.14,-0.67,-1.01,-31.04,11.69,-17.24,0.422651,-0.304453,0.568682,-0.636586,0.0,0.0,0.0,0,0
2026-06-16 16:11:25.362,2298644,L_Ankle,0.2026,-0.1718,0.9674,5.46,-0.63,-10.28,32.63,10.28,-10.84,-0.36784,-0.078585,0.109867,-0.920011,0.0,0.0,0.0,0,0
2026-06-16 16:11:25.364,2298664,L_Ankle,0.1952,-0.1659,0.9597,5.45,-0.61,-10.27,0.0,0.0,0.0,-0.36787,-0.078524,0.109775,-0.920011,0.0,0.0,0.0,0,0
2026-06-16 16:11:25.367,2298684,L_Ankle,0.1996,-0.1547,0.9506,5.45,-0.61,-10.25,33.87,9.38,-10.65,-0.367901,-0.078402,0.109653,-0.920011,0.0,0.0,0.0,0,0
2026-06-16 16:11:25.370,2298635,L_Hip,-0.1874,0.8941,0.3974,-4.22,4.8,3.31,36.48,-3.56,-19.74,0.721946,0.398114,0.350841,0.444044,0.0,0.0,0.0,0,0
2026-06-16 16:11:25.372,2298505,R_Shank,-0.0071,-0.9928,0.6818,2.48,-3.77,-9.73,-23.48,-17.66,-11.38,0.909635,0.02826,-0.02533,-0.413617,0.0,0.0,0.0,0,0
2026-06-16 16:11:25.372,2298655,L_Hip,-0.1918,0.8906,0.3809,-4.22,4.8,3.32,0.0,0.0,0.0,0.722068,0.398053,0.350871,0.443831,0.0,0.0,0.0,0,0
2026-06-16 16:11:25.374,2298525,R_Shank,-0.0076,2.8604,0.7698,3.07,-4.18,-10.0,-23.17,-17.0,-10.48,0.909177,0.02942,-0.027528,-0.414411,0.0,0.0,0.0,0,0
2026-06-16 16:11:25.375,2298675,L_Hip,-0.1874,0.9,0.3901,-4.24,4.81,3.31,36.8,-4.84,-20.61,0.722221,0.397992,0.350871,0.443648,0.0,0.0,0.0,0,0
2026-06-16 16:11:25.377,2298545,R_Shank,-0.0208,2.8604,0.7904,3.35,-4.28,-10.1,0.0,0.0,0.0,0.908628,0.030854,-0.030122,-0.415357,0.0,0.0,0.0,0,0
2026-06-16 16:11:25.378,2298695,L_Hip,-0.186,0.899,0.3906,-4.25,4.83,3.27,36.13,-4.21,-20.02,0.722404,0.3979,0.350871,0.443464,0.0,0.0,0.0,0,0
2026-06-16 16:11:25.379,2298565,R_Shank,-0.0788,2.342,0.9144,3.52,-4.25,-10.25,-22.97,-18.49,-10.64,0.907956,0.032563,-0.03296,-0.416456,0.0,0.0,0.0,0,0
2026-06-16 16:11:25.380,2298715,L_Hip,-0.1914,0.8965,0.4027,-4.17,4.8,3.25,36.31,-4.36,-20.75,0.722495,0.39787,0.350871,0.443312,0.0,0.0,0.0,0,0
2026-06-16 16:11:25.382,2298735,L_Hip,-0.1806,0.9059,0.4017,-4.15,4.76,3.29,0.0,0.0,0.0,0.722617,0.397809,0.350871,0.44319,0.0,0.0,0.0,0,0
2026-06-16 16:11:25.384,2298755,L_Hip,-0.1781,0.9044,0.3984,-4.13,4.72,3.29,36.12,-4.85,-20.02,0.722678,0.397748,0.350871,0.443129,0.0,0.0,0.0,0,0
2026-06-16 16:11:25.385,2298775,L_Hip,-0.182,0.8995,0.4076,-4.13,4.61,3.27,36.1,-5.5,-19.73,0.722709,0.397717,0.350871,0.443098,0.0,0.0,0.0,0,0
2026-06-16 16:11:25.387,2298636,L_Shank,0.0414,-0.1119,0.9806,1.82,-1.01,-0.36,35.75,7.94,-16.13,0.517014,0.009491,-0.065615,0.853389,0.0,0.0,0.0,0,0
2026-06-16 16:11:25.389,2298656,L_Shank,0.0375,-0.0973,0.9734,1.8,-1.0,-0.35,35.05,8.28,-16.44,0.517075,0.009491,-0.065615,0.853359,0.0,0.0,0.0,0,0
2026-06-16 16:11:25.390,2298676,L_Shank,0.0409,-0.1105,0.9642,1.8,-1.0,-0.34,0.0,0.0,0.0,0.517167,0.009522,-0.065584,0.853298,0.0,0.0,0.0,0,0
2026-06-16 16:11:25.392,2298696,L_Shank,0.0404,-0.1114,0.9849,1.8,-0.96,-0.27,33.64,7.92,-14.55,0.517289,0.009522,-0.065554,0.853206,0.0,0.0,0.0,0,0
2026-06-16 16:11:25.394,2298657,L_Hip,-0.1688,0.9059,0.4158,-4.13,4.47,3.12,35.62,-3.74,-19.29,0.722709,0.397687,0.350902,0.443098,0.0,0.0,0.0,0,0
2026-06-16 16:11:25.396,2298677,L_Hip,-0.1678,0.9049,0.409,-4.12,4.43,3.08,36.27,-5.66,-19.87,0.722709,0.397656,0.350932,0.443159,0.0,0.0,0.0,0,0
2026-06-16 16:11:25.398,2298697,L_Hip,-0.1624,0.9024,0.3896,-4.11,4.39,3.04,0.0,0.0,0.0,0.722648,0.397595,0.350963,0.44322,0.0,0.0,0.0,0,0
2026-06-16 16:11:25.400,2298717,L_Hip,-0.16,0.899,0.3819,-4.09,4.33,3.01,36.29,-4.05,-19.3,0.722556,0.397595,0.351024,0.443312,0.0,0.0,0.0,0,0
2026-06-16 16:11:25.402,2298661,L_Shank,0.0218,-0.1007,0.9863,1.74,-1.22,-0.12,33.47,8.44,-15.34,0.518082,0.00882,-0.064516,0.852809,0.0,0.0,0.0,0,0
2026-06-16 16:11:25.404,2298662,L_Shank,0.0204,-0.1095,0.9825,1.75,-1.25,-0.1,0.0,0.0,0.0,0.518113,0.008667,-0.064394,0.852809,0.0,0.0,0.0,0,0
2026-06-16 16:11:25.406,2298538,R_Hip,-0.302,-1.1607,0.102,-0.91,-1.5,1.05,-30.86,12.23,-16.04,0.421857,-0.304514,0.568957,-0.63683,0.0,0.0,0.0,0,0
2026-06-16 16:11:25.407,2298682,L_Shank,0.0204,-0.1159,0.9897,1.75,-1.25,-0.09,35.05,8.28,-15.82,0.518143,0.008545,-0.064241,0.852809,0.0,0.0,0.0,0,0
2026-06-16 16:11:25.409,2298558,R_Hip,-0.1772,-1.1412,0.0692,-1.32,-2.61,2.13,-31.59,12.24,-16.38,0.421857,-0.304666,0.569536,-0.63625,0.0,0.0,0.0,0,0
2026-06-16 16:11:25.409,2298702,L_Shank,0.012,-0.0953,0.9556,1.73,-1.27,-0.12,33.12,6.75,-15.62,0.518174,0.008454,-0.064119,0.852809,0.0,0.0,0.0,0,0
2026-06-16 16:11:25.411,2298578,R_Hip,-0.1294,-1.1563,0.063,-1.5,-3.03,2.45,0.0,0.0,0.0,0.422315,-0.305368,0.570116,-0.63506,0.0,0.0,0.0,0,0
2026-06-16 16:11:25.413,2298669,L_Ankle,0.1957,-0.1566,0.9674,5.41,-0.61,-10.26,34.21,9.37,-10.98,-0.367931,-0.07831,0.109592,-0.920042,0.0,0.0,0.0,0,0
2026-06-16 16:11:25.415,2298598,R_Hip,-0.0253,-1.1778,0.0702,-1.8,-3.54,2.66,-30.31,10.59,-16.89,0.422834,-0.30665,0.570635,-0.633656,0.0,0.0,0.0,0,0
2026-06-16 16:11:25.416,2298689,L_Ankle,0.1883,-0.1698,0.9501,5.4,-0.64,-10.26,33.51,9.38,-11.34,-0.367931,-0.078158,0.1095,-0.920042,0.0,0.0,0.0,0,0
2026-06-16 16:11:25.419,2298550,R_Shank,0.0178,1.4984,1.9313,-0.67,-3.39,-14.93,-23.46,-18.99,-11.09,0.906919,0.034516,-0.035066,-0.418409,0.0,0.0,0.0,0,0
2026-06-16 16:11:25.419,2298709,L_Ankle,0.1908,-0.1537,0.9506,5.39,-0.64,-10.27,0.0,0.0,0.0,-0.367962,-0.078036,0.109378,-0.920072,0.0,0.0,0.0,0,0
2026-06-16 16:11:25.421,2298570,R_Shank,0.4969,2.8804,1.9313,-3.51,-4.41,-15.0,0.0,0.0,0.0,0.905087,0.035218,-0.035951,-0.422193,0.0,0.0,0.0,0,0
2026-06-16 16:11:25.422,2298729,L_Ankle,0.2006,-0.1683,0.9597,5.37,-0.67,-10.29,34.9,10.07,-10.97,-0.367962,-0.077914,0.109287,-0.920072,0.0,0.0,0.0,0,0
2026-06-16 16:11:25.425,2298686,L_Shank,0.015,-0.1119,0.9758,1.67,-1.41,-0.07,33.31,8.96,-16.43,0.518265,0.008332,-0.063997,0.852748,0.0,0.0,0.0,0,0
2026-06-16 16:11:25.425,2298590,R_Shank,0.6673,0.1772,1.9313,-4.59,-3.56,-13.75,-23.47,-18.33,-11.39,0.903348,0.031953,-0.037049,-0.426038,0.0,0.0,0.0,0,0
2026-06-16 16:11:25.427,2298706,L_Shank,0.0076,-0.1129,0.9767,1.67,-1.45,-0.02,0.0,0.0,0.0,0.518387,0.008209,-0.063906,0.852687,0.0,0.0,0.0,0,0
2026-06-16 16:11:25.428,2298610,R_Shank,-0.2388,-2.2308,0.9586,-1.25,4.31,-10.95,0.0,0.0,0.0,0.902646,0.029145,-0.034303,-0.427961,0.0,0.0,0.0,0,0
2026-06-16 16:11:25.430,2298687,L_Shank,0.0179,-0.111,0.9724,1.67,-1.46,0.01,36.8,7.28,-17.07,0.518509,0.008087,-0.063845,0.852626,0.0,0.0,0.0,0,0
2026-06-16 16:11:25.431,2298562,R_Hip,0.0377,-1.1949,0.0813,-2.0,-3.2,2.35,-31.95,12.24,-17.07,0.42317,-0.308237,0.571001,-0.632313,0.0,0.0,0.0,0,0
2026-06-16 16:11:25.433,2298707,L_Shank,0.0223,-0.1193,0.9743,1.66,-1.48,0.08,32.95,7.6,-15.79,0.518571,0.007965,-0.063784,0.852596,0.0,0.0,0.0,0,0
2026-06-16 16:11:25.435,2298582,R_Hip,-0.0179,-1.1642,0.101,-2.16,-2.15,2.32,-30.86,11.51,-16.72,0.423048,-0.309824,0.571459,-0.631214,0.0,0.0,0.0,0,0
2026-06-16 16:11:25.438,2298701,L_Hip,-0.1629,0.9034,0.3872,-4.06,4.28,2.96,35.27,-3.11,-17.54,0.722465,0.397534,0.351085,0.443495,0.0,0.0,0.0,0,0
2026-06-16 16:11:25.438,2298602,R_Hip,-0.0593,-1.1256,0.0871,-2.15,-1.48,2.16,0.0,0.0,0.0,0.422559,-0.310801,0.572283,-0.630329,0.0,0.0,0.0,0,0
2026-06-16 16:11:25.442,2298702,L_Hip,-0.1556,0.8931,0.3882,-4.05,4.31,2.95,35.94,-4.06,-18.42,0.722312,0.397534,0.351146,0.443709,0.0,0.0,0.0,0,0
2026-06-16 16:11:25.443,2298622,R_Hip,-0.1161,-1.0109,0.051,-2.03,-0.51,1.98,-31.59,11.51,-17.07,0.421644,-0.311197,0.573443,-0.629658,0.0,0.0,0.0,0,0
2026-06-16 16:11:25.445,2298722,L_Hip,-0.16,0.8975,0.3892,-4.03,4.33,2.94,0.0,0.0,0.0,0.72219,0.397443,0.351146,0.443983,0.0,0.0,0.0,0,0
2026-06-16 16:11:25.447,2298572,R_Shank,-0.2079,1.2696,0.6141,1.25,-2.48,-4.68,-22.29,-17.85,-11.55,0.903043,0.029298,-0.029603,-0.427473,0.0,0.0,0.0,0,0
2026-06-16 16:11:25.450,2298742,L_Hip,-0.1742,0.8975,0.3901,-4.0,4.38,2.88,37.64,-4.99,-20.19,0.722037,0.397382,0.351207,0.444258,0.0,0.0,0.0,0,0
2026-06-16 16:11:25.452,2298592,R_Shank,0.0429,-0.6176,0.8442,2.3,-4.97,-2.95,-22.81,-17.68,-11.39,0.904294,0.029084,-0.03003,-0.424818,0.0,0.0,0.0,0,0
2026-06-16 16:11:25.453,2298714,L_Ankle,0.1928,-0.1722,0.951,5.35,-0.74,-10.29,34.39,9.55,-10.47,-0.367992,-0.077792,0.109195,-0.920103,0.0,0.0,0.0,0,0
2026-06-16 16:11:25.455,2298612,R_Shank,0.064,2.1792,0.8509,2.41,-3.95,-2.68,-23.29,-19.48,-10.34,0.90582,0.029664,-0.032807,-0.421278,0.0,0.0,0.0,0,0
2026-06-16 16:11:25.456,2298734,L_Ankle,0.1918,-0.1693,0.9544,5.36,-0.75,-10.3,34.9,10.07,-10.97,-0.367992,-0.07767,0.109073,-0.920103,0.0,0.0,0.0,0,0
2026-06-16 16:11:25.458,2298632,R_Shank,0.0365,1.3816,0.7395,1.58,-1.94,-3.35,0.0,0.0,0.0,0.907315,0.03122,-0.034577,-0.417829,0.0,0.0,0.0,0,0
2026-06-16 16:11:25.459,2298754,L_Ankle,0.1918,-0.1762,0.9558,5.37,-0.77,-10.29,35.75,10.94,-11.8,-0.367992,-0.077548,0.108982,-0.920133,0.0,0.0,0.0,0,0
2026-06-16 16:11:25.461,2298585,R_Ankle,-0.0094,0.021,0.966,1.65,-2.1,0.34,-33.76,-10.94,-13.75,0.823969,0.085177,-0.094211,0.552202,0.0,0.0,0.0,0,0
2026-06-16 16:11:25.462,2298774,L_Ankle,0.1825,-0.1576,0.9635,5.38,-0.82,-10.29,0.0,0.0,0.0,-0.367992,-0.077364,0.10889,-0.920164,0.0,0.0,0.0,0,0
2026-06-16 16:11:25.463,2298605,R_Ankle,0.0184,0.0136,0.9914,1.53,-2.26,-0.02,0.0,0.0,0.0,0.823511,0.086062,-0.093417,0.552843,0.0,0.0,0.0,0,0
2026-06-16 16:11:25.465,2298625,R_Ankle,0.0189,0.0542,0.966,1.7,-2.22,-0.09,-32.39,-10.62,-13.43,0.823328,0.086734,-0.09299,0.553117,0.0,0.0,0.0,0,0
2026-06-16 16:11:25.467,2298645,R_Ankle,0.0493,0.0482,0.9248,1.83,-1.96,-0.03,-32.57,-11.09,-14.19,0.823115,0.087558,-0.09238,0.553362,0.0,0.0,0.0,0,0
2026-06-16 16:11:25.469,2298586,R_Ankle,0.0758,0.0284,0.9176,0.87,-1.94,-0.41,-31.37,-10.29,-13.42,0.822901,0.088412,-0.091922,0.553636,0.0,0.0,0.0,0,0
2026-06-16 16:11:25.472,2298606,R_Ankle,0.0792,0.023,0.9397,0.65,-2.02,-0.54,-33.25,-11.74,-13.27,0.82281,0.088992,-0.0918,0.553697,0.0,0.0,0.0,0,0
2026-06-16 16:11:25.474,2298626,R_Ankle,0.0758,0.0002,0.978,0.45,-2.11,-0.62,0.0,0.0,0.0,0.822871,0.089206,-0.091891,0.553575,0.0,0.0,0.0,0,0
2026-06-16 16:11:25.476,2298646,R_Ankle,0.0498,-0.082,1.0268,0.33,-2.14,-0.66,-33.11,-12.51,-15.26,0.822932,0.089145,-0.092196,0.553423,0.0,0.0,0.0,0,0
2026-06-16 16:11:25.480,2298607,R_Ankle,0.1551,-0.1994,1.1121,0.84,-2.16,0.0,-32.74,-11.25,-14.04,0.822901,0.08887,-0.092563,0.553453,0.0,0.0,0.0,0,0
2026-06-16 16:11:25.483,2298746,L_Hip,-0.1693,0.9127,0.3969,-3.99,4.5,2.8,35.94,-4.7,-19.29,0.721885,0.39732,0.351238,0.444502,0.0,0.0,0.0,0,0
2026-06-16 16:11:25.484,2298627,R_Ankle,0.1777,-0.2068,1.1183,0.99,-2.16,0.3,-34.1,-10.31,-13.76,0.822687,0.088595,-0.093173,0.553728,0.0,0.0,0.0,0,0
2026-06-16 16:11:25.488,2298766,L_Hip,-0.1757,0.9044,0.3882,-4.0,4.51,2.8,35.58,-6.32,-19.86,0.721763,0.397259,0.351268,0.444746,0.0,0.0,0.0,0,0
2026-06-16 16:11:25.488,2298647,R_Ankle,0.1855,-0.189,1.1097,1.06,-2.2,0.54,0.0,0.0,0.0,0.82223,0.088412,-0.093814,0.554308,0.0,0.0,0.0,0,0
2026-06-16 16:11:25.492,2298667,R_Ankle,0.1287,-0.2137,1.159,1.02,-2.24,0.64,-31.55,-10.76,-14.49,0.821711,0.088321,-0.094485,0.55501,0.0,0.0,0.0,0,0
2026-06-16 16:11:25.493,2298747,L_Hip,-0.1796,0.9127,0.3984,-4.02,4.54,2.77,36.97,-4.03,-19.6,0.72161,0.397229,0.351299,0.44499,0.0,0.0,0.0,0,0
2026-06-16 16:11:25.495,2298767,L_Hip,-0.1796,0.9157,0.3959,-4.04,4.55,2.73,0.0,0.0,0.0,0.721488,0.397259,0.351268,0.445204,0.0,0.0,0.0,0,0
2026-06-16 16:11:25.496,2298612,R_Hip,-0.1595,-0.8639,-0.0216,-1.77,-0.25,2.43,-31.22,11.5,-16.38,0.420789,-0.311136,0.574877,-0.628956,0.0,0.0,0.0,0,0
2026-06-16 16:11:25.498,2298760,L_Ankle,0.2055,-0.1727,0.952,5.35,-1.16,-10.23,35.11,8.83,-10.12,-0.368023,-0.076388,0.108524,-0.920286,0.0,0.0,0.0,0,0
2026-06-16 16:11:25.499,2298632,R_Hip,-0.1614,-0.7868,-0.0298,-1.5,-0.5,2.78,-30.86,13.33,-15.7,0.420179,-0.310831,0.576403,-0.628132,0.0,0.0,0.0,0,0
2026-06-16 16:11:25.502,2298652,R_Hip,-0.1565,-0.776,-0.0149,-1.32,-0.71,2.9,0.0,0.0,0.0,0.419904,-0.310404,0.577776,-0.627247,0.0,0.0,0.0,0,0
2026-06-16 16:11:25.502,2298780,L_Ankle,0.207,-0.1698,0.9717,5.35,-1.14,-10.28,34.56,9.01,-11.32,-0.367992,-0.076388,0.108554,-0.920286,0.0,0.0,0.0,0,0
2026-06-16 16:11:25.505,2298672,R_Hip,-0.1466,-0.736,-0.0187,-0.87,-1.19,2.95,-31.4,11.68,-13.82,0.419996,-0.310038,0.578814,-0.626423,0.0,0.0,0.0,0,0
2026-06-16 16:11:25.505,2298800,L_Ankle,0.2016,-0.1683,0.9506,5.35,-1.16,-10.3,33.13,10.45,-12.02,-0.367962,-0.076388,0.108615,-0.920286,0.0,0.0,0.0,0,0
2026-06-16 16:11:25.508,2298820,L_Ankle,0.2109,-0.1722,0.9592,5.35,-1.12,-10.34,35.25,10.77,-10.62,-0.367962,-0.076479,0.108676,-0.920255,0.0,0.0,0.0,0,0
2026-06-16 16:11:25.509,2298617,R_Shank,0.0723,2.8268,0.6972,0.03,-2.06,-7.19,-22.64,-17.84,-11.24,0.9082,0.032563,-0.035829,-0.415662,0.0,0.0,0.0,0,0
2026-06-16 16:11:25.511,2298761,L_Shank,0.0257,-0.1129,0.9801,1.68,-1.41,0.19,34.88,7.77,-16.28,0.518632,0.007874,-0.063753,0.852565,0.0,0.0,0.0,0,0
2026-06-16 16:11:25.511,2298637,R_Shank,0.0306,2.4784,0.8418,-0.66,-1.59,-9.45,-23.28,-18.83,-12.45,0.908322,0.033021,-0.036744,-0.415296,0.0,0.0,0.0,0,0
2026-06-16 16:11:25.513,2298781,L_Shank,0.0399,-0.1095,0.9681,1.7,-1.43,0.14,0.0,0.0,0.0,0.518601,0.007752,-0.063692,0.852565,0.0,0.0,0.0,0,0
2026-06-16 16:11:25.514,2298657,R_Shank,-0.0051,2.1032,0.9259,-0.8,-1.24,-10.19,0.0,0.0,0.0,0.907926,0.032868,-0.036744,-0.416181,0.0,0.0,0.0,0,0
2026-06-16 16:11:25.516,2298801,L_Shank,0.0311,-0.1144,0.983,1.7,-1.46,0.0,34.87,8.1,-15.35,0.51854,0.007721,-0.063662,0.852626,0.0,0.0,0.0,0,0
2026-06-16 16:11:25.517,2298677,R_Shank,-0.0415,1.0868,1.1719,-1.15,0.35,-11.25,-23.8,-18.65,-11.39,0.907224,0.032624,-0.035707,-0.417798,0.0,0.0,0.0,0,0
2026-06-16 16:11:25.518,2298821,L_Shank,0.0492,-0.1129,0.9719,1.7,-1.48,-0.11,37.5,7.61,-16.76,0.518479,0.007691,-0.063662,0.852657,0.0,0.0,0.0,0,0
2026-06-16 16:11:25.520,2298769,L_Hip,-0.1865,0.9,0.3717,-4.12,4.55,2.66,36.46,-4.85,-20.03,0.721366,0.39729,0.351176,0.445387,0.0,0.0,0.0,0,0
2026-06-16 16:11:25.522,2298789,L_Hip,-0.1806,0.8975,0.3766,-4.12,4.55,2.65,35.42,-5.52,-19.43,0.721305,0.397351,0.351085,0.44554,0.0,0.0,0.0,0,0
2026-06-16 16:11:25.524,2298809,L_Hip,-0.184,0.9029,0.3945,-4.14,4.54,2.63,0.0,0.0,0.0,0.721274,0.397443,0.350932,0.445631,0.0,0.0,0.0,0,0
2026-06-16 16:11:25.526,2298829,L_Hip,-0.1977,0.8872,0.3756,-4.16,4.51,2.61,37.3,-4.67,-19.89,0.721274,0.397534,0.35078,0.445662,0.0,0.0,0.0,0,0
2026-06-16 16:11:25.528,2298781,L_Ankle,0.2109,-0.1654,0.9544,5.37,-1.04,-10.39,34.9,9.36,-11.99,-0.367962,-0.07654,0.108737,-0.920255,0.0,0.0,0.0,0,0
2026-06-16 16:11:25.529,2298662,R_Hip,-0.0993,-0.6774,-0.0096,0.0,-1.77,2.82,-32.31,12.23,-15.7,0.420301,-0.309732,0.579455,-0.625752,0.0,0.0,0.0,0,0
2026-06-16 16:11:25.530,2298801,L_Ankle,0.2075,-0.1737,0.9539,5.4,-1.0,-10.38,0.0,0.0,0.0,-0.367931,-0.076601,0.108829,-0.920255,0.0,0.0,0.0,0,0
2026-06-16 16:11:25.532,2298682,R_Hip,-0.0958,-0.6398,-0.0202,0.68,-1.87,2.63,-31.04,10.96,-16.55,0.420789,-0.309458,0.579638,-0.625385,0.0,0.0,0.0,0,0
2026-06-16 16:11:25.533,2298782,L_Ankle,0.2148,-0.1806,0.9597,5.41,-0.98,-10.38,34.58,9.37,-9.96,-0.36787,-0.076693,0.108951,-0.920255,0.0,0.0,0.0,0,0
2026-06-16 16:11:25.535,2298702,R_Hip,-0.085,-0.612,-0.0274,1.03,-1.85,2.52,0.0,0.0,0.0,0.421339,-0.309153,0.579455,-0.625355,0.0,0.0,0.0,0,0
2026-06-16 16:11:25.537,2298802,L_Ankle,0.2089,-0.1703,0.9669,5.44,-0.93,-10.35,33.51,9.74,-10.65,-0.367809,-0.076815,0.109073,-0.920255,0.0,0.0,0.0,0,0
2026-06-16 16:11:25.539,2298722,R_Hip,-0.0633,-0.6032,-0.0399,1.7,-1.68,2.29,-31.04,12.42,-16.21,0.421857,-0.308695,0.578967,-0.625721,0.0,0.0,0.0,0,0
2026-06-16 16:11:25.540,2298786,L_Shank,0.0648,-0.1149,0.9825,1.7,-1.47,-0.28,35.39,8.96,-15.83,0.518418,0.007691,-0.063662,0.852687,0.0,0.0,0.0,0,0
2026-06-16 16:11:25.542,2298806,L_Shank,0.0673,-0.1251,0.982,1.71,-1.45,-0.26,0.0,0.0,0.0,0.518357,0.00766,-0.063631,0.852718,0.0,0.0,0.0,0,0
2026-06-16 16:11:25.542,2298675,R_Ankle,0.0958,-0.1191,1.1696,1.18,-2.06,1.09,-34.61,-10.15,-13.92,0.8211,0.087985,-0.094974,0.555864,0.0,0.0,0.0,0,0
2026-06-16 16:11:25.545,2298826,L_Shank,0.0658,-0.1242,0.9801,1.74,-1.36,-0.22,35.39,7.59,-15.19,0.518296,0.007691,-0.063692,0.852779,0.0,0.0,0.0,0,0
2026-06-16 16:11:25.546,2298695,R_Ankle,0.0385,-0.0612,1.1811,1.02,-1.83,0.87,-32.41,-12.2,-13.72,0.820429,0.087741,-0.095279,0.556841,0.0,0.0,0.0,0,0
2026-06-16 16:11:25.548,2298846,L_Shank,0.0726,-0.1276,0.9858,1.76,-1.32,-0.21,35.39,9.29,-15.83,0.518143,0.007721,-0.063814,0.85284,0.0,0.0,0.0,0,0
2026-06-16 16:11:25.548,2298715,R_Ankle,0.0797,-0.0537,1.2175,0.68,-1.52,0.44,0.0,0.0,0.0,0.820002,0.087344,-0.095126,0.557573,0.0,0.0,0.0,0,0
2026-06-16 16:11:25.550,2298735,R_Ankle,0.0567,-0.0612,1.1806,0.4,-1.16,-0.89,-33.93,-11.42,-13.59,0.820093,0.086795,-0.094729,0.557573,0.0,0.0,0.0,0,0
2026-06-16 16:11:25.551,2298812,L_Shank,0.0438,-0.1075,0.9734,1.82,-1.11,-0.32,34.87,8.44,-15.66,0.517258,0.008148,-0.064516,0.853328,0.0,0.0,0.0,0,0
2026-06-16 16:11:25.553,2298832,L_Shank,0.0448,-0.1139,0.9676,1.81,-1.09,-0.31,0.0,0.0,0.0,0.517289,0.008362,-0.064669,0.853298,0.0,0.0,0.0,0,0
2026-06-16 16:11:25.554,2298687,R_Hip,-0.0761,-0.633,-0.0466,2.54,-1.29,1.78,-32.86,12.78,-15.19,0.422224,-0.308084,0.578204,-0.626423,0.0,0.0,0.0,0,0
2026-06-16 16:11:25.555,2298852,L_Shank,0.0448,-0.1056,0.981,1.81,-1.07,-0.3,33.65,7.93,-15.49,0.517319,0.008545,-0.064882,0.853267,0.0,0.0,0.0,0,0
2026-06-16 16:11:25.557,2298707,R_Hip,-0.0914,-0.6603,-0.0183,3.02,-1.08,1.12,-31.41,11.69,-17.92,0.422437,-0.307413,0.577258,-0.627522,0.0,0.0,0.0,0,0
2026-06-16 16:11:25.558,2298872,L_Shank,0.035,-0.1149,0.9729,1.82,-1.07,-0.32,34.87,6.75,-15.64,0.517319,0.008728,-0.065035,0.853236,0.0,0.0,0.0,0,0
2026-06-16 16:11:25.560,2298727,R_Hip,-0.0973,-0.6657,-0.0106,3.24,-1.0,0.76,0.0,0.0,0.0,0.422376,-0.306742,0.575945,-0.629078,0.0,0.0,0.0,0,0
2026-06-16 16:11:25.561,2298814,L_Hip,-0.1953,0.8872,0.379,-4.16,4.39,2.64,36.95,-5.0,-19.6,0.721274,0.397717,0.350627,0.445631,0.0,0.0,0.0,0,0
2026-06-16 16:11:25.563,2298747,R_Hip,-0.1067,-0.7097,-0.0057,3.68,-0.9,0.06,-30.31,12.78,-16.21,0.422102,-0.306131,0.574358,-0.631001,0.0,0.0,0.0,0,0
2026-06-16 16:11:25.564,2298834,L_Hip,-0.2021,0.8842,0.3882,-4.17,4.37,2.67,36.79,-4.52,-19.16,0.721305,0.397839,0.350505,0.445601,0.0,0.0,0.0,0,0
2026-06-16 16:11:25.565,2298697,R_Ankle,0.0949,0.075,1.0422,0.17,-1.78,-0.82,-32.57,-10.77,-13.89,0.820429,0.086032,-0.094607,0.557237,0.0,0.0,0.0,0,0
2026-06-16 16:11:25.567,2298854,L_Hip,-0.2026,0.8955,0.393,-4.17,4.35,2.7,35.62,-4.06,-19.29,0.721305,0.397992,0.350352,0.44554,0.0,0.0,0.0,0,0
2026-06-16 16:11:25.568,2298717,R_Ankle,0.0993,0.078,1.0144,0.14,-1.45,-1.43,-32.75,-11.56,-14.65,0.820582,0.085543,-0.09476,0.557054,0.0,0.0,0.0,0,0
2026-06-16 16:11:25.569,2298874,L_Hip,-0.2002,0.897,0.3877,-4.17,4.29,2.7,0.0,0.0,0.0,0.721305,0.398144,0.350261,0.445479,0.0,0.0,0.0,0,0
2026-06-16 16:11:25.571,2298737,R_Ankle,0.0596,0.0512,0.9847,-0.32,-1.3,-1.88,0.0,0.0,0.0,0.821131,0.08536,-0.094485,0.556291,0.0,0.0,0.0,0,0
2026-06-16 16:11:25.572,2298827,L_Ankle,0.2143,-0.1869,0.9611,5.48,-0.81,-10.33,34.21,9.01,-11.66,-0.367718,-0.076968,0.109195,-0.920255,0.0,0.0,0.0,0,0
2026-06-16 16:11:25.573,2298757,R_Ankle,0.0542,0.0264,0.8927,-0.5,-1.17,-2.16,-32.74,-10.93,-14.04,0.821924,0.08475,-0.094272,0.555254,0.0,0.0,0.0,0,0
2026-06-16 16:11:25.574,2298847,L_Ankle,0.2055,-0.1698,0.9515,5.48,-0.8,-10.32,0.0,0.0,0.0,-0.367656,-0.077181,0.109348,-0.920255,0.0,0.0,0.0,0,0
2026-06-16 16:11:25.576,2298867,L_Ankle,0.204,-0.1727,0.9539,5.48,-0.78,-10.34,34.57,8.66,-10.98,-0.367626,-0.077364,0.109439,-0.920225,0.0,0.0,0.0,0,0
2026-06-16 16:11:25.578,2298887,L_Ankle,0.2011,-0.1703,0.9611,5.49,-0.74,-10.35,33.49,10.09,-11.67,-0.367656,-0.077548,0.109531,-0.920194,0.0,0.0,0.0,0,0
2026-06-16 16:11:25.579,2298836,L_Shank,0.0375,-0.1168,0.9786,1.82,-1.05,-0.29,34.86,9.11,-15.05,0.517319,0.00885,-0.065188,0.853236,0.0,0.0,0.0,0,0
2026-06-16 16:11:25.582,2298837,L_Shank,0.0409,-0.1046,0.9782,1.81,-1.03,-0.28,0.0,0.0,0.0,0.517319,0.008911,-0.065218,0.853236,0.0,0.0,0.0,0,0
2026-06-16 16:11:25.584,2298857,L_Shank,0.0419,-0.1085,0.9844,1.81,-1.03,-0.27,35.22,7.43,-16.27,0.51735,0.009003,-0.065249,0.853206,0.0,0.0,0.0,0,0
2026-06-16 16:11:25.586,2298877,L_Shank,0.0423,-0.0958,0.9854,1.82,-1.0,-0.25,36.61,6.74,-15.34,0.517411,0.009064,-0.065279,0.853175,0.0,0.0,0.0,0,0
2026-06-16 16:11:25.588,2298849,L_Ankle,0.2089,-0.1595,0.9659,5.49,-0.7,-10.33,33.68,9.2,-11.5,-0.367687,-0.0777,0.109622,-0.920164,0.0,0.0,0.0,0,0
2026-06-16 16:11:25.590,2298869,L_Ankle,0.2079,-0.1683,0.9616,5.48,-0.7,-10.34,0.0,0.0,0.0,-0.367718,-0.077853,0.109714,-0.920133,0.0,0.0,0.0,0,0
2026-06-16 16:11:25.592,2298889,L_Ankle,0.1957,-0.1708,0.9544,5.48,-0.69,-10.33,33.65,10.97,-11.84,-0.367748,-0.077975,0.109775,-0.920103,0.0,0.0,0.0,0,0
2026-06-16 16:11:25.594,2298909,L_Ankle,0.2021,-0.1654,0.9582,5.49,-0.69,-10.31,35.61,9.7,-10.96,-0.367779,-0.078097,0.109806,-0.920072,0.0,0.0,0.0,0,0
2026-06-16 16:11:25.596,2298859,L_Hip,-0.2002,0.8906,0.3877,-4.17,4.33,2.74,37.81,-3.22,-18.6,0.721305,0.398267,0.35023,0.445387,0.0,0.0,0.0,0,0
2026-06-16 16:11:25.599,2298879,L_Hip,-0.2061,0.8887,0.3921,-4.16,4.35,2.78,35.09,-5.2,-19.42,0.721305,0.398358,0.35023,0.445326,0.0,0.0,0.0,0,0
2026-06-16 16:11:25.601,2298899,L_Hip,-0.2036,0.8896,0.395,-4.16,4.38,2.8,36.49,-3.56,-20.61,0.721305,0.39845,0.350291,0.445204,0.0,0.0,0.0,0,0
2026-06-16 16:11:25.603,2298919,L_Hip,-0.2041,0.8896,0.3955,-4.17,4.44,2.86,0.0,0.0,0.0,0.721305,0.39845,0.350352,0.445112,0.0,0.0,0.0,0,0
2026-06-16 16:11:25.606,2298871,L_Ankle,0.1903,-0.1708,0.9621,5.44,-0.61,-10.25,34.38,9.54,-11.49,-0.367931,-0.078097,0.109561,-0.920042,0.0,0.0,0.0,0,0
2026-06-16 16:11:25.608,2298891,L_Ankle,0.2011,-0.163,0.9654,5.41,-0.61,-10.27,34.2,9.72,-11.32,-0.367962,-0.078097,0.109439,-0.920042,0.0,0.0,0.0,0,0
2026-06-16 16:11:25.610,2298742,R_Ankle,0.1159,0.0938,0.7418,-0.22,-1.37,-1.4,-33.42,-10.94,-14.05,0.822657,0.084231,-0.094058,0.554308,0.0,0.0,0.0,0,0
2026-06-16 16:11:25.612,2298872,L_Ankle,0.2075,-0.1547,0.9669,5.39,-0.61,-10.27,0.0,0.0,0.0,-0.367992,-0.078036,0.109378,-0.920042,0.0,0.0,0.0,0,0
2026-06-16 16:11:25.613,2298762,R_Ankle,0.1468,0.1409,0.7045,-0.12,-1.43,-1.13,-33.09,-10.61,-14.67,0.823145,0.083895,-0.094028,0.553636,0.0,0.0,0.0,0,0
2026-06-16 16:11:25.614,2298892,L_Ankle,0.1967,-0.1664,0.9515,5.39,-0.6,-10.29,34.36,10.25,-11.83,-0.368023,-0.077944,0.109287,-0.920072,0.0,0.0,0.0,0,0
2026-06-16 16:11:25.616,2298782,R_Ankle,0.1708,0.1686,0.6844,-0.01,-1.49,-0.93,0.0,0.0,0.0,0.82342,0.084109,-0.094089,0.553179,0.0,0.0,0.0,0,0
2026-06-16 16:11:25.617,2298881,L_Hip,-0.2075,0.898,0.3809,-4.19,4.49,2.93,36.66,-3.71,-20.76,0.721335,0.39845,0.350475,0.44499,0.0,0.0,0.0,0,0
2026-06-16 16:11:25.618,2298802,R_Ankle,0.1791,0.2142,0.6283,0.26,-1.56,-0.66,-32.73,-9.34,-14.37,0.823511,0.084811,-0.09418,0.552904,0.0,0.0,0.0,0,0
2026-06-16 16:11:25.619,2298901,L_Hip,-0.2144,0.8946,0.3872,-4.17,4.52,3.0,36.97,-4.68,-20.47,0.721427,0.398389,0.350536,0.444868,0.0,0.0,0.0,0,0
2026-06-16 16:11:25.621,2298753,R_Shank,-0.0002,-1.1024,1.3573,-0.87,1.01,-8.56,-22.3,-17.85,-11.25,0.906552,0.032441,-0.033692,-0.419416,0.0,0.0,0.0,0,0
2026-06-16 16:11:25.622,2298921,L_Hip,-0.2075,0.8921,0.3858,-4.17,4.54,3.05,36.98,-3.39,-19.6,0.721488,0.398328,0.350658,0.444685,0.0,0.0,0.0,0,0
2026-06-16 16:11:25.623,2298773,R_Shank,0.0267,-1.7432,1.2896,-0.44,0.91,-5.95,-23.31,-19.14,-9.44,0.90643,0.032472,-0.031526,-0.419874,0.0,0.0,0.0,0,0
2026-06-16 16:11:25.625,2298941,L_Hip,-0.2085,0.8808,0.3892,-4.15,4.6,3.15,36.28,-5.66,-20.75,0.72158,0.398267,0.35078,0.444533,0.0,0.0,0.0,0,0
2026-06-16 16:11:25.626,2298793,R_Shank,0.0679,-3.1484,1.18,-0.31,0.9,-5.11,-22.99,-18.15,-9.43,0.907041,0.032624,-0.029817,-0.418653,0.0,0.0,0.0,0,0
2026-06-16 16:11:25.627,2298813,R_Shank,0.0694,-1.4776,1.1334,-0.32,0.85,-4.69,0.0,0.0,0.0,0.908139,0.032746,-0.028413,-0.416364,0.0,0.0,0.0,0,0
2026-06-16 16:11:25.630,2298894,L_Ankle,0.1928,-0.1693,0.9578,5.37,-0.65,-10.31,34.21,10.08,-10.64,-0.368023,-0.077853,0.109165,-0.920072,0.0,0.0,0.0,0,0
2026-06-16 16:11:25.630,2298763,R_Hip,-0.1121,-0.8278,-0.0158,4.39,-1.2,-0.74,-31.04,10.22,-16.21,0.421674,-0.305643,0.572405,-0.63329,0.0,0.0,0.0,0,0
2026-06-16 16:11:25.632,2298914,L_Ankle,0.1918,-0.1683,0.9635,5.38,-0.67,-10.31,33.85,10.09,-10.99,-0.368023,-0.077761,0.109104,-0.920103,0.0,0.0,0.0,0,0
2026-06-16 16:11:25.633,2298783,R_Hip,-0.1407,-1.2413,-0.0702,4.85,-1.81,-1.02,-31.04,11.68,-15.53,0.421247,-0.305399,0.570147,-0.635731,0.0,0.0,0.0,0,0
2026-06-16 16:11:25.634,2298934,L_Ankle,0.1883,-0.1708,0.951,5.38,-0.68,-10.31,0.0,0.0,0.0,-0.368023,-0.07767,0.108982,-0.920103,0.0,0.0,0.0,0,0
2026-06-16 16:11:25.636,2298803,R_Hip,-0.263,-1.5913,-0.1665,5.16,-2.16,-1.24,0.0,0.0,0.0,0.420881,-0.305582,0.567553,-0.638173,0.0,0.0,0.0,0,0
2026-06-16 16:11:25.637,2298954,L_Ankle,0.1942,-0.1674,0.9448,5.38,-0.73,-10.29,34.93,9.01,-10.29,-0.367992,-0.077578,0.10889,-0.920133,0.0,0.0,0.0,0,0
2026-06-16 16:11:25.638,2298823,R_Hip,-0.0963,-2.0155,-0.1347,4.54,-5.34,-4.99,-31.22,9.32,-17.74,0.420118,-0.307932,0.564714,-0.640095,0.0,0.0,0.0,0,0
2026-06-16 16:11:25.640,2298843,R_Hip,-0.0391,-2.0155,0.9173,-3.33,-3.5,-5.9,-30.67,11.32,-15.87,0.418165,-0.31428,0.561083,-0.641499,0.0,0.0,0.0,0,0
2026-06-16 16:11:25.642,2298863,R_Hip,-0.6147,-1.2374,0.2314,-3.2,6.05,-0.47,-31.59,10.78,-18.43,0.414502,-0.317118,0.559587,-0.643757,0.0,0.0,0.0,0,0
2026-06-16 16:11:25.643,2298883,R_Hip,-0.7089,-0.8634,0.0187,-2.63,6.91,3.43,0.0,0.0,0.0,0.411573,-0.313242,0.563097,-0.644459,0.0,0.0,0.0,0,0
2026-06-16 16:11:25.645,2298903,R_Hip,-0.4653,-0.3347,-0.1785,-1.82,2.47,9.43,-31.22,9.31,-16.37,0.412854,-0.307627,0.56801,-0.642018,0.0,0.0,0.0,0,0
2026-06-16 16:11:25.651,2298916,L_Ankle,0.1874,-0.1752,0.9654,5.38,-0.8,-10.26,36.15,8.45,-11.12,-0.367992,-0.077456,0.108829,-0.920164,0.0,0.0,0.0,0,0
2026-06-16 16:11:25.653,2298936,L_Ankle,0.1913,-0.1644,0.9515,5.39,-0.82,-10.26,35.78,9.88,-10.78,-0.367962,-0.077303,0.108737,-0.920194,0.0,0.0,0.0,0,0
2026-06-16 16:11:25.655,2298956,L_Ankle,0.1918,-0.1664,0.9582,5.35,-0.84,-10.28,0.0,0.0,0.0,-0.367962,-0.077151,0.108646,-0.920225,0.0,0.0,0.0,0,0
2026-06-16 16:11:25.657,2298917,L_Ankle,0.1893,-0.1674,0.953,5.32,-0.9,-10.29,34.74,10.61,-9.78,-0.367992,-0.076998,0.108554,-0.920225,0.0,0.0,0.0,0,0
2026-06-16 16:11:25.661,2298926,L_Hip,-0.1982,0.8882,0.3877,-4.22,4.79,3.29,36.79,-5.16,-20.03,0.721702,0.398175,0.350902,0.444319,0.0,0.0,0.0,0,0
2026-06-16 16:11:25.663,2298946,L_Hip,-0.1865,0.8823,0.3877,-4.25,4.83,3.32,0.0,0.0,0.0,0.721824,0.398083,0.350963,0.444105,0.0,0.0,0.0,0,0
2026-06-16 16:11:25.664,2298966,L_Hip,-0.1938,0.8887,0.4032,-4.25,4.84,3.33,35.95,-4.38,-19.29,0.721976,0.398022,0.350993,0.443922,0.0,0.0,0.0,0,0
2026-06-16 16:11:25.667,2298927,L_Hip,-0.1874,0.9024,0.393,-4.25,4.9,3.3,37.62,-5.31,-19.31,0.722129,0.397961,0.350993,0.443709,0.0,0.0,0.0,0,0
2026-06-16 16:11:25.672,2298937,L_Shank,0.0448,-0.0997,0.9724,1.79,-0.97,-0.22,34.52,7.77,-15.96,0.517472,0.009156,-0.065218,0.853145,0.0,0.0,0.0,0,0
2026-06-16 16:11:25.674,2298957,L_Shank,0.0379,-0.0938,0.9801,1.78,-0.97,-0.23,35.9,8.09,-14.42,0.517563,0.009186,-0.065188,0.853084,0.0,0.0,0.0,0,0
2026-06-16 16:11:25.676,2298977,L_Shank,0.0414,-0.1012,0.9825,1.8,-0.98,-0.27,0.0,0.0,0.0,0.517624,0.009186,-0.065126,0.853053,0.0,0.0,0.0,0,0
2026-06-16 16:11:25.678,2298997,L_Shank,0.0208,-0.1017,0.9695,1.79,-1.0,-0.29,34.17,8.44,-15.66,0.517685,0.009156,-0.065035,0.853023,0.0,0.0,0.0,0,0
2026-06-16 16:11:25.679,2298812,R_Hip,0.0382,-0.3479,-0.2887,-0.63,-3.83,12.08,-31.77,13.15,-17.93,0.417341,-0.303201,0.572039,-0.637654,0.0,0.0,0.0,0,0
2026-06-16 16:11:25.681,2298832,R_Hip,0.1013,-0.4841,-0.0365,0.93,-4.77,9.59,-32.14,12.79,-17.58,0.422468,-0.30079,0.573992,-0.633656,0.0,0.0,0.0,0,0
2026-06-16 16:11:25.682,2298852,R_Hip,0.0787,-0.7609,0.038,0.8,-4.61,7.74,0.0,0.0,0.0,0.426557,-0.2996,0.574145,-0.631336,0.0,0.0,0.0,0,0
2026-06-16 16:11:25.684,2298872,R_Hip,0.1206,-0.9411,0.0856,0.85,-3.69,3.68,-30.68,12.05,-17.24,0.428449,-0.299905,0.573443,-0.630543,0.0,0.0,0.0,0,0
2026-06-16 16:11:25.696,2298962,L_Shank,0.0316,-0.1022,0.9729,1.77,-1.03,-0.4,35.91,6.74,-15.34,0.517747,0.009095,-0.064974,0.852992,0.0,0.0,0.0,0,0
2026-06-16 16:11:25.698,2298982,L_Shank,0.0135,-0.1198,0.9681,1.77,-1.04,-0.41,35.05,7.6,-15.81,0.517838,0.009033,-0.064852,0.852962,0.0,0.0,0.0,0,0
2026-06-16 16:11:25.700,2298833,R_Ankle,0.1375,0.1988,0.6384,0.8,-1.76,-0.77,-32.04,-10.31,-12.5,0.823572,0.085818,-0.09415,0.55266,0.0,0.0,0.0,0,0
2026-06-16 16:11:25.701,2299002,L_Shank,0.0194,-0.1119,0.9743,1.77,-1.08,-0.4,0.0,0.0,0.0,0.517869,0.008942,-0.06476,0.852931,0.0,0.0,0.0,0,0
2026-06-16 16:11:25.703,2298853,R_Ankle,0.1346,0.1889,0.6436,0.93,-1.8,-0.82,-32.74,-10.93,-14.04,0.823664,0.087039,-0.093997,0.552355,0.0,0.0,0.0,0,0
2026-06-16 16:11:25.703,2299022,L_Shank,0.014,-0.1154,0.9705,1.77,-1.1,-0.38,34.87,8.1,-15.66,0.51793,0.008881,-0.064669,0.852901,0.0,0.0,0.0,0,0
2026-06-16 16:11:25.705,2298873,R_Ankle,0.1174,0.1671,0.6408,1.1,-1.87,-0.82,0.0,0.0,0.0,0.823756,0.08829,-0.093783,0.552049,0.0,0.0,0.0,0,0
2026-06-16 16:11:25.706,2298971,L_Hip,-0.1943,0.8931,0.4085,-4.19,4.88,3.29,36.61,-5.33,-19.88,0.722282,0.397931,0.350993,0.443495,0.0,0.0,0.0,0,0
2026-06-16 16:11:25.707,2298893,R_Ankle,0.1429,0.1716,0.6312,1.34,-2.02,-0.5,-32.05,-10.61,-13.73,0.823756,0.089602,-0.0936,0.551897,0.0,0.0,0.0,0,0
2026-06-16 16:11:25.709,2298972,L_Hip,-0.186,0.9019,0.3993,-4.17,4.86,3.32,0.0,0.0,0.0,0.722465,0.39787,0.350963,0.443312,0.0,0.0,0.0,0,0
2026-06-16 16:11:25.710,2298842,R_Shank,0.0453,1.1964,1.1113,-1.46,-1.38,-5.46,-21.8,-17.69,-10.5,0.909268,0.032502,-0.027345,-0.413953,0.0,0.0,0.0,0,0
2026-06-16 16:11:25.711,2298992,L_Hip,-0.1923,0.9014,0.4109,-4.14,4.8,3.36,35.61,-4.7,-19.87,0.722587,0.397809,0.350932,0.443159,0.0,0.0,0.0,0,0
2026-06-16 16:11:25.712,2298862,R_Shank,0.0419,0.0236,1.1555,-1.77,-1.84,-5.74,-22.81,-17.35,-11.69,0.910215,0.031556,-0.026978,-0.411969,0.0,0.0,0.0,0,0
2026-06-16 16:11:25.714,2299012,L_Hip,-0.1786,0.8965,0.4071,-4.13,4.69,3.36,36.78,-4.84,-19.45,0.722709,0.397748,0.350963,0.443037,0.0,0.0,0.0,0,0
2026-06-16 16:11:25.714,2298882,R_Shank,0.035,-0.7672,1.1997,-1.98,-2.06,-6.02,0.0,0.0,0.0,0.910978,0.030335,-0.027039,-0.410382,0.0,0.0,0.0,0,0
2026-06-16 16:11:25.716,2298902,R_Shank,0.0522,2.568,1.2564,-2.33,-1.94,-6.64,-24.32,-17.81,-11.23,0.911557,0.029267,-0.027161,-0.409192,0.0,0.0,0.0,0,0
2026-06-16 16:11:25.718,2298984,L_Ankle,0.1879,-0.1713,0.9554,5.28,-1.0,-10.24,35.09,9.18,-10.8,-0.368023,-0.076846,0.108524,-0.920255,0.0,0.0,0.0,0,0
2026-06-16 16:11:25.721,2299004,L_Ankle,0.1903,-0.1708,0.9534,5.28,-1.02,-10.22,34.38,10.25,-10.81,-0.368023,-0.076724,0.108493,-0.920255,0.0,0.0,0.0,0,0
2026-06-16 16:11:25.722,2298855,R_Ankle,0.2036,0.2231,0.6638,1.67,-1.93,-0.04,-32.23,-11.08,-14.19,0.823572,0.091128,-0.093478,0.551958,0.0,0.0,0.0,0,0
2026-06-16 16:11:25.723,2299024,L_Ankle,0.1928,-0.1718,0.9616,5.29,-1.05,-10.21,0.0,0.0,0.0,-0.368053,-0.076571,0.108463,-0.920255,0.0,0.0,0.0,0,0
2026-06-16 16:11:25.725,2298875,R_Ankle,0.1689,0.2271,0.7126,1.71,-1.85,-0.11,-32.58,-10.44,-14.82,0.823298,0.092837,-0.093326,0.55211,0.0,0.0,0.0,0,0
2026-06-16 16:11:25.726,2299044,L_Ankle,0.1879,-0.1683,0.951,5.32,-1.13,-10.19,35.29,8.29,-10.63,-0.368053,-0.076449,0.108432,-0.920255,0.0,0.0,0.0,0,0
2026-06-16 16:11:25.727,2298895,R_Ankle,0.0816,0.5085,1.2007,1.7,-1.83,-0.27,0.0,0.0,0.0,0.823084,0.094546,-0.092929,0.552171,0.0,0.0,0.0,0,0
2026-06-16 16:11:25.729,2298915,R_Ankle,0.1311,0.2152,0.9219,1.48,-2.55,-1.09,-32.04,-9.02,-13.75,0.823115,0.096957,-0.092074,0.551836,0.0,0.0,0.0,0,0
2026-06-16 16:11:25.731,2298862,R_Hip,0.0722,-1.0157,0.1082,1.61,-2.94,-0.45,-31.58,11.87,-16.04,0.428602,-0.301126,0.571978,-0.631184,0.0,0.0,0.0,0,0
