python_time,esp32_hw_time,sensor_name,ax,ay,az,gx,gy,gz,mx,my,mz,q0,q1,q2,q3,quat_roll,quat_pitch,quat_yaw,is_paused_flag,t_pose_flag
2026-06-16 15:50:30.301,1043594,L_Hip,0.1215,-0.07,0.9909,-4.15,4.51,2.96,-14.83,26.77,-22.26,0.97055,-0.042909,-0.062746,-0.228523,0.0,0.0,0.0,0,0
2026-06-16 15:50:30.302,1043467,R_Shank,0.0458,-0.0724,1.0032,-0.09,-1.47,-8.41,-15.58,25.59,-22.15,0.924162,0.03534,-0.020112,0.379772,0.0,0.0,0.0,0,0
2026-06-16 15:50:30.303,1043614,L_Hip,0.1288,-0.0764,0.9711,-4.16,4.51,2.98,-13.99,26.3,-22.71,0.97055,-0.042879,-0.062716,-0.228523,0.0,0.0,0.0,0,0
2026-06-16 15:50:30.304,1043487,R_Shank,0.0384,0.8276,0.9956,-0.09,-1.48,-8.41,-14.93,26.25,-21.55,0.924162,0.03531,-0.020142,0.379772,0.0,0.0,0.0,0,0
2026-06-16 15:50:30.305,1043634,L_Hip,0.1171,-0.0725,0.9953,-4.16,4.5,2.97,0.0,0.0,0.0,0.97055,-0.042879,-0.062746,-0.228523,0.0,0.0,0.0,0,0
2026-06-16 15:50:30.307,1043586,L_Shank,0.0042,-0.0219,0.9878,1.76,-1.18,-0.21,3.63,2.17,-17.0,0.975249,-0.003113,-0.025513,0.21955,0.0,0.0,0.0,0,0
2026-06-16 15:50:30.309,1043606,L_Shank,-0.0001,-0.0229,0.9791,1.75,-1.18,-0.2,3.45,2.33,-16.22,0.975249,-0.003113,-0.025544,0.21955,0.0,0.0,0.0,0,0
2026-06-16 15:50:30.311,1043462,R_Hip,0.0358,0.0142,0.989,0.26,-1.58,1.77,-18.87,28.36,-33.51,0.93762,-0.004212,-0.041719,-0.345073,0.0,0.0,0.0,0,0
2026-06-16 15:50:30.312,1043626,L_Shank,-0.001,-0.02,0.9767,1.75,-1.19,-0.19,0.0,0.0,0.0,0.975249,-0.003113,-0.025513,0.21955,0.0,0.0,0.0,0,0
2026-06-16 15:50:30.313,1043482,R_Hip,0.0476,0.0059,0.9996,0.27,-1.57,1.77,0.0,0.0,0.0,0.93762,-0.004212,-0.041719,-0.345073,0.0,0.0,0.0,0,0
2026-06-16 15:50:30.314,1043646,L_Shank,0.0042,-0.0248,0.9806,1.76,-1.19,-0.21,3.97,1.82,-16.06,0.975249,-0.003113,-0.025544,0.21955,0.0,0.0,0.0,0,0
2026-06-16 15:50:30.315,1043502,R_Hip,0.0348,0.0123,0.9765,0.27,-1.58,1.78,-18.14,29.08,-31.45,0.93762,-0.004212,-0.041719,-0.345073,0.0,0.0,0.0,0,0
2026-06-16 15:50:30.317,1043596,L_Ankle,0.1433,0.0129,0.9851,5.41,-0.83,-10.3,-38.53,-1.95,-39.88,0.94882,0.042634,-0.074007,0.303964,0.0,0.0,0.0,0,0
2026-06-16 15:50:30.318,1043522,R_Hip,0.0461,0.0103,0.9789,0.27,-1.58,1.78,-17.78,28.72,-32.14,0.93762,-0.004212,-0.041688,-0.345073,0.0,0.0,0.0,0,0
2026-06-16 15:50:30.319,1043616,L_Ankle,0.1393,0.0046,0.9813,5.41,-0.83,-10.32,0.0,0.0,0.0,0.94882,0.042604,-0.074007,0.303964,0.0,0.0,0.0,0,0
2026-06-16 15:50:30.322,1043636,L_Ankle,0.1447,0.0041,0.9938,5.41,-0.83,-10.32,-37.85,-1.26,-40.54,0.94882,0.042634,-0.073977,0.303964,0.0,0.0,0.0,0,0
2026-06-16 15:50:30.322,1043467,R_Ankle,0.014,-0.0126,1.0163,0.76,-1.73,-0.49,-16.04,29.87,-28.97,0.204474,0.088809,0.020234,0.974609,0.0,0.0,0.0,0,0
2026-06-16 15:50:30.325,1043487,R_Ankle,0.0111,-0.0215,1.0077,0.77,-1.71,-0.48,-15.19,29.4,-29.11,0.204474,0.088839,0.020203,0.974609,0.0,0.0,0.0,0,0
2026-06-16 15:50:30.325,1043597,L_Ankle,0.1359,0.0158,0.9784,5.4,-0.83,-10.29,-38.89,-2.3,-40.91,0.94882,0.042634,-0.073977,0.303964,0.0,0.0,0.0,0,0
2026-06-16 15:50:30.327,1043507,R_Ankle,0.014,-0.0047,1.0091,0.77,-1.73,-0.49,0.0,0.0,0.0,0.204474,0.088839,0.020173,0.974609,0.0,0.0,0.0,0,0
2026-06-16 15:50:30.329,1043606,L_Hip,0.1185,-0.0779,0.9832,-4.16,4.51,2.98,-13.62,26.64,-24.17,0.97055,-0.042909,-0.062746,-0.228523,0.0,0.0,0.0,0,0
2026-06-16 15:50:30.331,1043527,R_Ankle,0.0091,-0.02,1.0201,0.77,-1.73,-0.48,-17.23,30.34,-29.15,0.204443,0.088809,0.020173,0.974609,0.0,0.0,0.0,0,0
2026-06-16 15:50:30.332,1043626,L_Hip,0.1279,-0.0685,0.9861,-4.16,4.52,2.97,-15.02,26.28,-21.82,0.97055,-0.042909,-0.062746,-0.228523,0.0,0.0,0.0,0,0
2026-06-16 15:50:30.333,1043469,R_Shank,0.0384,-1.8728,0.9869,-0.09,-1.48,-8.43,-16.61,26.28,-22.13,0.924162,0.03531,-0.020142,0.379772,0.0,0.0,0.0,0,0
2026-06-16 15:50:30.335,1043646,L_Hip,0.1323,-0.0671,0.9769,-4.15,4.51,2.96,-14.5,27.42,-21.4,0.97055,-0.042909,-0.062746,-0.228523,0.0,0.0,0.0,0,0
2026-06-16 15:50:30.335,1043489,R_Shank,0.0434,-2.3844,0.9994,-0.08,-1.46,-8.41,0.0,0.0,0.0,0.924162,0.03531,-0.020142,0.379742,0.0,0.0,0.0,0,0
2026-06-16 15:50:30.336,1043666,L_Hip,0.1225,-0.0725,0.9861,-4.15,4.49,2.98,0.0,0.0,0.0,0.97055,-0.042909,-0.062746,-0.228523,0.0,0.0,0.0,0,0
2026-06-16 15:50:30.338,1043509,R_Shank,0.035,-2.7732,1.0109,-0.08,-1.47,-8.43,-16.59,25.61,-22.14,0.924162,0.03531,-0.020142,0.379742,0.0,0.0,0.0,0,0
2026-06-16 15:50:30.339,1043619,L_Ankle,0.1413,0.0105,0.9875,5.42,-0.83,-10.3,-38.86,-2.65,-39.55,0.94882,0.042634,-0.073977,0.303964,0.0,0.0,0.0,0,0
2026-06-16 15:50:30.340,1043529,R_Shank,0.0414,-0.7136,1.0095,-0.09,-1.47,-8.41,-16.61,26.28,-21.83,0.924162,0.03531,-0.020142,0.379742,0.0,0.0,0.0,0,0
2026-06-16 15:50:30.341,1043639,L_Ankle,0.1472,0.0031,0.9856,5.42,-0.82,-10.3,0.0,0.0,0.0,0.94882,0.042634,-0.074007,0.303964,0.0,0.0,0.0,0,0
2026-06-16 15:50:30.343,1043659,L_Ankle,0.1339,0.0158,0.9861,5.42,-0.83,-10.29,-39.41,-0.7,-39.04,0.94882,0.042634,-0.073977,0.303964,0.0,0.0,0.0,0,0
2026-06-16 15:50:30.345,1043679,L_Ankle,0.1398,0.0114,0.9861,5.41,-0.83,-10.3,-38.53,-2.31,-40.56,0.94882,0.042634,-0.074007,0.303964,0.0,0.0,0.0,0,0
2026-06-16 15:50:30.348,1043636,L_Shank,0.0042,-0.0234,0.9983,1.75,-1.18,-0.19,3.29,1.84,-17.3,0.975249,-0.003082,-0.025513,0.21955,0.0,0.0,0.0,0,0
2026-06-16 15:50:30.350,1043656,L_Shank,-0.001,-0.0195,0.9887,1.77,-1.17,-0.18,2.76,3.03,-17.47,0.975249,-0.003082,-0.025513,0.219581,0.0,0.0,0.0,0,0
2026-06-16 15:50:30.351,1043676,L_Shank,0.0013,-0.0258,0.9863,1.76,-1.19,-0.19,0.0,0.0,0.0,0.975249,-0.003052,-0.025513,0.21955,0.0,0.0,0.0,0,0
2026-06-16 15:50:30.353,1043696,L_Shank,0.0062,-0.0219,0.9714,1.77,-1.17,-0.19,4.69,0.49,-17.61,0.975249,-0.003082,-0.025513,0.219581,0.0,0.0,0.0,0,0
2026-06-16 15:50:30.360,1043512,R_Hip,0.0491,0.0103,0.9919,0.25,-1.57,1.77,-18.5,28.35,-30.08,0.93762,-0.004181,-0.041688,-0.345073,0.0,0.0,0.0,0,0
2026-06-16 15:50:30.361,1043532,R_Hip,0.0431,0.0103,0.9982,0.25,-1.58,1.78,0.0,0.0,0.0,0.93762,-0.004212,-0.041688,-0.345073,0.0,0.0,0.0,0,0
2026-06-16 15:50:30.363,1043552,R_Hip,0.0471,0.0128,0.99,0.26,-1.57,1.79,-18.5,27.99,-32.48,0.93762,-0.004212,-0.041688,-0.345073,0.0,0.0,0.0,0,0
2026-06-16 15:50:30.365,1043572,R_Hip,0.0412,0.0074,1.0063,0.27,-1.58,1.75,-17.59,29.27,-32.31,0.93762,-0.004181,-0.041688,-0.345073,0.0,0.0,0.0,0,0
2026-06-16 15:50:30.368,1043516,R_Shank,0.0384,-1.7432,1.0037,-0.09,-1.45,-8.43,-15.28,27.25,-21.54,0.924162,0.03534,-0.020173,0.379742,0.0,0.0,0.0,0,0
2026-06-16 15:50:30.371,1043536,R_Shank,0.0438,0.8276,1.0128,-0.09,-1.45,-8.42,-16.26,25.61,-21.54,0.924162,0.03534,-0.020142,0.379742,0.0,0.0,0.0,0,0
2026-06-16 15:50:30.376,1043556,R_Shank,0.0355,0.4388,1.0071,-0.08,-1.46,-8.41,-16.1,26.1,-21.69,0.924162,0.03534,-0.020173,0.379742,0.0,0.0,0.0,0,0
2026-06-16 15:50:30.376,1043661,L_Shank,0.0018,-0.0204,0.9935,1.76,-1.18,-0.19,3.28,2.51,-17.0,0.975249,-0.003052,-0.025544,0.21955,0.0,0.0,0.0,0,0
2026-06-16 15:50:30.378,1043576,R_Shank,0.033,1.4688,1.0076,-0.09,-1.46,-8.42,0.0,0.0,0.0,0.924162,0.03534,-0.020142,0.379742,0.0,0.0,0.0,0,0
2026-06-16 15:50:30.379,1043681,L_Shank,0.0062,-0.019,0.9724,1.76,-1.17,-0.19,2.92,2.84,-16.07,0.975249,-0.003052,-0.025513,0.219581,0.0,0.0,0.0,0,0
2026-06-16 15:50:30.381,1043701,L_Shank,0.0028,-0.0141,0.981,1.76,-1.18,-0.2,0.0,0.0,0.0,0.975249,-0.003052,-0.025513,0.219581,0.0,0.0,0.0,0,0
2026-06-16 15:50:30.384,1043534,R_Ankle,0.016,-0.0086,1.0062,0.76,-1.72,-0.51,-16.38,30.18,-28.98,0.204443,0.088839,0.020173,0.974609,0.0,0.0,0.0,0,0
2026-06-16 15:50:30.385,1043721,L_Shank,-0.0006,-0.0253,0.9686,1.77,-1.18,-0.2,1.53,2.85,-16.68,0.975249,-0.003082,-0.025544,0.219581,0.0,0.0,0.0,0,0
2026-06-16 15:50:30.387,1043554,R_Ankle,0.0096,-0.0136,0.9971,0.76,-1.73,-0.5,-15.88,28.12,-28.8,0.204474,0.088839,0.020173,0.974609,0.0,0.0,0.0,0,0
2026-06-16 15:50:30.388,1043664,L_Ankle,0.1442,0.0109,0.9813,5.41,-0.83,-10.29,-38.35,-1.42,-39.36,0.94882,0.042604,-0.074007,0.303964,0.0,0.0,0.0,0,0
2026-06-16 15:50:30.391,1043574,R_Ankle,0.0096,-0.0096,1.0129,0.77,-1.74,-0.49,0.0,0.0,0.0,0.204474,0.088839,0.020203,0.974609,0.0,0.0,0.0,0,0
2026-06-16 15:50:30.391,1043684,L_Ankle,0.1423,0.009,0.9803,5.41,-0.83,-10.29,0.0,0.0,0.0,0.94882,0.042634,-0.074007,0.303964,0.0,0.0,0.0,0,0
2026-06-16 15:50:30.393,1043594,R_Ankle,0.0189,-0.0161,1.0,0.77,-1.73,-0.51,-16.37,30.5,-28.98,0.204474,0.088839,0.020203,0.974609,0.0,0.0,0.0,0,0
2026-06-16 15:50:30.394,1043704,L_Ankle,0.1384,0.0075,0.9923,5.41,-0.83,-10.3,-38.0,-1.43,-39.36,0.94882,0.042634,-0.073977,0.303964,0.0,0.0,0.0,0,0
2026-06-16 15:50:30.395,1043537,R_Hip,0.0441,0.0054,0.9808,0.28,-1.58,1.78,-19.23,27.99,-32.14,0.93762,-0.004181,-0.041688,-0.345103,0.0,0.0,0.0,0,0
2026-06-16 15:50:30.396,1043724,L_Ankle,0.1433,0.0144,0.988,5.4,-0.82,-10.3,-39.61,-0.88,-40.91,0.94882,0.042634,-0.073977,0.303964,0.0,0.0,0.0,0,0
2026-06-16 15:50:30.397,1043557,R_Hip,0.0436,0.0035,0.9962,0.29,-1.58,1.78,0.0,0.0,0.0,0.93762,-0.004181,-0.041719,-0.345103,0.0,0.0,0.0,0,0
2026-06-16 15:50:30.399,1043577,R_Hip,0.0451,0.0171,0.99,0.29,-1.58,1.77,-17.59,29.63,-31.62,0.93762,-0.004181,-0.041719,-0.345103,0.0,0.0,0.0,0,0
2026-06-16 15:50:30.401,1043597,R_Hip,0.0451,0.0098,0.9991,0.28,-1.58,1.77,-17.04,28.71,-31.11,0.93759,-0.004181,-0.041719,-0.345103,0.0,0.0,0.0,0,0
2026-06-16 15:50:30.406,1043557,R_Ankle,0.0165,-0.0156,1.0105,0.75,-1.72,-0.48,-15.89,28.45,-30.03,0.204474,0.088839,0.020203,0.974609,0.0,0.0,0.0,0,0
2026-06-16 15:50:30.407,1043558,R_Ankle,0.0135,-0.0156,0.9947,0.76,-1.71,-0.48,-16.21,29.71,-29.44,0.204443,0.08887,0.020203,0.974609,0.0,0.0,0.0,0,0
2026-06-16 15:50:30.409,1043578,R_Ankle,0.0057,-0.0101,1.0053,0.77,-1.73,-0.5,0.0,0.0,0.0,0.204474,0.08887,0.020203,0.974609,0.0,0.0,0.0,0,0
2026-06-16 15:50:30.410,1043598,R_Ankle,0.0292,-0.0146,1.0014,0.77,-1.73,-0.49,-16.37,31.14,-28.99,0.204443,0.08887,0.020203,0.974609,0.0,0.0,0.0,0,0
2026-06-16 15:50:30.412,1043560,R_Shank,0.033,0.8276,0.9946,-0.09,-1.47,-8.42,-17.47,26.79,-21.37,0.924162,0.035371,-0.020142,0.379742,0.0,0.0,0.0,0,0
2026-06-16 15:50:30.413,1043580,R_Shank,0.0389,-1.6136,1.0143,-0.09,-1.47,-8.41,-16.29,27.27,-21.53,0.924162,0.035371,-0.020142,0.379742,0.0,0.0,0.0,0,0
2026-06-16 15:50:30.415,1043600,R_Shank,0.0434,0.4388,1.0114,-0.09,-1.45,-8.41,0.0,0.0,0.0,0.924162,0.03534,-0.020112,0.379742,0.0,0.0,0.0,0,0
2026-06-16 15:50:30.417,1043620,R_Shank,0.0488,-1.1024,1.0028,-0.09,-1.46,-8.41,-16.29,26.61,-21.23,0.924162,0.035371,-0.020112,0.379742,0.0,0.0,0.0,0,0
2026-06-16 15:50:30.422,1043710,L_Ankle,0.1486,0.0217,0.988,5.41,-0.83,-10.3,-38.88,-1.24,-39.54,0.94882,0.042634,-0.073977,0.303964,0.0,0.0,0.0,0,0
2026-06-16 15:50:30.424,1043730,L_Ankle,0.1364,0.0109,0.9683,5.41,-0.84,-10.3,0.0,0.0,0.0,0.94882,0.042634,-0.073977,0.303964,0.0,0.0,0.0,0,0
2026-06-16 15:50:30.425,1043750,L_Ankle,0.1457,0.0149,0.9909,5.41,-0.83,-10.29,-37.48,-2.33,-40.54,0.94882,0.042634,-0.074007,0.303964,0.0,0.0,0.0,0,0
2026-06-16 15:50:30.427,1043770,L_Ankle,0.1388,0.0085,0.9918,5.41,-0.83,-10.29,-38.89,-1.95,-40.91,0.94882,0.042634,-0.073977,0.303964,0.0,0.0,0.0,0,0
2026-06-16 15:50:30.429,1043711,L_Shank,0.0072,-0.0219,0.9863,1.75,-1.19,-0.2,2.24,1.85,-17.91,0.975249,-0.003052,-0.025513,0.219581,0.0,0.0,0.0,0,0
2026-06-16 15:50:30.430,1043582,R_Shank,0.0429,2.3688,1.0128,-0.09,-1.45,-8.41,-15.75,25.1,-21.7,0.924162,0.035371,-0.020142,0.379742,0.0,0.0,0.0,0,0
2026-06-16 15:50:30.432,1043731,L_Shank,0.0101,-0.02,1.0026,1.75,-1.17,-0.19,3.64,1.17,-17.92,0.975249,-0.003052,-0.025513,0.219581,0.0,0.0,0.0,0,0
2026-06-16 15:50:30.433,1043602,R_Shank,0.0384,-1.7432,1.0066,-0.09,-1.48,-8.41,-16.27,26.93,-22.73,0.924162,0.035371,-0.020142,0.379772,0.0,0.0,0.0,0,0
2026-06-16 15:50:30.434,1043751,L_Shank,0.0028,-0.0204,0.983,1.76,-1.17,-0.18,0.0,0.0,0.0,0.975249,-0.003052,-0.025544,0.219581,0.0,0.0,0.0,0,0
2026-06-16 15:50:30.435,1043622,R_Shank,0.0483,-0.3316,1.0143,-0.09,-1.47,-8.41,0.0,0.0,0.0,0.924162,0.035371,-0.020142,0.379772,0.0,0.0,0.0,0,0
2026-06-16 15:50:30.436,1043771,L_Shank,0.0052,-0.0204,0.9815,1.74,-1.2,-0.19,3.62,2.16,-16.06,0.975249,-0.003021,-0.025513,0.219581,0.0,0.0,0.0,0,0
2026-06-16 15:50:30.437,1043642,R_Shank,0.0394,2.1096,1.0028,-0.09,-1.47,-8.43,-16.44,26.11,-21.38,0.924162,0.035401,-0.020142,0.379772,0.0,0.0,0.0,0,0
2026-06-16 15:50:30.438,1043719,L_Hip,0.1176,-0.073,0.9822,-4.16,4.51,2.98,-14.66,26.93,-22.7,0.97055,-0.042909,-0.062777,-0.228523,0.0,0.0,0.0,0,0
2026-06-16 15:50:30.440,1043739,L_Hip,0.1274,-0.0735,0.9783,-4.16,4.51,2.96,-14.46,27.74,-23.14,0.97055,-0.042909,-0.062777,-0.228523,0.0,0.0,0.0,0,0
2026-06-16 15:50:30.441,1043759,L_Hip,0.1229,-0.073,0.9856,-4.15,4.5,2.96,-13.78,28.08,-23.15,0.97055,-0.042909,-0.062746,-0.228523,0.0,0.0,0.0,0,0
2026-06-16 15:50:30.443,1043779,L_Hip,0.1205,-0.0695,0.9817,-4.15,4.5,2.96,0.0,0.0,0.0,0.97055,-0.042909,-0.062777,-0.228523,0.0,0.0,0.0,0,0
2026-06-16 15:50:30.449,1043736,L_Shank,-0.005,-0.0097,0.9878,1.76,-1.18,-0.19,3.1,3.01,-16.23,0.975249,-0.003021,-0.025483,0.219581,0.0,0.0,0.0,0,0
2026-06-16 15:50:30.450,1043602,R_Ankle,0.0189,-0.024,1.0038,0.77,-1.74,-0.49,-16.88,30.65,-28.84,0.204443,0.0889,0.020203,0.974609,0.0,0.0,0.0,0,0
2026-06-16 15:50:30.451,1043756,L_Shank,0.0018,-0.016,0.9815,1.75,-1.18,-0.2,3.46,2.0,-16.84,0.975249,-0.003021,-0.025513,0.219581,0.0,0.0,0.0,0,0
2026-06-16 15:50:30.453,1043622,R_Ankle,0.016,-0.0156,1.0091,0.77,-1.73,-0.5,-15.37,30.21,-30.82,0.204443,0.0889,0.020203,0.974609,0.0,0.0,0.0,0,0
2026-06-16 15:50:30.453,1043776,L_Shank,0.0101,-0.0087,0.9921,1.77,-1.19,-0.19,0.0,0.0,0.0,0.975249,-0.003021,-0.025513,0.219581,0.0,0.0,0.0,0,0
2026-06-16 15:50:30.455,1043642,R_Ankle,0.0184,0.0081,1.0105,0.77,-1.73,-0.48,0.0,0.0,0.0,0.204443,0.08887,0.020203,0.974609,0.0,0.0,0.0,0,0
2026-06-16 15:50:30.455,1043796,L_Shank,-0.0035,-0.0244,0.9858,1.76,-1.19,-0.21,2.76,2.68,-16.84,0.975249,-0.003021,-0.025513,0.219581,0.0,0.0,0.0,0,0
2026-06-16 15:50:30.457,1043662,R_Ankle,0.0145,-0.0126,1.0062,0.77,-1.73,-0.5,-18.26,29.37,-29.15,0.204443,0.0889,0.020234,0.974609,0.0,0.0,0.0,0,0
2026-06-16 15:50:30.457,1043741,L_Hip,0.1136,-0.071,0.9875,-4.16,4.51,2.99,-14.48,27.1,-23.14,0.97055,-0.042909,-0.062777,-0.228523,0.0,0.0,0.0,0,0
2026-06-16 15:50:30.460,1043761,L_Hip,0.1136,-0.072,0.9866,-4.16,4.49,2.96,-14.82,27.41,-22.27,0.97055,-0.042909,-0.062777,-0.228523,0.0,0.0,0.0,0,0
2026-06-16 15:50:30.460,1043611,R_Hip,0.051,0.0162,0.9871,0.28,-1.58,1.77,-18.69,30.0,-31.29,0.93759,-0.004151,-0.041719,-0.345103,0.0,0.0,0.0,0,0
2026-06-16 15:50:30.462,1043781,L_Hip,0.1195,-0.0656,0.9759,-4.15,4.5,2.97,-14.48,27.1,-23.14,0.97055,-0.042909,-0.062777,-0.228523,0.0,0.0,0.0,0,0
2026-06-16 15:50:30.463,1043631,R_Hip,0.0486,0.0079,0.9751,0.26,-1.57,1.77,-18.51,29.45,-32.82,0.93759,-0.004151,-0.041749,-0.345103,0.0,0.0,0.0,0,0
2026-06-16 15:50:30.465,1043651,R_Hip,0.0451,0.0045,0.9837,0.27,-1.58,1.78,-18.32,27.8,-30.94,0.93759,-0.00412,-0.04178,-0.345134,0.0,0.0,0.0,0,0
2026-06-16 15:50:30.465,1043801,L_Hip,0.1161,-0.0725,0.9832,-4.16,4.5,2.96,-12.96,26.97,-23.02,0.97055,-0.042909,-0.062746,-0.228523,0.0,0.0,0.0,0,0
2026-06-16 15:50:30.467,1043671,R_Hip,0.0466,0.0089,0.9962,0.26,-1.57,1.77,-18.14,28.35,-31.45,0.93759,-0.00412,-0.04178,-0.345134,0.0,0.0,0.0,0,0
2026-06-16 15:50:30.468,1043754,L_Ankle,0.1496,0.0129,0.9875,5.41,-0.83,-10.31,-37.84,-1.26,-40.2,0.94882,0.042604,-0.073977,0.303964,0.0,0.0,0.0,0,0
2026-06-16 15:50:30.469,1043774,L_Ankle,0.1393,0.0183,0.9866,5.42,-0.83,-10.31,-38.32,-2.13,-38.35,0.94882,0.042604,-0.074007,0.303964,0.0,0.0,0.0,0,0
2026-06-16 15:50:30.471,1043794,L_Ankle,0.1442,0.0129,0.9962,5.41,-0.83,-10.3,0.0,0.0,0.0,0.94882,0.042634,-0.074007,0.303964,0.0,0.0,0.0,0,0
2026-06-16 15:50:30.473,1043625,R_Ankle,0.0062,-0.0121,1.0153,0.76,-1.73,-0.48,-16.03,30.18,-28.98,0.204443,0.0889,0.020234,0.974609,0.0,0.0,0.0,0,0
2026-06-16 15:50:30.474,1043814,L_Ankle,0.1398,0.0197,1.0024,5.41,-0.83,-10.3,-38.89,-1.59,-40.56,0.94882,0.042604,-0.074007,0.303964,0.0,0.0,0.0,0,0
2026-06-16 15:50:30.476,1043645,R_Ankle,0.0101,-0.0126,1.0149,0.75,-1.71,-0.48,-16.39,29.23,-29.28,0.204443,0.08887,0.020234,0.974609,0.0,0.0,0.0,0,0
2026-06-16 15:50:30.477,1043764,L_Hip,0.1176,-0.0774,0.9895,-4.17,4.51,2.98,-14.46,28.39,-22.86,0.97055,-0.042909,-0.062746,-0.228553,0.0,0.0,0.0,0,0
2026-06-16 15:50:30.477,1043665,R_Ankle,0.0199,-0.0131,1.0081,0.77,-1.72,-0.49,0.0,0.0,0.0,0.204443,0.08887,0.020234,0.974609,0.0,0.0,0.0,0,0
2026-06-16 15:50:30.479,1043784,L_Hip,0.1239,-0.073,0.987,-4.16,4.51,2.98,-15.33,27.56,-22.11,0.97055,-0.042879,-0.062716,-0.228553,0.0,0.0,0.0,0,0
2026-06-16 15:50:30.480,1043685,R_Ankle,0.0199,-0.0121,1.0062,0.76,-1.73,-0.5,-14.86,29.41,-29.73,0.204443,0.08887,0.020234,0.974609,0.0,0.0,0.0,0,0
2026-06-16 15:50:30.481,1043804,L_Hip,0.12,-0.0774,0.9885,-4.16,4.51,2.96,-12.97,27.61,-21.57,0.97055,-0.042909,-0.062716,-0.228523,0.0,0.0,0.0,0,0
2026-06-16 15:50:30.482,1043627,R_Shank,0.0389,-0.8432,1.0013,-0.08,-1.46,-8.42,-15.93,26.26,-22.14,0.924162,0.035432,-0.020142,0.379772,0.0,0.0,0.0,0,0
2026-06-16 15:50:30.484,1043824,L_Hip,0.1205,-0.0646,0.987,-4.16,4.5,2.96,-12.95,28.25,-22.44,0.97055,-0.042909,-0.062716,-0.228523,0.0,0.0,0.0,0,0
2026-06-16 15:50:30.484,1043647,R_Shank,0.038,3.1396,1.0229,-0.09,-1.48,-8.42,-14.75,26.08,-21.7,0.924162,0.035432,-0.020142,0.379772,0.0,0.0,0.0,0,0
2026-06-16 15:50:30.486,1043667,R_Shank,0.0365,-1.232,1.01,-0.1,-1.47,-8.43,0.0,0.0,0.0,0.924162,0.035432,-0.020142,0.379742,0.0,0.0,0.0,0,0
2026-06-16 15:50:30.487,1043687,R_Shank,0.0429,-2.9024,0.9956,-0.09,-1.46,-8.43,-15.76,25.44,-21.09,0.924162,0.035432,-0.020142,0.379742,0.0,0.0,0.0,0,0
2026-06-16 15:50:30.489,1043637,R_Hip,0.051,0.0079,0.9919,0.26,-1.58,1.77,-17.41,27.98,-30.76,0.93759,-0.004151,-0.04178,-0.345134,0.0,0.0,0.0,0,0
2026-06-16 15:50:30.491,1043657,R_Hip,0.0471,0.0128,1.0001,0.28,-1.57,1.77,-17.96,28.9,-30.94,0.93759,-0.00412,-0.04178,-0.345134,0.0,0.0,0.0,0,0
2026-06-16 15:50:30.493,1043677,R_Hip,0.0387,0.0045,0.9871,0.26,-1.57,1.8,-17.41,28.35,-31.79,0.93759,-0.00412,-0.04178,-0.345134,0.0,0.0,0.0,0,0
2026-06-16 15:50:30.494,1043697,R_Hip,0.0407,0.0089,0.9924,0.25,-1.58,1.79,-16.87,29.27,-33.67,0.93759,-0.00412,-0.041749,-0.345134,0.0,0.0,0.0,0,0
2026-06-16 15:50:30.497,1043650,R_Shank,0.0492,3.1396,1.0114,-0.09,-1.46,-8.42,-16.25,25.6,-22.44,0.924162,0.035432,-0.020142,0.379742,0.0,0.0,0.0,0,0
2026-06-16 15:50:30.499,1043786,L_Shank,0.0091,-0.0234,0.9954,1.76,-1.19,-0.19,2.57,3.17,-15.44,0.975249,-0.003021,-0.025483,0.219581,0.0,0.0,0.0,0,0
2026-06-16 15:50:30.500,1043670,R_Shank,0.0463,3.2692,1.0148,-0.09,-1.45,-8.41,-14.22,25.56,-23.37,0.924162,0.035463,-0.020142,0.379742,0.0,0.0,0.0,0,0
2026-06-16 15:50:30.501,1043806,L_Shank,-0.0089,-0.017,0.9959,1.76,-1.18,-0.19,2.58,1.16,-16.97,0.975249,-0.003052,-0.025513,0.219581,0.0,0.0,0.0,0,0
2026-06-16 15:50:30.502,1043690,R_Shank,0.0438,-2.514,1.0104,-0.11,-1.45,-8.42,0.0,0.0,0.0,0.924162,0.035432,-0.020173,0.379742,0.0,0.0,0.0,0,0
2026-06-16 15:50:30.503,1043787,L_Shank,0.0008,-0.0229,0.981,1.75,-1.19,-0.2,2.93,2.85,-16.69,0.975249,-0.003052,-0.025513,0.219581,0.0,0.0,0.0,0,0
2026-06-16 15:50:30.504,1043710,R_Shank,0.0414,0.8276,1.0186,-0.09,-1.47,-8.41,-16.92,24.96,-21.54,0.924162,0.035432,-0.020173,0.379742,0.0,0.0,0.0,0,0
2026-06-16 15:50:30.505,1043807,L_Shank,0.0008,-0.0322,0.9671,1.75,-1.18,-0.19,0.0,0.0,0.0,0.975249,-0.003052,-0.025513,0.219581,0.0,0.0,0.0,0,0
2026-06-16 15:50:30.510,1043662,R_Hip,0.0422,0.0089,1.0102,0.27,-1.58,1.77,-17.04,29.08,-30.42,0.93759,-0.00412,-0.041749,-0.345134,0.0,0.0,0.0,0,0
2026-06-16 15:50:30.512,1043799,L_Ankle,0.1423,0.0188,0.9846,5.42,-0.82,-10.3,-39.42,-0.7,-39.72,0.94882,0.042634,-0.074007,0.303964,0.0,0.0,0.0,0,0
2026-06-16 15:50:30.512,1043682,R_Hip,0.0417,-0.0013,0.9876,0.27,-1.58,1.77,-19.05,28.54,-33.33,0.93759,-0.00412,-0.041719,-0.345134,0.0,0.0,0.0,0,0
2026-06-16 15:50:30.514,1043819,L_Ankle,0.1418,0.0129,0.988,5.41,-0.8,-10.32,-39.39,-2.47,-39.73,0.94882,0.042634,-0.074007,0.303964,0.0,0.0,0.0,0,0
2026-06-16 15:50:30.514,1043702,R_Hip,0.0412,0.0113,0.9958,0.28,-1.57,1.79,-16.5,29.63,-32.31,0.93759,-0.00412,-0.041719,-0.345134,0.0,0.0,0.0,0,0
2026-06-16 15:50:30.516,1043839,L_Ankle,0.1388,0.0119,1.0029,5.41,-0.83,-10.3,0.0,0.0,0.0,0.94882,0.042604,-0.074007,0.303964,0.0,0.0,0.0,0,0
2026-06-16 15:50:30.516,1043722,R_Hip,0.0348,0.0069,0.9871,0.26,-1.57,1.78,-18.32,29.26,-31.62,0.93759,-0.00412,-0.041688,-0.345134,0.0,0.0,0.0,0,0
2026-06-16 15:50:30.518,1043859,L_Ankle,0.1398,0.0163,0.9774,5.41,-0.83,-10.3,-39.93,-1.93,-39.9,0.94882,0.042604,-0.073977,0.303964,0.0,0.0,0.0,0,0
2026-06-16 15:50:30.519,1043669,R_Ankle,0.0111,-0.0111,1.0034,0.77,-1.73,-0.51,-15.19,30.36,-30.05,0.204443,0.08887,0.020264,0.974609,0.0,0.0,0.0,0,0
2026-06-16 15:50:30.520,1043689,R_Ankle,0.0194,-0.0076,1.0105,0.79,-1.73,-0.5,-15.7,30.19,-29.28,0.204443,0.08887,0.020264,0.974609,0.0,0.0,0.0,0,0
2026-06-16 15:50:30.523,1043709,R_Ankle,0.0233,-0.0081,1.0101,0.77,-1.74,-0.48,-15.71,29.88,-29.89,0.204443,0.08887,0.020295,0.974609,0.0,0.0,0.0,0,0
2026-06-16 15:50:30.523,1043810,L_Hip,0.1185,-0.0666,0.989,-4.16,4.51,2.96,-12.95,28.25,-22.44,0.97055,-0.042909,-0.062716,-0.228523,0.0,0.0,0.0,0,0
2026-06-16 15:50:30.525,1043729,R_Ankle,0.0121,-0.0136,1.001,0.76,-1.74,-0.48,-15.36,29.24,-29.27,0.204443,0.0889,0.020295,0.974609,0.0,0.0,0.0,0,0
2026-06-16 15:50:30.525,1043830,L_Hip,0.1303,-0.073,0.9808,-4.16,4.52,2.96,0.0,0.0,0.0,0.97055,-0.042879,-0.062716,-0.228523,0.0,0.0,0.0,0,0
2026-06-16 15:50:30.527,1043672,R_Shank,0.0458,-0.7136,0.9984,-0.11,-1.47,-8.42,-17.26,24.64,-20.93,0.924162,0.035432,-0.020173,0.379742,0.0,0.0,0.0,0,0
2026-06-16 15:50:30.527,1043850,L_Hip,0.1161,-0.0626,0.9953,-4.16,4.51,2.96,-13.15,26.15,-22.58,0.97055,-0.042909,-0.062685,-0.228523,0.0,0.0,0.0,0,0
2026-06-16 15:50:30.529,1043692,R_Shank,0.0438,-0.8432,1.0148,-0.09,-1.45,-8.41,-14.57,25.9,-22.46,0.924162,0.035432,-0.020203,0.379742,0.0,0.0,0.0,0,0
2026-06-16 15:50:30.530,1043870,L_Hip,0.122,-0.0725,0.9909,-4.16,4.51,2.98,-14.29,27.59,-23.58,0.97055,-0.042909,-0.062716,-0.228523,0.0,0.0,0.0,0,0
2026-06-16 15:50:30.531,1043712,R_Shank,0.0321,1.3392,1.0047,-0.09,-1.45,-8.42,0.0,0.0,0.0,0.924162,0.035371,-0.020203,0.379742,0.0,0.0,0.0,0,0
2026-06-16 15:50:30.533,1043732,R_Shank,0.0399,-0.7136,0.998,-0.1,-1.45,-8.41,-14.6,26.9,-21.55,0.924162,0.035371,-0.020173,0.379742,0.0,0.0,0.0,0,0
2026-06-16 15:50:30.534,1043821,L_Ankle,0.1433,0.0134,0.9914,5.41,-0.83,-10.31,-39.57,-2.29,-39.9,0.94882,0.042604,-0.074007,0.303964,0.0,0.0,0.0,0,0
2026-06-16 15:50:30.536,1043841,L_Ankle,0.132,0.0153,0.9986,5.41,-0.83,-10.31,-39.07,-0.7,-39.71,0.94882,0.042604,-0.073977,0.303964,0.0,0.0,0.0,0,0
2026-06-16 15:50:30.538,1043861,L_Ankle,0.1418,0.0109,0.9866,5.41,-0.83,-10.3,0.0,0.0,0.0,0.94882,0.042604,-0.073977,0.303964,0.0,0.0,0.0,0,0
2026-06-16 15:50:30.540,1043822,L_Ankle,0.1472,0.0105,0.976,5.41,-0.84,-10.29,-39.21,-2.65,-39.89,0.94882,0.042604,-0.073977,0.303964,0.0,0.0,0.0,0,0
2026-06-16 15:50:30.544,1043831,L_Hip,0.1254,-0.0646,0.9783,-4.16,4.51,2.97,-14.67,26.61,-22.12,0.97055,-0.042879,-0.062685,-0.228523,0.0,0.0,0.0,0,0
2026-06-16 15:50:30.545,1043851,L_Hip,0.1176,-0.0705,0.9822,-4.16,4.51,2.96,0.0,0.0,0.0,0.97055,-0.042909,-0.062685,-0.228523,0.0,0.0,0.0,0,0
2026-06-16 15:50:30.547,1043871,L_Hip,0.1229,-0.072,0.9769,-4.16,4.5,2.96,-14.62,28.55,-23.0,0.97055,-0.042879,-0.062685,-0.228523,0.0,0.0,0.0,0,0
2026-06-16 15:50:30.549,1043891,L_Hip,0.1146,-0.0715,0.9885,-4.17,4.51,2.97,-13.83,26.14,-22.28,0.97055,-0.042879,-0.062716,-0.228523,0.0,0.0,0.0,0,0
2026-06-16 15:50:30.551,1043836,L_Shank,0.0033,-0.0209,0.9705,1.76,-1.16,-0.19,3.47,1.68,-18.08,0.975249,-0.003052,-0.025513,0.219581,0.0,0.0,0.0,0,0
2026-06-16 15:50:30.552,1043856,L_Shank,-0.005,-0.0214,0.9887,1.76,-1.19,-0.19,2.58,2.17,-16.68,0.975249,-0.003052,-0.025513,0.219581,0.0,0.0,0.0,0,0
2026-06-16 15:50:30.554,1043876,L_Shank,0.0052,-0.0141,0.9954,1.75,-1.18,-0.2,2.58,2.85,-16.69,0.975219,-0.003052,-0.025513,0.219581,0.0,0.0,0.0,0,0
2026-06-16 15:50:30.556,1043896,L_Shank,0.0033,-0.0219,0.9815,1.74,-1.2,-0.2,0.0,0.0,0.0,0.975249,-0.003021,-0.025513,0.219581,0.0,0.0,0.0,0,0
2026-06-16 15:50:30.560,1043712,R_Hip,0.0481,0.0069,0.9914,0.26,-1.57,1.77,-17.23,29.26,-31.62,0.93759,-0.00412,-0.041658,-0.345134,0.0,0.0,0.0,0,0
2026-06-16 15:50:30.561,1043732,R_Hip,0.0407,0.0108,0.9828,0.27,-1.58,1.77,0.0,0.0,0.0,0.93759,-0.00412,-0.041658,-0.345103,0.0,0.0,0.0,0,0
2026-06-16 15:50:30.563,1043752,R_Hip,0.0451,0.0064,0.9967,0.27,-1.56,1.78,-17.96,28.54,-34.02,0.93759,-0.00412,-0.041658,-0.345134,0.0,0.0,0.0,0,0
2026-06-16 15:50:30.565,1043772,R_Hip,0.0471,0.0128,0.9914,0.26,-1.56,1.77,-18.69,28.54,-32.99,0.93759,-0.00412,-0.041658,-0.345134,0.0,0.0,0.0,0,0
2026-06-16 15:50:30.566,1043714,R_Ankle,0.0135,-0.0136,0.9986,0.77,-1.73,-0.49,-15.86,30.34,-28.82,0.204443,0.0889,0.020295,0.974609,0.0,0.0,0.0,0,0
2026-06-16 15:50:30.568,1043734,R_Ankle,0.0135,-0.0141,1.0034,0.77,-1.74,-0.5,-16.21,30.03,-29.44,0.204443,0.08887,0.020295,0.974609,0.0,0.0,0.0,0,0
2026-06-16 15:50:30.570,1043754,R_Ankle,0.0111,-0.0116,0.988,0.77,-1.73,-0.5,-15.71,29.56,-29.58,0.204443,0.0889,0.020295,0.974609,0.0,0.0,0.0,0,0
2026-06-16 15:50:30.571,1043774,R_Ankle,0.0135,-0.0111,1.0053,0.77,-1.74,-0.49,0.0,0.0,0.0,0.204443,0.0889,0.020295,0.974609,0.0,0.0,0.0,0,0
2026-06-16 15:50:30.573,1043717,R_Shank,0.0438,2.2392,1.0028,-0.08,-1.48,-8.41,-16.26,26.27,-22.44,0.924162,0.035401,-0.020173,0.379742,0.0,0.0,0.0,0,0
2026-06-16 15:50:30.574,1043861,L_Shank,-0.0074,-0.0244,0.9815,1.75,-1.19,-0.2,2.94,2.52,-17.62,0.975219,-0.003052,-0.025513,0.219581,0.0,0.0,0.0,0,0
2026-06-16 15:50:30.575,1043737,R_Shank,0.0434,-0.0724,1.0157,-0.09,-1.47,-8.43,0.0,0.0,0.0,0.924162,0.035401,-0.020173,0.379742,0.0,0.0,0.0,0,0
2026-06-16 15:50:30.576,1043881,L_Shank,0.0018,-0.0253,0.981,1.75,-1.17,-0.19,1.71,1.66,-16.82,0.975249,-0.003021,-0.025513,0.219581,0.0,0.0,0.0,0,0
2026-06-16 15:50:30.577,1043757,R_Shank,0.036,-0.9728,0.9994,-0.09,-1.47,-8.43,-15.1,26.42,-21.39,0.924162,0.035371,-0.020173,0.379742,0.0,0.0,0.0,0,0
2026-06-16 15:50:30.579,1043862,L_Shank,0.0072,-0.0146,0.9782,1.76,-1.17,-0.21,3.28,2.51,-16.38,0.975249,-0.003021,-0.025513,0.219581,0.0,0.0,0.0,0,0
2026-06-16 15:50:30.580,1043777,R_Shank,0.0458,-2.6436,1.0023,-0.09,-1.45,-8.43,-16.25,25.6,-22.44,0.924162,0.035371,-0.020173,0.379742,0.0,0.0,0.0,0,0
2026-06-16 15:50:30.581,1043882,L_Shank,-0.0064,-0.0224,0.9858,1.76,-1.19,-0.19,3.99,2.18,-17.62,0.975219,-0.003021,-0.025544,0.219611,0.0,0.0,0.0,0,0
2026-06-16 15:50:30.582,1043866,L_Ankle,0.1388,0.007,0.9875,5.41,-0.82,-10.3,-38.9,-0.18,-39.88,0.94882,0.042604,-0.073977,0.303995,0.0,0.0,0.0,0,0
2026-06-16 15:50:30.584,1043886,L_Ankle,0.1462,0.007,0.9866,5.41,-0.82,-10.29,-40.28,-1.21,-39.57,0.94882,0.042573,-0.073977,0.303995,0.0,0.0,0.0,0,0
2026-06-16 15:50:30.585,1043737,R_Hip,0.0417,0.0123,0.9924,0.26,-1.58,1.77,-18.14,27.26,-32.47,0.93759,-0.00412,-0.041658,-0.345134,0.0,0.0,0.0,0,0
2026-06-16 15:50:30.587,1043906,L_Ankle,0.1388,0.0144,1.0048,5.41,-0.83,-10.29,-39.59,-0.87,-39.89,0.94882,0.042573,-0.073977,0.303995,0.0,0.0,0.0,0,0
2026-06-16 15:50:30.587,1043757,R_Hip,0.0328,0.0074,0.9885,0.25,-1.57,1.77,0.0,0.0,0.0,0.93759,-0.004089,-0.041658,-0.345134,0.0,0.0,0.0,0,0
2026-06-16 15:50:30.589,1043926,L_Ankle,0.1486,0.0149,0.9707,5.41,-0.83,-10.29,0.0,0.0,0.0,0.94882,0.042573,-0.073977,0.303995,0.0,0.0,0.0,0,0
2026-06-16 15:50:30.589,1043777,R_Hip,0.0471,0.0049,0.9866,0.26,-1.57,1.78,-15.77,29.63,-31.28,0.93759,-0.004089,-0.041658,-0.345134,0.0,0.0,0.0,0,0
2026-06-16 15:50:30.591,1043797,R_Hip,0.0402,0.0049,0.9914,0.27,-1.58,1.78,-18.5,27.98,-31.11,0.93759,-0.004089,-0.041627,-0.345134,0.0,0.0,0.0,0,0
2026-06-16 15:50:30.591,1043877,L_Hip,0.12,-0.0749,0.9861,-4.17,4.51,2.97,-14.66,27.57,-21.54,0.97055,-0.042879,-0.062685,-0.228523,0.0,0.0,0.0,0,0
2026-06-16 15:50:30.593,1043897,L_Hip,0.12,-0.0661,0.9895,-4.16,4.49,2.98,0.0,0.0,0.0,0.97055,-0.042879,-0.062685,-0.228523,0.0,0.0,0.0,0,0
2026-06-16 15:50:30.594,1043739,R_Shank,0.0409,-2.9024,1.022,-0.08,-1.47,-8.41,-15.97,26.94,-20.02,0.924162,0.035401,-0.020173,0.379742,0.0,0.0,0.0,0,0
2026-06-16 15:50:30.595,1043917,L_Hip,0.1229,-0.0715,0.987,-4.16,4.51,2.97,-14.12,27.43,-23.73,0.97055,-0.042879,-0.062654,-0.228523,0.0,0.0,0.0,0,0
2026-06-16 15:50:30.596,1043759,R_Shank,0.0384,-0.0724,1.0119,-0.09,-1.46,-8.41,-15.09,26.41,-22.3,0.924162,0.035401,-0.020203,0.379742,0.0,0.0,0.0,0,0
2026-06-16 15:50:30.598,1043779,R_Shank,0.0384,2.2392,1.0013,-0.09,-1.47,-8.43,0.0,0.0,0.0,0.924162,0.035401,-0.020173,0.379742,0.0,0.0,0.0,0,0
2026-06-16 15:50:30.598,1043937,L_Hip,0.1229,-0.0735,0.9764,-4.15,4.51,2.97,-12.3,26.98,-22.45,0.97055,-0.042879,-0.062654,-0.228523,0.0,0.0,0.0,0,0
2026-06-16 15:50:30.600,1043799,R_Shank,0.0483,-1.7432,1.0167,-0.09,-1.47,-8.42,-15.92,26.26,-22.74,0.924162,0.035401,-0.020203,0.379742,0.0,0.0,0.0,0,0
2026-06-16 15:50:30.608,1043760,R_Ankle,0.0214,-0.0067,1.0144,0.76,-1.74,-0.51,-15.36,30.2,-29.89,0.204443,0.0889,0.020295,0.974609,0.0,0.0,0.0,0,0
2026-06-16 15:50:30.610,1043780,R_Ankle,0.0189,-0.0081,1.0038,0.75,-1.74,-0.51,-16.56,30.03,-30.06,0.204474,0.088931,0.020295,0.974609,0.0,0.0,0.0,0,0
2026-06-16 15:50:30.612,1043800,R_Ankle,0.0121,-0.0042,1.0024,0.76,-1.72,-0.49,-15.86,30.02,-28.2,0.204474,0.088931,0.020295,0.974609,0.0,0.0,0.0,0,0
2026-06-16 15:50:30.612,1043899,L_Hip,0.1274,-0.0764,0.9904,-4.16,4.51,2.96,-13.64,27.6,-22.14,0.97055,-0.042879,-0.062654,-0.228523,0.0,0.0,0.0,0,0
2026-06-16 15:50:30.614,1043820,R_Ankle,0.016,-0.0052,1.0058,0.76,-1.71,-0.48,0.0,0.0,0.0,0.204474,0.088931,0.020325,0.974609,0.0,0.0,0.0,0,0
2026-06-16 15:50:30.614,1043919,L_Hip,0.1176,-0.0744,0.9972,-4.16,4.51,2.98,0.0,0.0,0.0,0.97055,-0.042879,-0.062654,-0.228523,0.0,0.0,0.0,0,0
2026-06-16 15:50:30.616,1043939,L_Hip,0.1161,-0.071,0.9929,-4.15,4.5,2.96,-14.15,26.78,-22.56,0.97055,-0.042909,-0.062654,-0.228553,0.0,0.0,0.0,0,0
2026-06-16 15:50:30.618,1043959,L_Hip,0.1171,-0.0793,0.9933,-4.14,4.51,2.96,-14.45,27.75,-23.72,0.97055,-0.042909,-0.062654,-0.228553,0.0,0.0,0.0,0,0
2026-06-16 15:50:30.624,1043911,L_Shank,0.0062,-0.0244,0.9801,1.76,-1.19,-0.2,2.59,2.86,-17.31,0.975219,-0.003021,-0.025544,0.219611,0.0,0.0,0.0,0,0
2026-06-16 15:50:30.625,1043931,L_Shank,-0.0001,-0.02,0.9873,1.74,-1.19,-0.19,0.0,0.0,0.0,0.975219,-0.003021,-0.025513,0.219611,0.0,0.0,0.0,0,0
2026-06-16 15:50:30.627,1043912,L_Shank,0.0003,-0.0131,0.9767,1.77,-1.19,-0.19,3.8,2.0,-16.53,0.975219,-0.003021,-0.025483,0.219611,0.0,0.0,0.0,0,0
2026-06-16 15:50:30.629,1043932,L_Shank,0.0057,-0.0253,0.9825,1.75,-1.19,-0.2,2.41,1.66,-16.82,0.975219,-0.00296,-0.025513,0.219611,0.0,0.0,0.0,0,0
2026-06-16 15:50:30.630,1043782,R_Ankle,0.0072,-0.0052,1.0029,0.76,-1.73,-0.48,-15.7,29.55,-28.97,0.204474,0.0889,0.020295,0.974609,0.0,0.0,0.0,0,0
2026-06-16 15:50:30.631,1043802,R_Ankle,0.0189,-0.0166,1.0062,0.74,-1.73,-0.49,-15.18,29.71,-28.81,0.204474,0.0889,0.020295,0.974609,0.0,0.0,0.0,0,0
2026-06-16 15:50:30.633,1043822,R_Ankle,0.0145,0.0036,0.9957,0.75,-1.71,-0.49,0.0,0.0,0.0,0.204443,0.0889,0.020325,0.974609,0.0,0.0,0.0,0,0
2026-06-16 15:50:30.634,1043921,L_Hip,0.1185,-0.0739,0.9846,-4.16,4.51,2.96,-13.96,27.27,-23.29,0.97055,-0.042879,-0.062654,-0.228553,0.0,0.0,0.0,0,0
2026-06-16 15:50:30.635,1043842,R_Ankle,0.0101,-0.0121,1.0096,0.76,-1.72,-0.49,-15.7,30.2,-29.9,0.204443,0.08887,0.020325,0.974609,0.0,0.0,0.0,0,0
2026-06-16 15:50:30.636,1043941,L_Hip,0.119,-0.0789,0.9851,-4.15,4.51,2.96,0.0,0.0,0.0,0.97055,-0.042909,-0.062654,-0.228553,0.0,0.0,0.0,0,0
2026-06-16 15:50:30.638,1043785,R_Shank,0.0384,-2.514,1.0008,-0.09,-1.45,-8.41,-14.92,25.92,-21.25,0.924162,0.035401,-0.020203,0.379742,0.0,0.0,0.0,0,0
2026-06-16 15:50:30.639,1043961,L_Hip,0.1298,-0.0685,0.9948,-4.16,4.51,2.94,-14.82,27.09,-22.85,0.97055,-0.042909,-0.062685,-0.228553,0.0,0.0,0.0,0,0
2026-06-16 15:50:30.640,1043805,R_Shank,0.0419,-0.0724,1.0013,-0.09,-1.47,-8.41,0.0,0.0,0.0,0.924162,0.035401,-0.020173,0.379742,0.0,0.0,0.0,0,0
2026-06-16 15:50:30.641,1043981,L_Hip,0.12,-0.0779,0.9861,-4.16,4.5,2.98,-13.63,27.92,-22.14,0.97055,-0.042909,-0.062654,-0.228553,0.0,0.0,0.0,0,0
2026-06-16 15:50:30.642,1043825,R_Shank,0.0316,2.3688,0.9994,-0.11,-1.46,-8.43,-15.09,26.41,-22.3,0.924162,0.035371,-0.020203,0.379742,0.0,0.0,0.0,0,0
2026-06-16 15:50:30.644,1043845,R_Shank,0.0429,-3.0256,1.0152,-0.1,-1.47,-8.43,-17.6,25.63,-22.13,0.924162,0.03534,-0.020203,0.379742,0.0,0.0,0.0,0,0
2026-06-16 15:50:30.647,1043935,L_Ankle,0.1447,0.01,0.9789,5.4,-0.83,-10.3,-39.21,-1.94,-39.21,0.94882,0.042573,-0.073977,0.303995,0.0,0.0,0.0,0,0
2026-06-16 15:50:30.649,1043955,L_Ankle,0.1447,0.0119,0.9803,5.41,-0.83,-10.29,-39.78,-1.76,-41.43,0.94882,0.042573,-0.073977,0.303995,0.0,0.0,0.0,0,0
2026-06-16 15:50:30.651,1043975,L_Ankle,0.1403,0.0173,0.9904,5.41,-0.83,-10.31,-40.33,-0.87,-41.95,0.94882,0.042573,-0.073977,0.303995,0.0,0.0,0.0,0,0
2026-06-16 15:50:30.653,1043995,L_Ankle,0.1428,0.0031,0.9899,5.41,-0.83,-10.3,0.0,0.0,0.0,0.94882,0.042604,-0.073977,0.303995,0.0,0.0,0.0,0,0
2026-06-16 15:50:30.655,1043936,L_Shank,0.0111,-0.0229,0.9863,1.74,-1.19,-0.19,2.76,3.36,-17.16,0.975219,-0.002991,-0.025513,0.219581,0.0,0.0,0.0,0,0
2026-06-16 15:50:30.655,1043807,R_Shank,0.0443,3.2692,1.0066,-0.08,-1.45,-8.42,-15.74,25.43,-22.9,0.924162,0.03534,-0.020203,0.379742,0.0,0.0,0.0,0,0
2026-06-16 15:50:30.657,1043956,L_Shank,-0.003,-0.0151,0.995,1.76,-1.17,-0.19,0.0,0.0,0.0,0.975219,-0.002991,-0.025513,0.219611,0.0,0.0,0.0,0,0
2026-06-16 15:50:30.658,1043827,R_Shank,0.034,1.5984,1.0109,-0.09,-1.46,-8.42,0.0,0.0,0.0,0.924192,0.03531,-0.020203,0.379742,0.0,0.0,0.0,0,0
2026-06-16 15:50:30.659,1043847,R_Shank,0.0453,1.5984,1.0037,-0.08,-1.47,-8.41,-16.99,27.62,-20.61,0.924192,0.03534,-0.020203,0.379742,0.0,0.0,0.0,0,0
2026-06-16 15:50:30.661,1043976,L_Shank,0.0052,-0.0229,0.982,1.76,-1.19,-0.2,2.75,1.99,-15.9,0.975219,-0.002991,-0.025544,0.219611,0.0,0.0,0.0,0,0
2026-06-16 15:50:30.662,1043867,R_Shank,0.034,-0.0724,1.0066,-0.09,-1.47,-8.41,-15.41,26.08,-22.9,0.924192,0.03531,-0.020203,0.379742,0.0,0.0,0.0,0,0
2026-06-16 15:50:30.663,1043996,L_Shank,0.0008,-0.0244,0.9854,1.74,-1.2,-0.21,2.4,1.31,-16.2,0.975219,-0.002991,-0.025513,0.219611,0.0,0.0,0.0,0,0
2026-06-16 15:50:30.665,1043812,R_Hip,0.0481,0.004,0.9953,0.27,-1.58,1.77,-17.96,28.54,-32.31,0.93759,-0.004089,-0.041627,-0.345134,0.0,0.0,0.0,0,0
2026-06-16 15:50:30.666,1043832,R_Hip,0.0441,0.0049,0.9794,0.27,-1.55,1.78,-17.23,30.36,-32.65,0.93759,-0.00412,-0.041658,-0.345134,0.0,0.0,0.0,0,0
2026-06-16 15:50:30.668,1043852,R_Hip,0.0486,-0.0018,0.9938,0.26,-1.58,1.79,-17.77,28.72,-31.79,0.93759,-0.00412,-0.041658,-0.345134,0.0,0.0,0.0,0,0
2026-06-16 15:50:30.670,1043956,L_Ankle,0.1413,0.0217,0.9885,5.41,-0.83,-10.3,-38.36,-1.07,-39.7,0.94882,0.042604,-0.074007,0.303995,0.0,0.0,0.0,0,0
2026-06-16 15:50:30.671,1043872,R_Hip,0.0456,0.0045,0.99,0.25,-1.58,1.77,0.0,0.0,0.0,0.93759,-0.004151,-0.041658,-0.345134,0.0,0.0,0.0,0,0
2026-06-16 15:50:30.672,1043976,L_Ankle,0.1442,0.0183,0.9894,5.41,-0.83,-10.3,-38.71,-1.77,-40.05,0.94882,0.042604,-0.073977,0.303995,0.0,0.0,0.0,0,0
2026-06-16 15:50:30.674,1043957,L_Ankle,0.1398,0.0036,0.9827,5.42,-0.83,-10.32,-38.0,-1.43,-39.36,0.94882,0.042634,-0.073977,0.303995,0.0,0.0,0.0,0,0
2026-06-16 15:50:30.675,1043827,R_Ankle,0.0081,-0.0166,1.0058,0.76,-1.74,-0.49,-15.54,29.4,-29.73,0.204443,0.0889,0.020325,0.974609,0.0,0.0,0.0,0,0
2026-06-16 15:50:30.676,1043977,L_Ankle,0.1545,0.0153,0.9928,5.41,-0.83,-10.29,0.0,0.0,0.0,0.94882,0.042604,-0.074007,0.303964,0.0,0.0,0.0,0,0
2026-06-16 15:50:30.678,1043847,R_Ankle,0.0194,-0.0136,0.9957,0.76,-1.73,-0.51,-15.19,29.4,-29.42,0.204443,0.0889,0.020325,0.974609,0.0,0.0,0.0,0,0
2026-06-16 15:50:30.680,1043966,L_Hip,0.1185,-0.0695,0.9769,-4.16,4.51,2.96,-14.33,26.61,-22.12,0.97055,-0.042909,-0.062685,-0.228553,0.0,0.0,0.0,0,0
2026-06-16 15:50:30.681,1043867,R_Ankle,0.016,-0.0161,0.9899,0.77,-1.73,-0.5,-16.06,28.92,-29.89,0.204474,0.0889,0.020295,0.974609,0.0,0.0,0.0,0,0
2026-06-16 15:50:30.682,1043986,L_Hip,0.1259,-0.0715,0.9938,-4.16,4.5,2.95,-12.1,27.47,-23.76,0.97055,-0.042909,-0.062716,-0.228553,0.0,0.0,0.0,0,0
2026-06-16 15:50:30.683,1043887,R_Ankle,0.017,-0.0081,1.0105,0.77,-1.73,-0.5,0.0,0.0,0.0,0.204443,0.0889,0.020295,0.974609,0.0,0.0,0.0,0,0
2026-06-16 15:50:30.685,1044006,L_Hip,0.1185,-0.0607,0.9875,-4.16,4.51,2.96,0.0,0.0,0.0,0.97055,-0.042909,-0.062716,-0.228553,0.0,0.0,0.0,0,0
2026-06-16 15:50:30.687,1043837,R_Hip,0.0367,0.0059,0.9818,0.26,-1.56,1.77,-17.95,27.8,-30.94,0.93759,-0.004151,-0.041658,-0.345134,0.0,0.0,0.0,0,0
2026-06-16 15:50:30.688,1044026,L_Hip,0.1185,-0.0636,0.9837,-4.15,4.51,2.97,-13.82,27.11,-21.99,0.970519,-0.042909,-0.062716,-0.228584,0.0,0.0,0.0,0,0
2026-06-16 15:50:30.692,1043857,R_Hip,0.0343,0.004,0.9808,0.28,-1.56,1.77,-18.69,28.9,-33.34,0.93759,-0.004151,-0.041658,-0.345134,0.0,0.0,0.0,0,0
2026-06-16 15:50:30.692,1043979,L_Ankle,0.1462,0.0124,0.988,5.42,-0.83,-10.31,-39.6,-1.94,-41.26,0.94882,0.042634,-0.074007,0.303964,0.0,0.0,0.0,0,0
2026-06-16 15:50:30.694,1043877,R_Hip,0.0476,0.0079,0.9876,0.26,-1.58,1.77,-16.32,29.08,-31.79,0.93759,-0.004151,-0.041627,-0.345164,0.0,0.0,0.0,0,0
2026-06-16 15:50:30.695,1043999,L_Ankle,0.1374,0.007,0.9856,5.42,-0.83,-10.31,-38.69,-2.84,-40.05,0.94882,0.042604,-0.073977,0.303964,0.0,0.0,0.0,0,0
2026-06-16 15:50:30.697,1043897,R_Hip,0.0441,0.0142,0.9837,0.25,-1.55,1.78,0.0,0.0,0.0,0.93759,-0.004151,-0.041627,-0.345164,0.0,0.0,0.0,0,0
2026-06-16 15:50:30.698,1044019,L_Ankle,0.1428,0.0153,0.9952,5.41,-0.82,-10.31,-39.05,-1.06,-39.03,0.94882,0.042604,-0.074007,0.303964,0.0,0.0,0.0,0,0
2026-06-16 15:50:30.700,1044039,L_Ankle,0.1447,0.008,0.9808,5.41,-0.83,-10.31,0.0,0.0,0.0,0.94882,0.042634,-0.073977,0.303995,0.0,0.0,0.0,0,0
2026-06-16 15:50:30.701,1043852,R_Shank,0.0429,1.4688,1.008,-0.1,-1.48,-8.42,-15.93,25.28,-20.94,0.924192,0.03534,-0.020203,0.379742,0.0,0.0,0.0,0,0
2026-06-16 15:50:30.703,1043986,L_Shank,0.0028,-0.0248,0.9858,1.77,-1.17,-0.2,2.75,0.97,-15.88,0.975219,-0.003021,-0.025513,0.219611,0.0,0.0,0.0,0,0
2026-06-16 15:50:30.704,1043872,R_Shank,0.0399,0.5684,1.0008,-0.09,-1.47,-8.41,0.0,0.0,0.0,0.924192,0.035371,-0.020203,0.379742,0.0,0.0,0.0,0,0
2026-06-16 15:50:30.705,1044006,L_Shank,0.0072,-0.0204,0.9887,1.75,-1.18,-0.22,0.0,0.0,0.0,0.975219,-0.003052,-0.025544,0.219611,0.0,0.0,0.0,0,0
2026-06-16 15:50:30.706,1043892,R_Shank,0.0448,-1.1024,1.0013,-0.09,-1.46,-8.42,-15.77,26.76,-21.99,0.924192,0.035371,-0.020203,0.379742,0.0,0.0,0.0,0,0
2026-06-16 15:50:30.707,1044026,L_Shank,0.0013,-0.018,0.9983,1.76,-1.18,-0.2,2.94,1.84,-17.3,0.975219,-0.003052,-0.025544,0.219611,0.0,0.0,0.0,0,0
2026-06-16 15:50:30.709,1043912,R_Shank,0.0404,-0.8432,1.0032,-0.1,-1.45,-8.44,-15.26,26.58,-22.14,0.924192,0.035371,-0.020203,0.379711,0.0,0.0,0.0,0,0
2026-06-16 15:50:30.710,1044046,L_Shank,0.0047,-0.0165,0.9945,1.75,-1.18,-0.2,2.59,1.5,-17.6,0.975219,-0.003052,-0.025513,0.219611,0.0,0.0,0.0,0,0
2026-06-16 15:50:30.711,1043862,R_Hip,0.0436,0.0089,1.0006,0.27,-1.56,1.78,-16.68,29.45,-31.45,0.93759,-0.004151,-0.041627,-0.345164,0.0,0.0,0.0,0,0
2026-06-16 15:50:30.713,1043882,R_Hip,0.0515,0.0103,0.9982,0.26,-1.58,1.78,-17.05,28.72,-32.82,0.93759,-0.004151,-0.041597,-0.345164,0.0,0.0,0.0,0,0
2026-06-16 15:50:30.715,1043902,R_Hip,0.0451,0.003,0.9856,0.27,-1.58,1.77,-18.14,27.62,-31.79,0.93759,-0.004151,-0.041627,-0.345164,0.0,0.0,0.0,0,0
2026-06-16 15:50:30.717,1043922,R_Hip,0.0451,0.0035,0.9847,0.27,-1.56,1.79,-18.51,28.72,-32.82,0.93759,-0.004151,-0.041627,-0.345164,0.0,0.0,0.0,0,0
2026-06-16 15:50:30.720,1043872,R_Ankle,0.016,-0.0121,1.0014,0.77,-1.72,-0.48,-17.06,30.82,-29.92,0.204443,0.0889,0.020295,0.974609,0.0,0.0,0.0,0,0
2026-06-16 15:50:30.721,1043892,R_Ankle,0.0106,-0.0081,1.0024,0.77,-1.73,-0.48,-16.91,28.44,-29.43,0.204443,0.0889,0.020295,0.974609,0.0,0.0,0.0,0,0
2026-06-16 15:50:30.724,1043912,R_Ankle,0.0155,-0.0111,1.0101,0.76,-1.72,-0.48,-15.87,30.99,-29.75,0.204443,0.0889,0.020295,0.974609,0.0,0.0,0.0,0,0
2026-06-16 15:50:30.724,1044011,L_Shank,-0.0015,-0.0234,0.9734,1.76,-1.19,-0.18,3.8,2.68,-16.54,0.975219,-0.003021,-0.025544,0.219611,0.0,0.0,0.0,0,0
2026-06-16 15:50:30.726,1044031,L_Shank,-0.0045,-0.0219,0.9911,1.76,-1.18,-0.2,0.0,0.0,0.0,0.975219,-0.003021,-0.025544,0.219611,0.0,0.0,0.0,0,0
2026-06-16 15:50:30.727,1043932,R_Ankle,0.0248,-0.0156,1.0,0.75,-1.72,-0.49,-15.36,28.6,-28.64,0.204443,0.0889,0.020325,0.974609,0.0,0.0,0.0,0,0
2026-06-16 15:50:30.729,1044051,L_Shank,0.0047,-0.018,0.9897,1.76,-1.18,-0.19,2.76,1.66,-16.83,0.975219,-0.003021,-0.025513,0.219611,0.0,0.0,0.0,0,0
2026-06-16 15:50:30.730,1043874,R_Shank,0.0414,1.5984,1.0008,-0.09,-1.47,-8.43,-17.11,26.45,-22.28,0.924192,0.035371,-0.020234,0.379711,0.0,0.0,0.0,0,0
2026-06-16 15:50:30.732,1044071,L_Shank,0.0047,-0.02,0.9873,1.75,-1.19,-0.2,3.62,1.48,-16.05,0.975219,-0.003021,-0.025513,0.219611,0.0,0.0,0.0,0,0
2026-06-16 15:50:30.732,1043894,R_Shank,0.0389,-1.4844,1.0071,-0.09,-1.47,-8.42,-16.43,25.45,-21.39,0.924192,0.035371,-0.020203,0.379711,0.0,0.0,0.0,0,0
2026-06-16 15:50:30.734,1043914,R_Shank,0.038,2.3688,1.01,-0.09,-1.45,-8.43,-17.28,25.96,-21.83,0.924192,0.035371,-0.020234,0.379711,0.0,0.0,0.0,0,0
2026-06-16 15:50:30.736,1043934,R_Shank,0.0424,-0.9728,1.0152,-0.09,-1.46,-8.41,0.0,0.0,0.0,0.924192,0.035371,-0.020234,0.379711,0.0,0.0,0.0,0,0
2026-06-16 15:50:30.737,1044024,L_Ankle,0.1393,0.0144,0.9856,5.4,-0.83,-10.3,-38.56,-1.25,-41.24,0.94882,0.042604,-0.073977,0.303995,0.0,0.0,0.0,0,0
2026-06-16 15:50:30.739,1044044,L_Ankle,0.1482,0.0124,0.9909,5.41,-0.84,-10.29,-38.73,-0.71,-40.39,0.94882,0.042604,-0.073946,0.303964,0.0,0.0,0.0,0,0
2026-06-16 15:50:30.741,1044064,L_Ankle,0.1418,0.0266,0.9822,5.41,-0.83,-10.31,-38.72,-1.78,-40.73,0.94882,0.042604,-0.073977,0.303995,0.0,0.0,0.0,0,0
2026-06-16 15:50:30.744,1044084,L_Ankle,0.1442,0.0129,0.9827,5.41,-0.83,-10.31,-38.72,-0.71,-40.05,0.94882,0.042604,-0.073946,0.303995,0.0,0.0,0.0,0,0
2026-06-16 15:50:30.748,1044035,L_Hip,0.121,-0.0681,0.9783,-4.16,4.51,2.97,-13.29,27.6,-23.02,0.970519,-0.042909,-0.062746,-0.228584,0.0,0.0,0.0,0,0
2026-06-16 15:50:30.750,1044055,L_Hip,0.1146,-0.0681,0.9943,-4.16,4.5,2.99,-13.65,26.63,-22.43,0.970519,-0.042879,-0.062746,-0.228584,0.0,0.0,0.0,0,0
2026-06-16 15:50:30.751,1044075,L_Hip,0.1185,-0.071,0.9817,-4.16,4.51,2.98,0.0,0.0,0.0,0.97055,-0.042879,-0.062746,-0.228584,0.0,0.0,0.0,0,0
2026-06-16 15:50:30.753,1044095,L_Hip,0.1205,-0.0769,1.0016,-4.16,4.51,2.97,-13.63,27.28,-23.01,0.97055,-0.042879,-0.062716,-0.228584,0.0,0.0,0.0,0,0
2026-06-16 15:50:30.760,1043912,R_Hip,0.0436,0.0103,0.9861,0.28,-1.58,1.79,-17.05,28.35,-32.82,0.93759,-0.004151,-0.041627,-0.345134,0.0,0.0,0.0,0,0
2026-06-16 15:50:30.762,1043932,R_Hip,0.0451,0.0045,0.9885,0.26,-1.57,1.78,0.0,0.0,0.0,0.93759,-0.004151,-0.041627,-0.345134,0.0,0.0,0.0,0,0
2026-06-16 15:50:30.764,1043952,R_Hip,0.0471,0.0074,1.002,0.28,-1.58,1.78,-17.23,28.17,-31.28,0.93759,-0.004151,-0.041658,-0.345134,0.0,0.0,0.0,0,0
2026-06-16 15:50:30.766,1043972,R_Hip,0.0451,0.0006,0.9962,0.25,-1.57,1.78,0.0,0.0,0.0,0.93759,-0.004151,-0.041658,-0.345134,0.0,0.0,0.0,0,0
2026-06-16 15:50:30.767,1043917,R_Ankle,0.0165,-0.021,0.9976,0.75,-1.73,-0.5,-15.7,28.91,-28.65,0.204443,0.0889,0.020295,0.974609,0.0,0.0,0.0,0,0
2026-06-16 15:50:30.769,1043937,R_Ankle,0.0233,-0.0141,1.0096,0.76,-1.72,-0.49,0.0,0.0,0.0,0.204443,0.088931,0.020264,0.974609,0.0,0.0,0.0,0,0
2026-06-16 15:50:30.771,1043957,R_Ankle,0.0135,-0.0037,1.0038,0.77,-1.72,-0.48,-15.04,28.62,-30.18,0.204443,0.088931,0.020264,0.974609,0.0,0.0,0.0,0,0
2026-06-16 15:50:30.773,1043977,R_Ankle,0.014,-0.026,0.9995,0.74,-1.72,-0.48,0.0,0.0,0.0,0.204443,0.088931,0.020264,0.974609,0.0,0.0,0.0,0,0
2026-06-16 15:50:30.775,1044061,L_Shank,0.0047,-0.0258,0.9844,1.77,-1.16,-0.2,2.24,2.52,-17.3,0.975219,-0.003052,-0.025513,0.219611,0.0,0.0,0.0,0,0
2026-06-16 15:50:30.776,1043919,R_Shank,0.034,0.698,1.0109,-0.09,-1.45,-8.42,-17.11,26.12,-21.68,0.924192,0.035371,-0.020203,0.379711,0.0,0.0,0.0,0,0
2026-06-16 15:50:30.777,1044081,L_Shank,0.0008,-0.0283,0.969,1.76,-1.18,-0.19,0.0,0.0,0.0,0.975219,-0.003052,-0.025513,0.219611,0.0,0.0,0.0,0,0
2026-06-16 15:50:30.779,1043939,R_Shank,0.035,0.0572,1.0157,-0.08,-1.44,-8.41,-17.45,26.46,-22.27,0.924192,0.035371,-0.020173,0.379711,0.0,0.0,0.0,0,0
2026-06-16 15:50:30.780,1044101,L_Shank,0.0111,-0.02,0.9844,1.75,-1.19,-0.2,2.4,1.31,-15.89,0.975219,-0.003052,-0.025513,0.219611,0.0,0.0,0.0,0,0
2026-06-16 15:50:30.781,1043959,R_Shank,0.0478,2.2392,1.0114,-0.09,-1.47,-8.42,0.0,0.0,0.0,0.924192,0.035371,-0.020173,0.379711,0.0,0.0,0.0,0,0
2026-06-16 15:50:30.782,1044121,L_Shank,0.0076,-0.0224,0.9801,1.75,-1.19,-0.19,2.59,1.5,-17.29,0.975219,-0.003021,-0.025513,0.219611,0.0,0.0,0.0,0,0
2026-06-16 15:50:30.784,1043979,R_Shank,0.0424,0.8276,0.9936,-0.09,-1.46,-8.42,-14.91,25.91,-22.76,0.924192,0.035371,-0.020173,0.379711,0.0,0.0,0.0,0,0
2026-06-16 15:50:30.784,1044069,L_Ankle,0.133,0.0105,0.9928,5.41,-0.82,-10.29,-38.7,-2.13,-39.71,0.94882,0.042573,-0.073916,0.303995,0.0,0.0,0.0,0,0
2026-06-16 15:50:30.786,1043937,R_Hip,0.0471,0.0108,0.9885,0.26,-1.57,1.79,-19.05,28.54,-31.97,0.93759,-0.004181,-0.041627,-0.345134,0.0,0.0,0.0,0,0
2026-06-16 15:50:30.787,1044089,L_Ankle,0.1457,0.0183,1.0101,5.42,-0.81,-10.31,0.0,0.0,0.0,0.94882,0.042573,-0.073916,0.303995,0.0,0.0,0.0,0,0
2026-06-16 15:50:30.789,1043957,R_Hip,0.0486,0.0098,0.9953,0.28,-1.57,1.77,-16.68,28.72,-32.13,0.93759,-0.004181,-0.041658,-0.345134,0.0,0.0,0.0,0,0
2026-06-16 15:50:30.789,1044109,L_Ankle,0.1437,0.01,0.9794,5.41,-0.83,-10.3,-39.78,-0.69,-40.41,0.94882,0.042573,-0.073946,0.303995,0.0,0.0,0.0,0,0
2026-06-16 15:50:30.791,1043977,R_Hip,0.0441,0.0064,0.9924,0.27,-1.57,1.77,-17.96,29.63,-32.65,0.93759,-0.004151,-0.041658,-0.345134,0.0,0.0,0.0,0,0
2026-06-16 15:50:30.792,1044129,L_Ankle,0.1472,0.0153,0.9789,5.41,-0.82,-10.3,-38.7,-2.48,-40.05,0.94882,0.042573,-0.073916,0.303995,0.0,0.0,0.0,0,0
2026-06-16 15:50:30.793,1043997,R_Hip,0.0481,0.0006,0.9948,0.26,-1.58,1.77,0.0,0.0,0.0,0.93759,-0.004151,-0.041658,-0.345164,0.0,0.0,0.0,0,0
2026-06-16 15:50:30.814,1044102,L_Hip,0.1171,-0.0681,0.9837,-4.16,4.51,2.97,-15.3,28.53,-22.41,0.97055,-0.042879,-0.062716,-0.228553,0.0,0.0,0.0,0,0
2026-06-16 15:50:30.817,1044122,L_Hip,0.1225,-0.0705,0.9885,-4.16,4.51,2.96,-13.3,27.6,-22.14,0.97055,-0.042909,-0.062716,-0.228553,0.0,0.0,0.0,0,0
2026-06-16 15:50:30.818,1044142,L_Hip,0.1215,-0.0705,0.9822,-4.16,4.51,2.97,0.0,0.0,0.0,0.97055,-0.042909,-0.062685,-0.228553,0.0,0.0,0.0,0,0
2026-06-16 15:50:30.820,1044162,L_Hip,0.1274,-0.072,0.9929,-4.16,4.51,2.96,-13.81,26.79,-22.86,0.97055,-0.042879,-0.062685,-0.228553,0.0,0.0,0.0,0,0
2026-06-16 15:50:30.824,1044111,L_Shank,0.0052,-0.016,0.9911,1.74,-1.18,-0.21,3.29,1.17,-17.91,0.975219,-0.003021,-0.025513,0.219611,0.0,0.0,0.0,0,0
2026-06-16 15:50:30.825,1044131,L_Shank,-0.004,-0.0278,0.9906,1.76,-1.18,-0.2,0.0,0.0,0.0,0.975219,-0.003021,-0.025483,0.219611,0.0,0.0,0.0,0,0
2026-06-16 15:50:30.827,1044151,L_Shank,0.0028,-0.0209,0.9786,1.77,-1.17,-0.2,3.27,2.16,-16.06,0.975219,-0.003021,-0.025513,0.219611,0.0,0.0,0.0,0,0
2026-06-16 15:50:30.829,1044171,L_Shank,0.0013,-0.0204,1.0036,1.75,-1.18,-0.19,3.28,2.17,-16.99,0.975219,-0.003021,-0.025513,0.219611,0.0,0.0,0.0,0,0
2026-06-16 15:50:30.831,1044114,L_Ankle,0.1413,0.0227,0.9827,5.41,-0.82,-10.3,-39.91,-1.93,-39.22,0.94882,0.042573,-0.073946,0.304025,0.0,0.0,0.0,0,0
2026-06-16 15:50:30.833,1044134,L_Ankle,0.1447,0.0222,0.9837,5.42,-0.83,-10.29,0.0,0.0,0.0,0.94882,0.042573,-0.073946,0.303995,0.0,0.0,0.0,0,0
2026-06-16 15:50:30.834,1043985,R_Ankle,0.0145,-0.0042,1.0019,0.76,-1.72,-0.48,-14.67,29.88,-28.96,0.204413,0.0889,0.020264,0.974609,0.0,0.0,0.0,0,0
2026-06-16 15:50:30.835,1044154,L_Ankle,0.1384,0.0188,0.988,5.41,-0.83,-10.3,-38.71,-2.13,-40.73,0.94882,0.042543,-0.073916,0.304025,0.0,0.0,0.0,0,0
2026-06-16 15:50:30.836,1044005,R_Ankle,0.0106,-0.0116,1.0139,0.75,-1.72,-0.48,-16.39,28.91,-29.27,0.204413,0.088931,0.020264,0.974609,0.0,0.0,0.0,0,0
2026-06-16 15:50:30.838,1044174,L_Ankle,0.1403,0.0134,0.9846,5.41,-0.83,-10.29,-37.99,-2.14,-39.36,0.94882,0.042543,-0.073916,0.304025,0.0,0.0,0.0,0,0
2026-06-16 15:50:30.839,1044025,R_Ankle,0.0204,-0.0081,1.0172,0.77,-1.73,-0.51,-15.56,28.46,-30.65,0.204443,0.088931,0.020264,0.974609,0.0,0.0,0.0,0,0
2026-06-16 15:50:30.841,1044124,L_Hip,0.1274,-0.07,0.9808,-4.17,4.5,2.96,-15.0,27.57,-21.54,0.97055,-0.042909,-0.062685,-0.228553,0.0,0.0,0.0,0,0
2026-06-16 15:50:30.842,1044045,R_Ankle,0.014,-0.0111,1.0067,0.77,-1.74,-0.5,0.0,0.0,0.0,0.204443,0.0889,0.020264,0.974609,0.0,0.0,0.0,0,0
2026-06-16 15:50:30.843,1044144,L_Hip,0.1269,-0.0759,0.9958,-4.16,4.51,2.96,-14.26,29.52,-23.01,0.97055,-0.042909,-0.062716,-0.228553,0.0,0.0,0.0,0,0
2026-06-16 15:50:30.845,1044164,L_Hip,0.122,-0.0671,0.9725,-4.17,4.5,2.98,-14.64,27.9,-22.41,0.97055,-0.042909,-0.062746,-0.228553,0.0,0.0,0.0,0,0
2026-06-16 15:50:30.847,1044184,L_Hip,0.1205,-0.0744,0.9885,-4.16,4.51,2.97,0.0,0.0,0.0,0.97055,-0.042909,-0.062777,-0.228553,0.0,0.0,0.0,0,0
2026-06-16 15:50:30.849,1044136,L_Shank,0.0125,-0.02,0.9911,1.76,-1.18,-0.2,2.24,2.17,-16.98,0.975219,-0.003052,-0.025513,0.219611,0.0,0.0,0.0,0,0
2026-06-16 15:50:30.850,1044156,L_Shank,0.0028,-0.0302,0.9815,1.76,-1.19,-0.19,0.0,0.0,0.0,0.975219,-0.003052,-0.025513,0.219611,0.0,0.0,0.0,0,0
2026-06-16 15:50:30.852,1044176,L_Shank,0.0018,-0.0219,0.9791,1.74,-1.18,-0.2,3.12,3.37,-17.79,0.975219,-0.003052,-0.025544,0.219611,0.0,0.0,0.0,0,0
2026-06-16 15:50:30.854,1044137,L_Shank,0.0008,-0.016,0.9767,1.75,-1.19,-0.19,2.75,1.98,-15.59,0.975219,-0.003052,-0.025544,0.219611,0.0,0.0,0.0,0,0
2026-06-16 15:50:30.856,1044007,R_Ankle,0.0155,-0.0161,0.9995,0.77,-1.73,-0.49,-16.03,30.18,-28.98,0.204443,0.0889,0.020264,0.974609,0.0,0.0,0.0,0,0
2026-06-16 15:50:30.859,1044146,L_Hip,0.1176,-0.0759,0.9929,-4.15,4.5,2.97,-14.16,27.42,-21.69,0.97055,-0.04294,-0.062777,-0.228553,0.0,0.0,0.0,0,0
2026-06-16 15:50:30.860,1044027,R_Ankle,0.0135,-0.0116,1.0034,0.76,-1.72,-0.48,-16.2,30.66,-29.14,0.204413,0.088931,0.020234,0.974609,0.0,0.0,0.0,0,0
2026-06-16 15:50:30.861,1044166,L_Hip,0.119,-0.0725,0.9904,-4.15,4.51,2.97,-14.83,27.09,-22.26,0.97055,-0.04294,-0.062777,-0.228553,0.0,0.0,0.0,0,0
2026-06-16 15:50:30.863,1044047,R_Ankle,0.015,-0.0101,1.0081,0.76,-1.73,-0.49,-17.41,30.51,-30.54,0.204413,0.088931,0.020234,0.974609,0.0,0.0,0.0,0,0
2026-06-16 15:50:30.864,1044186,L_Hip,0.1225,-0.07,0.9866,-4.16,4.51,2.96,0.0,0.0,0.0,0.97055,-0.04294,-0.062746,-0.228553,0.0,0.0,0.0,0,0
2026-06-16 15:50:30.866,1044067,R_Ankle,0.0145,-0.0106,1.0062,0.75,-1.72,-0.49,-15.71,28.93,-29.88,0.204413,0.088931,0.020234,0.974609,0.0,0.0,0.0,0,0
2026-06-16 15:50:30.866,1044147,L_Hip,0.1156,-0.0695,0.9774,-4.16,4.51,2.97,-15.02,26.28,-22.11,0.97055,-0.04294,-0.062746,-0.228553,0.0,0.0,0.0,0,0
2026-06-16 15:50:30.868,1044010,R_Shank,0.033,0.698,0.9941,-0.09,-1.48,-8.41,-16.8,26.46,-19.87,0.924192,0.035371,-0.020203,0.379711,0.0,0.0,0.0,0,0
2026-06-16 15:50:30.871,1044030,R_Shank,0.0389,1.5984,0.9917,-0.09,-1.46,-8.41,-15.26,25.92,-21.55,0.924192,0.035371,-0.020203,0.379711,0.0,0.0,0.0,0,0
2026-06-16 15:50:30.872,1044159,L_Ankle,0.1384,0.0109,0.9746,5.41,-0.82,-10.31,-38.02,-1.43,-40.38,0.94882,0.042573,-0.073916,0.303995,0.0,0.0,0.0,0,0
2026-06-16 15:50:30.874,1044050,R_Shank,0.0394,0.5684,1.01,-0.09,-1.45,-8.41,0.0,0.0,0.0,0.924192,0.035371,-0.020173,0.379742,0.0,0.0,0.0,0,0
2026-06-16 15:50:30.875,1044179,L_Ankle,0.1433,0.0109,0.9923,5.42,-0.83,-10.31,0.0,0.0,0.0,0.94882,0.042573,-0.073916,0.303995,0.0,0.0,0.0,0,0
2026-06-16 15:50:30.877,1044070,R_Shank,0.035,2.4984,1.0229,-0.09,-1.45,-8.41,-16.43,25.78,-21.69,0.924192,0.035371,-0.020173,0.379742,0.0,0.0,0.0,0,0
2026-06-16 15:50:30.877,1044199,L_Ankle,0.1452,0.0139,0.9842,5.41,-0.83,-10.3,-39.26,-1.59,-41.25,0.94882,0.042573,-0.073916,0.303995,0.0,0.0,0.0,0,0
2026-06-16 15:50:30.880,1044219,L_Ankle,0.1472,0.0178,0.9899,5.41,-0.84,-10.29,-39.62,-0.17,-40.57,0.94882,0.042573,-0.073946,0.303995,0.0,0.0,0.0,0,0
2026-06-16 15:50:30.880,1044011,R_Shank,0.0419,2.2392,1.0013,-0.09,-1.48,-8.42,-16.46,26.45,-20.78,0.924192,0.035371,-0.020173,0.379742,0.0,0.0,0.0,0,0
2026-06-16 15:50:30.882,1044169,L_Hip,0.121,-0.0789,0.9895,-4.16,4.51,2.97,-14.49,26.45,-22.85,0.97055,-0.04294,-0.062746,-0.228553,0.0,0.0,0.0,0,0
2026-06-16 15:50:30.882,1044031,R_Shank,0.0409,-1.7432,1.0056,-0.09,-1.46,-8.41,-16.59,25.28,-22.14,0.924192,0.035371,-0.020173,0.379742,0.0,0.0,0.0,0,0
2026-06-16 15:50:30.885,1044051,R_Shank,0.0443,-2.514,1.0148,-0.09,-1.45,-8.41,0.0,0.0,0.0,0.924192,0.035371,-0.020173,0.379742,0.0,0.0,0.0,0,0
2026-06-16 15:50:30.885,1044189,L_Hip,0.1215,-0.0749,0.9861,-4.15,4.52,2.96,-12.81,26.8,-22.29,0.97055,-0.042909,-0.062746,-0.228553,0.0,0.0,0.0,0,0
2026-06-16 15:50:30.887,1044071,R_Shank,0.0478,-3.1552,1.0258,-0.09,-1.47,-8.41,-16.28,26.93,-22.43,0.924192,0.035371,-0.020203,0.379742,0.0,0.0,0.0,0,0
2026-06-16 15:50:30.888,1044209,L_Hip,0.1229,-0.0705,0.9803,-4.15,4.5,2.97,-13.46,27.12,-23.16,0.97055,-0.042909,-0.062716,-0.228553,0.0,0.0,0.0,0,0
2026-06-16 15:50:30.890,1044229,L_Hip,0.1141,-0.0744,0.9866,-4.16,4.51,2.99,0.0,0.0,0.0,0.97055,-0.04294,-0.062716,-0.228553,0.0,0.0,0.0,0,0
2026-06-16 15:50:30.890,1044029,R_Ankle,0.015,-0.0151,1.0014,0.76,-1.71,-0.5,-15.36,29.56,-29.27,0.204413,0.088931,0.020264,0.974609,0.0,0.0,0.0,0,0
2026-06-16 15:50:30.892,1044049,R_Ankle,0.0121,-0.0126,1.0153,0.76,-1.72,-0.5,-15.69,29.86,-28.35,0.204413,0.088931,0.020264,0.974609,0.0,0.0,0.0,0,0
2026-06-16 15:50:30.895,1044181,L_Ankle,0.1403,0.008,0.977,5.41,-0.82,-10.31,-38.71,-2.49,-41.07,0.94882,0.042573,-0.073946,0.303995,0.0,0.0,0.0,0,0
2026-06-16 15:50:30.895,1044069,R_Ankle,0.0179,-0.0126,1.0067,0.75,-1.73,-0.49,-15.35,30.5,-28.67,0.204413,0.088931,0.020234,0.974609,0.0,0.0,0.0,0,0
2026-06-16 15:50:30.897,1044201,L_Ankle,0.1413,0.0139,0.9875,5.41,-0.82,-10.31,0.0,0.0,0.0,0.94882,0.042573,-0.073916,0.303995,0.0,0.0,0.0,0,0
2026-06-16 15:50:30.898,1044089,R_Ankle,0.0204,-0.0161,1.0024,0.76,-1.72,-0.49,-15.19,29.4,-29.11,0.204413,0.088961,0.020234,0.974609,0.0,0.0,0.0,0,0
2026-06-16 15:50:30.900,1044032,R_Shank,0.0443,-0.3316,1.0253,-0.09,-1.47,-8.42,-16.27,26.27,-22.14,0.924162,0.035371,-0.020203,0.379742,0.0,0.0,0.0,0,0
2026-06-16 15:50:30.900,1044221,L_Ankle,0.1428,0.0144,0.9981,5.4,-0.83,-10.31,-40.43,-2.45,-39.4,0.94882,0.042543,-0.073916,0.303995,0.0,0.0,0.0,0,0
2026-06-16 15:50:30.902,1044052,R_Shank,0.0419,-0.0724,1.0023,-0.09,-1.46,-8.41,-16.28,26.28,-21.23,0.924192,0.035371,-0.020203,0.379742,0.0,0.0,0.0,0,0
2026-06-16 15:50:30.903,1044241,L_Ankle,0.1398,0.0197,0.9837,5.41,-0.83,-10.31,-39.75,-2.47,-40.41,0.94882,0.042573,-0.073916,0.304025,0.0,0.0,0.0,0,0
2026-06-16 15:50:30.905,1044072,R_Shank,0.0488,-2.514,1.022,-0.09,-1.47,-8.43,0.0,0.0,0.0,0.924162,0.035401,-0.020203,0.379742,0.0,0.0,0.0,0,0
2026-06-16 15:50:30.906,1044186,L_Shank,-0.003,-0.0185,0.983,1.75,-1.2,-0.2,3.46,2.01,-17.46,0.975219,-0.003052,-0.025544,0.219611,0.0,0.0,0.0,0,0
2026-06-16 15:50:30.907,1044092,R_Shank,0.0384,-2.514,0.9917,-0.08,-1.47,-8.41,-16.11,26.11,-21.39,0.924162,0.035401,-0.020234,0.379742,0.0,0.0,0.0,0,0
2026-06-16 15:50:30.908,1044206,L_Shank,-0.0015,-0.018,0.9916,1.75,-1.2,-0.19,0.0,0.0,0.0,0.975219,-0.003052,-0.025513,0.219611,0.0,0.0,0.0,0,0
2026-06-16 15:50:30.910,1044037,R_Hip,0.0436,0.0142,0.9856,0.27,-1.57,1.76,-18.14,28.35,-32.48,0.93759,-0.004181,-0.041658,-0.345164,0.0,0.0,0.0,0,0
2026-06-16 15:50:30.910,1044226,L_Shank,-0.0054,-0.0219,0.9911,1.76,-1.18,-0.19,3.1,1.65,-15.9,0.975219,-0.003052,-0.025513,0.219611,0.0,0.0,0.0,0,0
2026-06-16 15:50:30.912,1044246,L_Shank,-0.0098,-0.0248,0.9988,1.76,-1.18,-0.2,3.79,1.64,-15.28,0.975219,-0.003052,-0.025513,0.219611,0.0,0.0,0.0,0,0
2026-06-16 15:50:30.912,1044057,R_Hip,0.0451,0.0045,0.9905,0.26,-1.58,1.79,-17.78,29.09,-32.82,0.93759,-0.004151,-0.041658,-0.345164,0.0,0.0,0.0,0,0
2026-06-16 15:50:30.915,1044191,L_Hip,0.12,-0.073,0.9851,-4.16,4.51,2.96,-13.14,27.12,-22.29,0.97055,-0.04294,-0.062716,-0.228553,0.0,0.0,0.0,0,0
2026-06-16 15:50:30.915,1044077,R_Hip,0.0456,0.0113,0.9823,0.28,-1.58,1.79,-16.5,29.27,-32.65,0.93759,-0.004151,-0.041658,-0.345164,0.0,0.0,0.0,0,0
2026-06-16 15:50:30.918,1044097,R_Hip,0.0466,0.0045,0.9837,0.26,-1.57,1.79,0.0,0.0,0.0,0.93759,-0.004151,-0.041688,-0.345164,0.0,0.0,0.0,0,0
2026-06-16 15:50:30.918,1044211,L_Hip,0.1229,-0.0671,0.987,-4.16,4.5,2.96,-14.49,27.1,-22.27,0.97055,-0.04294,-0.062716,-0.228553,0.0,0.0,0.0,0,0
2026-06-16 15:50:30.921,1044231,L_Hip,0.1225,-0.0739,0.9861,-4.16,4.51,2.97,-15.16,26.76,-22.84,0.97055,-0.04294,-0.062685,-0.228553,0.0,0.0,0.0,0,0
2026-06-16 15:50:30.923,1044074,R_Ankle,0.0224,-0.0116,0.9971,0.76,-1.71,-0.49,-16.39,29.56,-29.9,0.204413,0.088931,0.020234,0.974609,0.0,0.0,0.0,0,0
2026-06-16 15:50:30.923,1044251,L_Hip,0.1225,-0.0671,0.9929,-4.18,4.51,2.99,-14.12,28.07,-22.86,0.97055,-0.04294,-0.062716,-0.228553,0.0,0.0,0.0,0,0
2026-06-16 15:50:30.926,1044094,R_Ankle,0.0101,-0.0126,1.0014,0.76,-1.72,-0.48,0.0,0.0,0.0,0.204413,0.088961,0.020234,0.974609,0.0,0.0,0.0,0,0
2026-06-16 15:50:30.926,1044211,L_Shank,0.0057,-0.0229,0.9791,1.76,-1.19,-0.19,2.05,1.99,-16.2,0.975219,-0.003052,-0.025513,0.219611,0.0,0.0,0.0,0,0
2026-06-16 15:50:30.928,1044231,L_Shank,-0.001,-0.02,0.9815,1.76,-1.2,-0.21,2.58,2.51,-16.99,0.975219,-0.003052,-0.025483,0.219611,0.0,0.0,0.0,0,0
2026-06-16 15:50:30.928,1044114,R_Ankle,0.0028,-0.0057,1.0024,0.75,-1.71,-0.49,-15.18,30.03,-28.81,0.204413,0.088931,0.020264,0.974609,0.0,0.0,0.0,0,0
2026-06-16 15:50:30.930,1044251,L_Shank,-0.0006,-0.0141,0.9791,1.75,-1.19,-0.19,0.0,0.0,0.0,0.975219,-0.003082,-0.025483,0.219611,0.0,0.0,0.0,0,0
2026-06-16 15:50:30.931,1044134,R_Ankle,0.015,-0.0156,0.9952,0.77,-1.73,-0.48,-15.2,28.45,-29.1,0.204413,0.088931,0.020234,0.974609,0.0,0.0,0.0,0,0
2026-06-16 15:50:30.932,1044271,L_Shank,0.0028,-0.016,0.9954,1.75,-1.19,-0.19,4.5,0.98,-16.83,0.975219,-0.003082,-0.025513,0.219611,0.0,0.0,0.0,0,0
2026-06-16 15:50:30.935,1044087,R_Hip,0.0382,0.0098,0.9938,0.26,-1.57,1.77,-16.14,28.54,-32.64,0.93759,-0.004151,-0.041688,-0.345164,0.0,0.0,0.0,0,0
2026-06-16 15:50:30.937,1044107,R_Hip,0.0436,-0.0003,0.9962,0.27,-1.56,1.78,-18.87,27.99,-31.79,0.93759,-0.004151,-0.041658,-0.345164,0.0,0.0,0.0,0,0
2026-06-16 15:50:30.939,1044226,L_Ankle,0.1457,0.0134,0.9808,5.41,-0.83,-10.3,-39.92,-2.28,-39.91,0.94882,0.042543,-0.073916,0.304025,0.0,0.0,0.0,0,0
2026-06-16 15:50:30.939,1044127,R_Hip,0.0466,0.0049,0.9842,0.26,-1.58,1.77,-16.68,29.08,-32.13,0.93759,-0.004181,-0.041627,-0.345164,0.0,0.0,0.0,0,0
2026-06-16 15:50:30.941,1044147,R_Hip,0.0422,0.0045,0.99,0.26,-1.57,1.77,0.0,0.0,0.0,0.93759,-0.004181,-0.041627,-0.345164,0.0,0.0,0.0,0,0
2026-06-16 15:50:30.942,1044246,L_Ankle,0.155,0.0197,0.9952,5.41,-0.83,-10.31,0.0,0.0,0.0,0.94882,0.042573,-0.073916,0.304025,0.0,0.0,0.0,0,0
2026-06-16 15:50:30.944,1044266,L_Ankle,0.1403,0.0153,0.9928,5.43,-0.83,-10.3,-39.21,-1.94,-39.21,0.94882,0.042543,-0.073916,0.304025,0.0,0.0,0.0,0,0
2026-06-16 15:50:30.946,1044286,L_Ankle,0.1467,0.0119,0.9899,5.41,-0.83,-10.29,-38.19,-2.32,-40.89,0.94882,0.042573,-0.073916,0.304025,0.0,0.0,0.0,0,0
2026-06-16 15:50:30.960,1044112,R_Hip,0.0407,0.003,0.9996,0.28,-1.57,1.78,-19.05,29.63,-33.0,0.93759,-0.004151,-0.041627,-0.345164,0.0,0.0,0.0,0,0
2026-06-16 15:50:30.962,1044132,R_Hip,0.0372,0.003,0.9861,0.27,-1.57,1.77,-17.78,28.72,-32.48,0.93759,-0.004151,-0.041658,-0.345164,0.0,0.0,0.0,0,0
2026-06-16 15:50:30.963,1044152,R_Hip,0.0441,-0.0042,0.99,0.27,-1.57,1.78,-17.96,30.36,-32.65,0.93759,-0.004151,-0.041627,-0.345164,0.0,0.0,0.0,0,0
2026-06-16 15:50:30.965,1044172,R_Hip,0.0461,0.0128,0.9755,0.26,-1.57,1.78,0.0,0.0,0.0,0.93759,-0.004181,-0.041597,-0.345164,0.0,0.0,0.0,0,0
2026-06-16 15:50:30.967,1044119,R_Ankle,0.0189,-0.019,1.0115,0.76,-1.72,-0.51,-17.05,30.49,-28.99,0.204413,0.088931,0.020264,0.974609,0.0,0.0,0.0,0,0
2026-06-16 15:50:30.968,1044139,R_Ankle,0.014,-0.0096,0.9971,0.75,-1.73,-0.5,0.0,0.0,0.0,0.204413,0.088931,0.020234,0.974609,0.0,0.0,0.0,0,0
2026-06-16 15:50:30.970,1044159,R_Ankle,0.0175,-0.0042,0.9986,0.76,-1.71,-0.5,-16.21,29.71,-29.44,0.204413,0.088931,0.020234,0.974609,0.0,0.0,0.0,0,0
2026-06-16 15:50:30.973,1044179,R_Ankle,0.0155,-0.0141,1.0153,0.77,-1.73,-0.48,-16.55,30.02,-29.13,0.204413,0.088931,0.020234,0.974609,0.0,0.0,0.0,0,0
2026-06-16 15:50:30.974,1044259,L_Hip,0.1215,-0.0671,0.9846,-4.16,4.51,2.97,-14.82,27.41,-22.56,0.97055,-0.04297,-0.062716,-0.228553,0.0,0.0,0.0,0,0
2026-06-16 15:50:30.976,1044122,R_Shank,0.036,-2.3844,1.0225,-0.1,-1.48,-8.41,-16.24,24.29,-21.55,0.924162,0.035371,-0.020203,0.379742,0.0,0.0,0.0,0,0
2026-06-16 15:50:30.977,1044279,L_Hip,0.119,-0.0666,0.9817,-4.14,4.51,2.96,0.0,0.0,0.0,0.97055,-0.04294,-0.062746,-0.228553,0.0,0.0,0.0,0,0
2026-06-16 15:50:30.979,1044142,R_Shank,0.0458,-0.7136,1.021,-0.09,-1.45,-8.41,-17.29,25.64,-20.62,0.924162,0.03534,-0.020203,0.379742,0.0,0.0,0.0,0,0
2026-06-16 15:50:30.980,1044299,L_Hip,0.12,-0.0715,0.989,-4.16,4.51,2.96,-14.33,26.3,-23.0,0.97055,-0.04294,-0.062716,-0.228553,0.0,0.0,0.0,0,0
2026-06-16 15:50:30.982,1044162,R_Shank,0.0434,1.728,1.0114,-0.09,-1.46,-8.42,0.0,0.0,0.0,0.924162,0.03534,-0.020203,0.379742,0.0,0.0,0.0,0,0
2026-06-16 15:50:30.983,1044319,L_Hip,0.1229,-0.0671,0.9788,-4.16,4.51,2.96,-13.13,27.45,-22.58,0.97055,-0.04294,-0.062716,-0.228553,0.0,0.0,0.0,0,0
2026-06-16 15:50:30.986,1044182,R_Shank,0.0414,0.8276,1.0191,-0.09,-1.47,-8.41,-16.25,24.95,-21.84,0.924162,0.03534,-0.020234,0.379742,0.0,0.0,0.0,0,0
2026-06-16 15:50:30.986,1044271,L_Ankle,0.1403,0.0149,0.9923,5.41,-0.83,-10.31,-38.38,-1.43,-41.06,0.94882,0.042573,-0.073885,0.304025,0.0,0.0,0.0,0,0
2026-06-16 15:50:30.989,1044137,R_Hip,0.0471,0.0074,0.9847,0.27,-1.57,1.78,-16.86,28.53,-31.62,0.93759,-0.004181,-0.041627,-0.345164,0.0,0.0,0.0,0,0
2026-06-16 15:50:30.990,1044291,L_Ankle,0.1398,0.0168,0.9765,5.41,-0.83,-10.32,-39.75,-1.4,-39.39,0.94882,0.042573,-0.073916,0.304025,0.0,0.0,0.0,0,0
2026-06-16 15:50:30.992,1044157,R_Hip,0.052,0.0108,0.99,0.28,-1.58,1.79,-17.41,29.45,-31.45,0.93759,-0.004151,-0.041597,-0.345164,0.0,0.0,0.0,0,0
2026-06-16 15:50:30.995,1044272,L_Ankle,0.1315,0.0178,0.9966,5.41,-0.83,-10.31,0.0,0.0,0.0,0.94882,0.042573,-0.073916,0.304025,0.0,0.0,0.0,0,0
2026-06-16 15:50:30.996,1044177,R_Hip,0.052,0.0113,0.9905,0.26,-1.58,1.78,-17.59,27.81,-32.65,0.93759,-0.004151,-0.041627,-0.345164,0.0,0.0,0.0,0,0
2026-06-16 15:50:30.998,1044292,L_Ankle,0.1467,0.0114,0.9904,5.41,-0.83,-10.31,-38.54,-0.89,-39.54,0.94882,0.042573,-0.073916,0.304025,0.0,0.0,0.0,0,0
2026-06-16 15:50:30.999,1044197,R_Hip,0.0441,0.001,0.9832,0.27,-1.57,1.77,0.0,0.0,0.0,0.93759,-0.004151,-0.041658,-0.345164,0.0,0.0,0.0,0,0
2026-06-16 15:50:31.002,1044281,L_Hip,0.122,-0.0685,0.9803,-4.16,4.51,2.96,-14.81,27.74,-22.56,0.97055,-0.04294,-0.062716,-0.228553,0.0,0.0,0.0,0,0
2026-06-16 15:50:31.002,1044142,R_Ankle,0.017,-0.0052,1.0091,0.75,-1.71,-0.5,-16.04,30.19,-29.59,0.204413,0.088931,0.020234,0.974609,0.0,0.0,0.0,0,0
2026-06-16 15:50:31.005,1044301,L_Hip,0.119,-0.0685,0.9832,-4.15,4.51,2.96,0.0,0.0,0.0,0.97055,-0.04294,-0.062746,-0.228553,0.0,0.0,0.0,0,0
2026-06-16 15:50:31.005,1044162,R_Ankle,0.016,-0.0136,0.999,0.75,-1.73,-0.48,0.0,0.0,0.0,0.204413,0.0889,0.020234,0.974609,0.0,0.0,0.0,0,0
2026-06-16 15:50:31.008,1044321,L_Hip,0.1156,-0.0735,0.99,-4.16,4.51,2.96,-15.34,26.92,-22.11,0.97055,-0.042909,-0.062746,-0.228553,0.0,0.0,0.0,0,0
2026-06-16 15:50:31.008,1044182,R_Ankle,0.0111,-0.0116,1.0096,0.77,-1.73,-0.5,-16.21,30.35,-29.75,0.204413,0.0889,0.020234,0.974609,0.0,0.0,0.0,0,0
2026-06-16 15:50:31.010,1044341,L_Hip,0.1195,-0.0735,0.9808,-4.16,4.51,2.96,-12.98,27.28,-21.86,0.97055,-0.042909,-0.062746,-0.228584,0.0,0.0,0.0,0,0
2026-06-16 15:50:31.011,1044202,R_Ankle,0.0111,-0.0111,1.0038,0.77,-1.72,-0.48,-15.69,29.54,-28.04,0.204413,0.0889,0.020234,0.974609,0.0,0.0,0.0,0,0
2026-06-16 15:50:31.012,1044286,L_Shank,-0.0015,-0.0165,0.9844,1.75,-1.17,-0.2,3.1,1.65,-16.21,0.975219,-0.003082,-0.025544,0.219611,0.0,0.0,0.0,0,0
2026-06-16 15:50:31.013,1044144,R_Shank,0.0419,-3.1552,1.0095,-0.09,-1.47,-8.42,-16.42,25.77,-22.89,0.924162,0.03534,-0.020264,0.379742,0.0,0.0,0.0,0,0
2026-06-16 15:50:31.015,1044164,R_Shank,0.038,1.4688,1.0052,-0.09,-1.47,-8.43,0.0,0.0,0.0,0.924162,0.03531,-0.020264,0.379742,0.0,0.0,0.0,0,0
2026-06-16 15:50:31.016,1044306,L_Shank,-0.0064,-0.0268,0.9844,1.75,-1.18,-0.19,2.24,1.84,-17.29,0.975219,-0.003082,-0.025544,0.219611,0.0,0.0,0.0,0,0
2026-06-16 15:50:31.018,1044326,L_Shank,0.0023,-0.016,0.9873,1.76,-1.19,-0.21,0.0,0.0,0.0,0.975219,-0.003082,-0.025544,0.219611,0.0,0.0,0.0,0,0
2026-06-16 15:50:31.021,1044184,R_Shank,0.0429,2.2392,1.0143,-0.09,-1.46,-8.43,-16.95,25.3,-20.33,0.924162,0.03534,-0.020264,0.379742,0.0,0.0,0.0,0,0
2026-06-16 15:50:31.022,1044346,L_Shank,-0.0064,-0.0204,0.9868,1.75,-1.18,-0.21,1.7,2.33,-15.89,0.975219,-0.003082,-0.025544,0.219611,0.0,0.0,0.0,0,0
2026-06-16 15:50:31.023,1044204,R_Shank,0.0399,-0.0724,1.0066,-0.08,-1.47,-8.43,-15.59,25.27,-20.94,0.924192,0.03534,-0.020264,0.379742,0.0,0.0,0.0,0,0
2026-06-16 15:50:31.025,1044311,L_Shank,0.0013,-0.0126,0.9863,1.75,-1.19,-0.19,4.15,2.33,-16.23,0.975219,-0.003082,-0.025544,0.219611,0.0,0.0,0.0,0,0
2026-06-16 15:50:31.027,1044162,R_Hip,0.0505,0.0113,0.9909,0.28,-1.58,1.78,-17.95,29.26,-30.26,0.93759,-0.004151,-0.041627,-0.345164,0.0,0.0,0.0,0,0
2026-06-16 15:50:31.027,1044312,L_Shank,-0.0025,-0.0092,0.9758,1.74,-1.19,-0.19,4.14,1.65,-15.91,0.975219,-0.003082,-0.025544,0.219611,0.0,0.0,0.0,0,0
2026-06-16 15:50:31.029,1044182,R_Hip,0.0431,0.0123,0.9818,0.27,-1.58,1.78,-17.78,29.08,-32.48,0.93759,-0.004151,-0.041627,-0.345164,0.0,0.0,0.0,0,0
2026-06-16 15:50:31.030,1044332,L_Shank,0.0047,-0.0156,0.9705,1.76,-1.18,-0.2,0.0,0.0,0.0,0.975219,-0.003082,-0.025575,0.219611,0.0,0.0,0.0,0,0
2026-06-16 15:50:31.031,1044202,R_Hip,0.0417,-0.0013,0.9832,0.26,-1.59,1.77,-17.59,28.17,-31.96,0.93759,-0.00412,-0.041658,-0.345164,0.0,0.0,0.0,0,0
2026-06-16 15:50:31.032,1044352,L_Shank,-0.0015,-0.0185,0.9993,1.77,-1.18,-0.19,2.77,1.34,-17.76,0.975219,-0.003113,-0.025575,0.219611,0.0,0.0,0.0,0,0
2026-06-16 15:50:31.033,1044222,R_Hip,0.0505,0.0069,0.9876,0.25,-1.58,1.77,0.0,0.0,0.0,0.93759,-0.00412,-0.041627,-0.345164,0.0,0.0,0.0,0,0
2026-06-16 15:50:31.037,1044316,L_Ankle,0.1452,0.0149,0.9813,5.4,-0.83,-10.31,-39.94,-1.58,-40.58,0.94882,0.042604,-0.073916,0.304025,0.0,0.0,0.0,0,0
2026-06-16 15:50:31.037,1044167,R_Shank,0.0301,-1.7432,1.0133,-0.1,-1.47,-8.41,-17.44,26.45,-23.48,0.924192,0.03534,-0.020264,0.379742,0.0,0.0,0.0,0,0
2026-06-16 15:50:31.039,1044187,R_Shank,0.0409,-1.7432,1.009,-0.1,-1.48,-8.41,0.0,0.0,0.0,0.924192,0.03534,-0.020264,0.379742,0.0,0.0,0.0,0,0
2026-06-16 15:50:31.039,1044336,L_Ankle,0.1393,0.0036,0.9789,5.4,-0.83,-10.29,-40.3,-1.22,-40.59,0.94882,0.042634,-0.073916,0.304025,0.0,0.0,0.0,0,0
2026-06-16 15:50:31.042,1044356,L_Ankle,0.1369,0.0173,0.9741,5.41,-0.82,-10.29,0.0,0.0,0.0,0.94882,0.042634,-0.073916,0.304025,0.0,0.0,0.0,0,0
2026-06-16 15:50:31.042,1044207,R_Shank,0.0429,3.01,1.0052,-0.09,-1.46,-8.42,-15.41,25.76,-22.3,0.924162,0.03534,-0.020295,0.379742,0.0,0.0,0.0,0,0
2026-06-16 15:50:31.044,1044376,L_Ankle,0.1393,0.0144,0.9909,5.42,-0.83,-10.29,-40.63,-2.27,-40.26,0.94882,0.042604,-0.073916,0.304025,0.0,0.0,0.0,0,0
2026-06-16 15:50:31.044,1044227,R_Shank,0.0438,1.3392,1.009,-0.09,-1.46,-8.42,-15.77,26.75,-22.29,0.924162,0.035371,-0.020295,0.379742,0.0,0.0,0.0,0,0
2026-06-16 15:50:31.046,1044326,L_Hip,0.1156,-0.0631,0.9769,-4.16,4.51,2.97,-14.29,28.23,-22.71,0.97055,-0.042909,-0.062716,-0.228584,0.0,0.0,0.0,0,0
2026-06-16 15:50:31.048,1044346,L_Hip,0.1259,-0.072,0.9962,-4.16,4.52,2.97,0.0,0.0,0.0,0.97055,-0.04294,-0.062716,-0.228553,0.0,0.0,0.0,0,0
2026-06-16 15:50:31.050,1044327,L_Hip,0.1279,-0.07,0.9846,-4.16,4.5,2.98,-12.62,27.62,-22.73,0.97055,-0.04294,-0.062716,-0.228553,0.0,0.0,0.0,0,0
2026-06-16 15:50:31.053,1044347,L_Hip,0.122,-0.0744,0.9754,-4.16,4.51,2.97,-14.32,27.26,-22.42,0.97055,-0.04294,-0.062716,-0.228553,0.0,0.0,0.0,0,0
2026-06-16 15:50:31.054,1044336,L_Shank,0.0023,-0.0244,0.9887,1.76,-1.18,-0.19,3.46,1.66,-16.83,0.975219,-0.003113,-0.025575,0.219642,0.0,0.0,0.0,0,0
2026-06-16 15:50:31.056,1044356,L_Shank,-0.0001,-0.0185,0.9767,1.76,-1.16,-0.18,3.64,1.5,-17.3,0.975219,-0.003082,-0.025605,0.219611,0.0,0.0,0.0,0,0
2026-06-16 15:50:31.057,1044376,L_Shank,0.0008,-0.0156,0.9844,1.75,-1.18,-0.2,0.0,0.0,0.0,0.975219,-0.003082,-0.025605,0.219611,0.0,0.0,0.0,0,0
2026-06-16 15:50:31.060,1044396,L_Shank,-0.005,-0.02,0.9863,1.74,-1.18,-0.19,3.28,1.83,-16.99,0.975219,-0.003082,-0.025605,0.219642,0.0,0.0,0.0,0,0
2026-06-16 15:50:31.060,1044212,R_Hip,0.0372,0.0113,0.989,0.28,-1.58,1.77,-16.86,29.27,-32.31,0.93759,-0.004151,-0.041658,-0.345164,0.0,0.0,0.0,0,0
2026-06-16 15:50:31.062,1044232,R_Hip,0.0441,0.0035,1.0068,0.25,-1.58,1.77,-17.78,29.09,-33.16,0.93759,-0.00412,-0.041658,-0.345164,0.0,0.0,0.0,0,0
2026-06-16 15:50:31.064,1044252,R_Hip,0.0491,0.0103,0.9924,0.26,-1.57,1.78,0.0,0.0,0.0,0.93759,-0.00412,-0.041658,-0.345164,0.0,0.0,0.0,0,0
2026-06-16 15:50:31.066,1044272,R_Hip,0.0372,0.0069,0.9953,0.28,-1.57,1.77,-19.05,28.9,-31.28,0.93759,-0.00412,-0.041688,-0.345164,0.0,0.0,0.0,0,0
2026-06-16 15:50:31.084,1044235,R_Shank,0.033,-2.9024,1.0104,-0.09,-1.46,-8.42,-15.73,24.44,-22.0,0.924162,0.035371,-0.020264,0.379742,0.0,0.0,0.0,0,0
2026-06-16 15:50:31.085,1044371,L_Hip,0.119,-0.0725,0.9861,-4.15,4.51,2.96,-14.13,27.75,-23.15,0.97055,-0.04294,-0.062716,-0.228553,0.0,0.0,0.0,0,0
2026-06-16 15:50:31.087,1044255,R_Shank,0.0424,-2.3844,1.0023,-0.09,-1.47,-8.41,0.0,0.0,0.0,0.924162,0.035371,-0.020264,0.379742,0.0,0.0,0.0,0,0
2026-06-16 15:50:31.087,1044391,L_Hip,0.12,-0.0764,0.9875,-4.16,4.5,2.96,0.0,0.0,0.0,0.97055,-0.04294,-0.062716,-0.228553,0.0,0.0,0.0,0,0
2026-06-16 15:50:31.090,1044275,R_Shank,0.0473,-2.7732,1.0148,-0.1,-1.45,-8.43,-17.12,26.13,-21.37,0.924162,0.035371,-0.020264,0.379742,0.0,0.0,0.0,0,0
2026-06-16 15:50:31.090,1044411,L_Hip,0.1229,-0.073,0.9808,-4.16,4.51,2.97,-14.48,28.06,-21.69,0.97055,-0.04294,-0.062746,-0.228553,0.0,0.0,0.0,0,0
2026-06-16 15:50:31.092,1044295,R_Shank,0.038,-1.8728,1.0013,-0.09,-1.47,-8.41,-16.45,26.77,-21.98,0.924162,0.035401,-0.020264,0.379742,0.0,0.0,0.0,0,0
2026-06-16 15:50:31.092,1044372,L_Hip,0.1229,-0.0764,0.9812,-4.16,4.51,2.97,-12.84,26.48,-21.13,0.97055,-0.04294,-0.062716,-0.228553,0.0,0.0,0.0,0,0
2026-06-16 15:50:31.097,1044385,L_Ankle,0.1437,0.0207,0.9808,5.41,-0.83,-10.31,-38.9,-1.24,-40.56,0.94882,0.042604,-0.073916,0.304025,0.0,0.0,0.0,0,0
2026-06-16 15:50:31.100,1044405,L_Ankle,0.1403,0.0163,0.9923,5.41,-0.83,-10.31,-38.52,-2.31,-39.88,0.94882,0.042604,-0.073916,0.304025,0.0,0.0,0.0,0,0
2026-06-16 15:50:31.102,1044425,L_Ankle,0.1437,0.0217,1.0,5.41,-0.83,-10.3,0.0,0.0,0.0,0.94882,0.042604,-0.073946,0.304025,0.0,0.0,0.0,0,0
2026-06-16 15:50:31.103,1044255,R_Ankle,0.017,0.0007,1.0038,0.75,-1.73,-0.5,-15.87,29.39,-29.12,0.204413,0.088931,0.020264,0.974609,0.0,0.0,0.0,0,0
2026-06-16 15:50:31.105,1044445,L_Ankle,0.1467,0.008,0.9736,5.41,-0.82,-10.3,-38.36,-1.42,-39.7,0.94882,0.042604,-0.073916,0.304025,0.0,0.0,0.0,0,0
2026-06-16 15:50:31.106,1044275,R_Ankle,0.0175,-0.0096,1.0081,0.76,-1.71,-0.5,0.0,0.0,0.0,0.204413,0.088931,0.020295,0.974609,0.0,0.0,0.0,0,0
2026-06-16 15:50:31.108,1044386,L_Shank,0.0023,-0.019,0.9863,1.75,-1.18,-0.19,3.27,2.84,-16.07,0.975219,-0.003143,-0.025575,0.219611,0.0,0.0,0.0,0,0
2026-06-16 15:50:31.109,1044295,R_Ankle,0.0204,-0.0126,1.0115,0.76,-1.72,-0.49,-16.56,29.4,-29.74,0.204413,0.088931,0.020295,0.974609,0.0,0.0,0.0,0,0
2026-06-16 15:50:31.110,1044406,L_Shank,0.0018,-0.0131,0.9825,1.75,-1.19,-0.19,2.06,1.33,-17.13,0.975219,-0.003143,-0.025575,0.219642,0.0,0.0,0.0,0,0
2026-06-16 15:50:31.111,1044315,R_Ankle,0.016,-0.0141,1.0048,0.77,-1.73,-0.5,-15.54,29.73,-30.35,0.204443,0.088931,0.020295,0.974609,0.0,0.0,0.0,0,0
2026-06-16 15:50:31.116,1044426,L_Shank,0.0042,-0.0204,0.9892,1.77,-1.18,-0.19,0.0,0.0,0.0,0.975219,-0.003113,-0.025605,0.219642,0.0,0.0,0.0,0,0
2026-06-16 15:50:31.117,1044257,R_Shank,0.0478,3.2692,1.0047,-0.1,-1.48,-8.42,-17.28,25.96,-21.83,0.924192,0.035432,-0.020295,0.379711,0.0,0.0,0.0,0,0
2026-06-16 15:50:31.118,1044446,L_Shank,-0.0064,-0.0258,0.9844,1.77,-1.19,-0.19,3.98,1.16,-16.99,0.975219,-0.003113,-0.025575,0.219642,0.0,0.0,0.0,0,0
2026-06-16 15:50:31.121,1044394,L_Hip,0.1117,-0.0749,0.9967,-4.16,4.49,2.96,-13.47,26.79,-22.86,0.97055,-0.04294,-0.062716,-0.228553,0.0,0.0,0.0,0,0
2026-06-16 15:50:31.121,1044277,R_Shank,0.0389,3.1396,1.0052,-0.09,-1.46,-8.42,0.0,0.0,0.0,0.924162,0.035432,-0.020295,0.379711,0.0,0.0,0.0,0,0
2026-06-16 15:50:31.123,1044414,L_Hip,0.1156,-0.0744,0.9827,-4.16,4.51,2.98,0.0,0.0,0.0,0.97055,-0.04294,-0.062746,-0.228553,0.0,0.0,0.0,0,0
2026-06-16 15:50:31.124,1044297,R_Shank,0.0497,1.728,1.0157,-0.09,-1.45,-8.41,-16.42,25.44,-22.29,0.924162,0.035432,-0.020325,0.379711,0.0,0.0,0.0,0,0
2026-06-16 15:50:31.127,1044434,L_Hip,0.1156,-0.073,0.987,-4.16,4.52,2.96,-15.14,27.41,-23.42,0.97055,-0.04294,-0.062746,-0.228553,0.0,0.0,0.0,0,0
2026-06-16 15:50:31.127,1044317,R_Shank,0.036,3.1396,1.0104,-0.09,-1.45,-8.42,-17.1,25.79,-22.28,0.924192,0.035432,-0.020325,0.379711,0.0,0.0,0.0,0,0
2026-06-16 15:50:31.130,1044454,L_Hip,0.118,-0.0789,0.9909,-4.15,4.52,2.96,-13.8,28.08,-22.28,0.97055,-0.04294,-0.062685,-0.228553,0.0,0.0,0.0,0,0
2026-06-16 15:50:31.130,1044262,R_Hip,0.0422,0.0118,1.001,0.26,-1.58,1.79,-16.5,29.63,-31.28,0.93759,-0.004089,-0.041658,-0.345164,0.0,0.0,0.0,0,0
2026-06-16 15:50:31.133,1044282,R_Hip,0.0535,0.0069,0.9919,0.26,-1.55,1.77,-16.86,28.53,-31.62,0.93759,-0.00412,-0.041658,-0.345164,0.0,0.0,0.0,0,0
2026-06-16 15:50:31.133,1044406,L_Ankle,0.1423,0.0217,0.9875,5.41,-0.83,-10.31,-39.07,-1.06,-40.4,0.94882,0.042604,-0.073946,0.304025,0.0,0.0,0.0,0,0
2026-06-16 15:50:31.135,1044302,R_Hip,0.0505,0.0142,0.989,0.27,-1.58,1.77,-19.6,29.45,-31.8,0.93759,-0.004089,-0.041658,-0.345164,0.0,0.0,0.0,0,0
2026-06-16 15:50:31.136,1044426,L_Ankle,0.1354,0.0134,0.9875,5.4,-0.82,-10.31,-39.95,-1.58,-40.92,0.94882,0.042604,-0.073946,0.304025,0.0,0.0,0.0,0,0
2026-06-16 15:50:31.138,1044322,R_Hip,0.052,0.004,0.9938,0.26,-1.58,1.77,0.0,0.0,0.0,0.93759,-0.004089,-0.041658,-0.345164,0.0,0.0,0.0,0,0
2026-06-16 15:50:31.138,1044446,L_Ankle,0.1447,0.0119,0.9784,5.42,-0.83,-10.29,-38.36,-1.78,-40.39,0.94882,0.042604,-0.073916,0.304025,0.0,0.0,0.0,0,0
2026-06-16 15:50:31.140,1044278,R_Ankle,0.015,-0.0151,1.0115,0.77,-1.73,-0.48,-16.21,29.39,-28.82,0.204413,0.088931,0.020295,0.974609,0.0,0.0,0.0,0,0
2026-06-16 15:50:31.140,1044466,L_Ankle,0.1496,0.0217,0.988,5.41,-0.82,-10.31,0.0,0.0,0.0,0.94882,0.042604,-0.073916,0.304025,0.0,0.0,0.0,0,0
2026-06-16 15:50:31.142,1044298,R_Ankle,0.0179,-0.0185,0.999,0.77,-1.73,-0.51,0.0,0.0,0.0,0.204413,0.088931,0.020295,0.974609,0.0,0.0,0.0,0,0
2026-06-16 15:50:31.143,1044411,L_Shank,0.0062,-0.0307,1.0022,1.75,-1.19,-0.19,3.11,2.01,-17.46,0.975219,-0.003113,-0.025575,0.219611,0.0,0.0,0.0,0,0
2026-06-16 15:50:31.144,1044318,R_Ankle,0.0135,-0.0081,0.9952,0.77,-1.73,-0.51,-16.19,30.33,-27.9,0.204443,0.088931,0.020295,0.974609,0.0,0.0,0.0,0,0
2026-06-16 15:50:31.145,1044431,L_Shank,-0.0035,-0.0229,1.0017,1.75,-1.18,-0.19,3.81,0.99,-17.14,0.975219,-0.003113,-0.025605,0.219611,0.0,0.0,0.0,0,0
2026-06-16 15:50:31.146,1044338,R_Ankle,0.0145,-0.0195,0.9976,0.77,-1.72,-0.49,-15.36,29.88,-29.27,0.204443,0.088931,0.020295,0.974609,0.0,0.0,0.0,0,0
2026-06-16 15:50:31.147,1044451,L_Shank,0.0106,-0.0307,0.9782,1.75,-1.16,-0.19,3.99,2.53,-17.94,0.975219,-0.003143,-0.025605,0.219611,0.0,0.0,0.0,0,0
2026-06-16 15:50:31.149,1044287,R_Hip,0.0471,0.0064,0.9803,0.29,-1.57,1.78,-17.23,28.9,-31.96,0.93759,-0.00412,-0.041688,-0.345195,0.0,0.0,0.0,0,0
2026-06-16 15:50:31.149,1044471,L_Shank,-0.001,-0.0234,0.983,1.75,-1.18,-0.19,0.0,0.0,0.0,0.975219,-0.003143,-0.025575,0.219611,0.0,0.0,0.0,0,0
2026-06-16 15:50:31.151,1044307,R_Hip,0.0481,0.0054,0.9828,0.27,-1.57,1.77,-18.87,27.99,-32.14,0.93759,-0.004089,-0.041688,-0.345195,0.0,0.0,0.0,0,0
2026-06-16 15:50:31.152,1044429,L_Ankle,0.1428,0.0124,0.9851,5.4,-0.82,-10.29,-38.35,-1.42,-39.36,0.94882,0.042604,-0.073916,0.304025,0.0,0.0,0.0,0,0
2026-06-16 15:50:31.153,1044327,R_Hip,0.0579,0.0089,0.9828,0.29,-1.57,1.77,0.0,0.0,0.0,0.93759,-0.004089,-0.041719,-0.345195,0.0,0.0,0.0,0,0
2026-06-16 15:50:31.154,1044449,L_Ankle,0.1418,0.0168,0.9909,5.41,-0.83,-10.3,-38.01,-2.5,-40.72,0.94882,0.042634,-0.073946,0.304025,0.0,0.0,0.0,0,0
2026-06-16 15:50:31.155,1044347,R_Hip,0.0471,0.0147,0.9871,0.27,-1.58,1.78,-18.14,29.09,-33.51,0.937559,-0.004089,-0.041749,-0.345195,0.0,0.0,0.0,0,0
2026-06-16 15:50:31.156,1044469,L_Ankle,0.1423,0.0139,0.9736,5.41,-0.84,-10.29,-38.91,-1.95,-41.59,0.94882,0.042604,-0.073946,0.304025,0.0,0.0,0.0,0,0
2026-06-16 15:50:31.158,1044300,R_Ankle,0.0165,-0.0106,0.9928,0.76,-1.73,-0.51,-17.06,29.86,-29.29,0.204443,0.0889,0.020264,0.974609,0.0,0.0,0.0,0,0
2026-06-16 15:50:31.159,1044489,L_Ankle,0.1452,0.0202,0.9957,5.41,-0.83,-10.29,0.0,0.0,0.0,0.94882,0.042604,-0.073946,0.304025,0.0,0.0,0.0,0,0
2026-06-16 15:50:31.160,1044320,R_Ankle,0.017,-0.0136,1.0024,0.76,-1.72,-0.5,0.0,0.0,0.0,0.204443,0.0889,0.020295,0.974609,0.0,0.0,0.0,0,0
2026-06-16 15:50:31.161,1044439,L_Hip,0.12,-0.0685,0.9933,-4.16,4.51,2.96,-14.11,28.07,-23.44,0.97055,-0.04294,-0.062685,-0.228553,0.0,0.0,0.0,0,0
2026-06-16 15:50:31.163,1044340,R_Ankle,0.0106,-0.0131,1.0,0.77,-1.74,-0.48,-15.86,30.35,-29.13,0.204443,0.0889,0.020295,0.974609,0.0,0.0,0.0,0,0
2026-06-16 15:50:31.163,1044459,L_Hip,0.1195,-0.0744,0.9919,-4.16,4.52,2.96,-13.99,26.3,-22.71,0.97055,-0.042909,-0.062685,-0.228553,0.0,0.0,0.0,0,0
2026-06-16 15:50:31.165,1044360,R_Ankle,0.013,-0.0136,1.0024,0.77,-1.73,-0.5,-16.23,29.41,-30.66,0.204443,0.0889,0.020295,0.974609,0.0,0.0,0.0,0,0
2026-06-16 15:50:31.165,1044479,L_Hip,0.119,-0.0685,0.988,-4.17,4.51,2.96,0.0,0.0,0.0,0.97055,-0.04294,-0.062685,-0.228553,0.0,0.0,0.0,0,0
2026-06-16 15:50:31.167,1044302,R_Shank,0.0453,2.4984,1.0109,-0.09,-1.45,-8.42,-14.74,25.42,-21.41,0.924162,0.035401,-0.020325,0.379711,0.0,0.0,0.0,0,0
2026-06-16 15:50:31.168,1044499,L_Hip,0.1313,-0.0759,0.9856,-4.16,4.5,2.96,-13.46,27.44,-23.16,0.97055,-0.04294,-0.062685,-0.228553,0.0,0.0,0.0,0,0
2026-06-16 15:50:31.169,1044322,R_Shank,0.0394,0.5684,1.01,-0.09,-1.46,-8.41,0.0,0.0,0.0,0.924162,0.035371,-0.020356,0.379742,0.0,0.0,0.0,0,0
2026-06-16 15:50:31.171,1044342,R_Shank,0.0483,-2.0024,1.0225,-0.1,-1.46,-8.41,-15.26,26.25,-21.85,0.924162,0.035401,-0.020356,0.379742,0.0,0.0,0.0,0,0
2026-06-16 15:50:31.173,1044362,R_Shank,0.0394,-3.0256,1.0095,-0.09,-1.46,-8.43,-15.44,26.75,-21.99,0.924162,0.035401,-0.020356,0.379742,0.0,0.0,0.0,0,0
2026-06-16 15:50:31.175,1044312,R_Hip,0.0505,0.0098,0.9943,0.27,-1.58,1.77,-18.5,27.62,-31.79,0.937559,-0.004089,-0.041749,-0.345195,0.0,0.0,0.0,0,0
2026-06-16 15:50:31.176,1044332,R_Hip,0.0476,0.0108,0.9823,0.26,-1.58,1.77,-15.59,29.44,-31.11,0.937559,-0.004089,-0.04178,-0.345195,0.0,0.0,0.0,0,0
2026-06-16 15:50:31.178,1044352,R_Hip,0.0491,0.0128,0.9905,0.26,-1.58,1.8,-17.78,29.08,-32.14,0.937559,-0.004089,-0.04178,-0.345195,0.0,0.0,0.0,0,0
2026-06-16 15:50:31.180,1044372,R_Hip,0.0431,0.0001,0.9828,0.28,-1.57,1.79,0.0,0.0,0.0,0.937559,-0.004059,-0.04181,-0.345195,0.0,0.0,0.0,0,0
2026-06-16 15:50:31.181,1044322,R_Ankle,0.0091,-0.0121,1.0029,0.76,-1.71,-0.5,-15.85,30.65,-28.21,0.204443,0.08887,0.020295,0.974609,0.0,0.0,0.0,0,0
2026-06-16 15:50:31.183,1044342,R_Ankle,0.0135,-0.0111,1.0072,0.76,-1.72,-0.5,0.0,0.0,0.0,0.204443,0.08887,0.020325,0.974609,0.0,0.0,0.0,0,0
2026-06-16 15:50:31.185,1044362,R_Ankle,0.017,-0.0126,1.0024,0.77,-1.74,-0.5,-16.2,30.02,-28.21,0.204443,0.08887,0.020325,0.974609,0.0,0.0,0.0,0,0
2026-06-16 15:50:31.187,1044382,R_Ankle,0.0077,-0.0116,1.0115,0.77,-1.71,-0.48,-17.58,29.07,-29.44,0.204443,0.08887,0.020325,0.974609,0.0,0.0,0.0,0,0
2026-06-16 15:50:31.187,1044474,L_Ankle,0.1413,0.0158,0.9914,5.41,-0.83,-10.31,-39.04,-1.41,-38.7,0.94882,0.042604,-0.073946,0.304025,0.0,0.0,0.0,0,0
2026-06-16 15:50:31.189,1044324,R_Shank,0.038,0.4388,1.0172,-0.09,-1.47,-8.41,-16.04,23.45,-22.91,0.924162,0.035371,-0.020386,0.379742,0.0,0.0,0.0,0,0
2026-06-16 15:50:31.190,1044494,L_Ankle,0.1482,0.0144,0.9827,5.4,-0.83,-10.29,-37.83,-1.61,-39.86,0.94882,0.042604,-0.073916,0.304025,0.0,0.0,0.0,0,0
2026-06-16 15:50:31.191,1044344,R_Shank,0.0399,0.8276,1.0104,-0.09,-1.47,-8.42,0.0,0.0,0.0,0.924162,0.035401,-0.020386,0.379742,0.0,0.0,0.0,0,0
2026-06-16 15:50:31.192,1044514,L_Ankle,0.1482,0.0197,0.9765,5.4,-0.83,-10.3,-39.04,-1.77,-39.38,0.94882,0.042604,-0.073916,0.304025,0.0,0.0,0.0,0,0
2026-06-16 15:50:31.194,1044364,R_Shank,0.0419,-0.9728,1.0138,-0.09,-1.48,-8.43,-14.91,25.91,-22.15,0.924162,0.035401,-0.020356,0.379711,0.0,0.0,0.0,0,0
2026-06-16 15:50:31.194,1044534,L_Ankle,0.1437,0.0168,0.9866,5.41,-0.83,-10.3,0.0,0.0,0.0,0.94882,0.042604,-0.073916,0.304025,0.0,0.0,0.0,0,0
2026-06-16 15:50:31.196,1044384,R_Shank,0.0419,2.2392,1.0128,-0.09,-1.45,-8.43,0.0,0.0,0.0,0.924192,0.035401,-0.020356,0.379711,0.0,0.0,0.0,0,0
2026-06-16 15:50:31.198,1044485,L_Hip,0.1161,-0.0749,0.9851,-4.15,4.51,2.96,-14.48,27.74,-21.98,0.97055,-0.04294,-0.062685,-0.228553,0.0,0.0,0.0,0,0
2026-06-16 15:50:31.198,1044337,R_Hip,0.0353,0.0064,0.9943,0.27,-1.57,1.78,-17.78,29.45,-33.16,0.93759,-0.004089,-0.04181,-0.345164,0.0,0.0,0.0,0,0
2026-06-16 15:50:31.200,1044505,L_Hip,0.1151,-0.0676,0.9837,-4.16,4.52,2.97,-13.32,27.28,-21.27,0.97055,-0.04297,-0.062716,-0.228553,0.0,0.0,0.0,0,0
2026-06-16 15:50:31.200,1044357,R_Hip,0.0367,0.0059,0.9847,0.25,-1.57,1.77,-17.95,28.17,-30.94,0.93759,-0.004089,-0.04178,-0.345164,0.0,0.0,0.0,0,0
2026-06-16 15:50:31.202,1044377,R_Hip,0.0412,-0.0008,1.001,0.27,-1.58,1.77,0.0,0.0,0.0,0.93759,-0.004089,-0.041749,-0.345195,0.0,0.0,0.0,0,0
2026-06-16 15:50:31.202,1044525,L_Hip,0.1171,-0.0725,0.9832,-4.16,4.49,2.96,0.0,0.0,0.0,0.97055,-0.04297,-0.062716,-0.228584,0.0,0.0,0.0,0,0
2026-06-16 15:50:31.204,1044397,R_Hip,0.0451,0.0045,0.9803,0.27,-1.57,1.79,-18.14,29.81,-31.11,0.93759,-0.004089,-0.041749,-0.345164,0.0,0.0,0.0,0,0
2026-06-16 15:50:31.204,1044545,L_Hip,0.1185,-0.0666,0.9837,-4.16,4.5,2.97,-13.67,26.3,-22.13,0.97055,-0.04294,-0.062685,-0.228553,0.0,0.0,0.0,0,0
2026-06-16 15:50:31.206,1044344,R_Ankle,0.0145,-0.0156,1.0038,0.76,-1.72,-0.48,-16.54,30.66,-29.14,0.204443,0.08887,0.020295,0.974609,0.0,0.0,0.0,0,0
2026-06-16 15:50:31.206,1044486,L_Shank,0.0008,-0.0224,0.9868,1.76,-1.16,-0.19,3.45,1.99,-16.22,0.975219,-0.003143,-0.025575,0.219611,0.0,0.0,0.0,0,0
2026-06-16 15:50:31.208,1044364,R_Ankle,0.016,-0.0111,1.0029,0.76,-1.74,-0.49,0.0,0.0,0.0,0.204443,0.08887,0.020295,0.974609,0.0,0.0,0.0,0,0
2026-06-16 15:50:31.208,1044506,L_Shank,0.0067,-0.0141,0.9906,1.77,-1.18,-0.19,3.63,1.49,-16.68,0.975219,-0.003143,-0.025544,0.219611,0.0,0.0,0.0,0,0
2026-06-16 15:50:31.210,1044526,L_Shank,-0.005,-0.018,0.9801,1.75,-1.18,-0.19,0.0,0.0,0.0,0.975219,-0.003113,-0.025544,0.219611,0.0,0.0,0.0,0,0
2026-06-16 15:50:31.210,1044384,R_Ankle,0.0111,-0.02,0.9962,0.76,-1.72,-0.48,-16.73,30.19,-29.91,0.204443,0.08887,0.020264,0.974609,0.0,0.0,0.0,0,0
2026-06-16 15:50:31.212,1044546,L_Shank,0.0081,-0.019,0.983,1.74,-1.19,-0.19,2.24,2.85,-16.99,0.975219,-0.003113,-0.025544,0.219611,0.0,0.0,0.0,0,0
2026-06-16 15:50:31.213,1044404,R_Ankle,0.0081,-0.0111,1.0014,0.76,-1.71,-0.49,-16.88,30.33,-28.53,0.204443,0.088839,0.020295,0.974609,0.0,0.0,0.0,0,0
2026-06-16 15:50:31.214,1044347,R_Shank,0.0384,-1.6136,1.0018,-0.08,-1.47,-8.41,-15.89,24.28,-22.15,0.924162,0.035401,-0.020386,0.379711,0.0,0.0,0.0,0,0
2026-06-16 15:50:31.216,1044367,R_Shank,0.0419,0.8276,1.0061,-0.07,-1.47,-8.42,-16.95,25.96,-21.23,0.924162,0.035432,-0.020386,0.379711,0.0,0.0,0.0,0,0
2026-06-16 15:50:31.218,1044387,R_Shank,0.033,-2.6436,0.9999,-0.09,-1.47,-8.42,0.0,0.0,0.0,0.924162,0.035432,-0.020386,0.379711,0.0,0.0,0.0,0,0
2026-06-16 15:50:31.219,1044407,R_Shank,0.036,2.3688,1.0061,-0.09,-1.48,-8.43,-15.41,25.76,-22.3,0.924192,0.035432,-0.020386,0.379711,0.0,0.0,0.0,0,0
2026-06-16 15:50:31.224,1044511,L_Shank,-0.0006,-0.0234,0.9762,1.76,-1.17,-0.19,3.46,3.03,-17.47,0.975219,-0.003082,-0.025544,0.219611,0.0,0.0,0.0,0,0
2026-06-16 15:50:31.225,1044531,L_Shank,0.0003,-0.0131,0.9844,1.77,-1.17,-0.21,2.94,1.84,-17.3,0.975219,-0.003082,-0.025544,0.219611,0.0,0.0,0.0,0,0
2026-06-16 15:50:31.227,1044551,L_Shank,-0.0103,-0.0185,0.9945,1.76,-1.19,-0.21,3.1,2.34,-16.53,0.975219,-0.003082,-0.025544,0.219642,0.0,0.0,0.0,0,0
2026-06-16 15:50:31.228,1044512,L_Shank,0.0047,-0.0234,0.9887,1.76,-1.19,-0.2,0.0,0.0,0.0,0.975219,-0.003082,-0.025544,0.219642,0.0,0.0,0.0,0,0
2026-06-16 15:50:31.231,1044519,L_Ankle,0.1388,0.0158,0.9822,5.4,-0.83,-10.29,-40.11,-2.11,-40.76,0.94882,0.042604,-0.073916,0.304025,0.0,0.0,0.0,0,0
2026-06-16 15:50:31.233,1044539,L_Ankle,0.1388,0.0109,1.0038,5.41,-0.83,-10.29,-39.42,-1.05,-40.06,0.94882,0.042573,-0.073916,0.304025,0.0,0.0,0.0,0,0
2026-06-16 15:50:31.235,1044387,R_Hip,0.0471,0.0035,0.9909,0.28,-1.56,1.78,-17.96,28.9,-31.62,0.93759,-0.004089,-0.041749,-0.345164,0.0,0.0,0.0,0,0
2026-06-16 15:50:31.236,1044559,L_Ankle,0.1418,0.0163,0.9818,5.42,-0.84,-10.29,-38.52,-1.6,-39.2,0.94882,0.042573,-0.073916,0.304025,0.0,0.0,0.0,0,0
2026-06-16 15:50:31.237,1044407,R_Hip,0.0491,0.0093,1.001,0.26,-1.58,1.77,-16.68,29.08,-31.45,0.93759,-0.004059,-0.041749,-0.345164,0.0,0.0,0.0,0,0
2026-06-16 15:50:31.238,1044579,L_Ankle,0.1359,0.0149,0.9861,5.42,-0.83,-10.31,-40.98,-1.91,-40.26,0.94882,0.042573,-0.073946,0.304025,0.0,0.0,0.0,0,0
2026-06-16 15:50:31.239,1044427,R_Hip,0.056,0.0079,0.9905,0.27,-1.58,1.78,-18.14,27.62,-32.48,0.93759,-0.004059,-0.041749,-0.345164,0.0,0.0,0.0,0,0
2026-06-16 15:50:31.241,1044447,R_Hip,0.0436,0.0059,0.989,0.26,-1.58,1.77,0.0,0.0,0.0,0.93759,-0.004089,-0.04178,-0.345164,0.0,0.0,0.0,0,0
2026-06-16 15:50:31.242,1044529,L_Hip,0.1146,-0.072,0.9929,-4.16,4.51,2.96,-13.61,27.92,-23.59,0.97055,-0.04297,-0.062716,-0.228553,0.0,0.0,0.0,0,0
2026-06-16 15:50:31.243,1044390,R_Ankle,0.0179,-0.0067,0.999,0.76,-1.74,-0.49,-16.03,30.5,-28.67,0.204443,0.088839,0.020295,0.974609,0.0,0.0,0.0,0,0
2026-06-16 15:50:31.245,1044549,L_Hip,0.1249,-0.0754,0.99,-4.16,4.51,2.98,-14.16,26.78,-21.98,0.97055,-0.04294,-0.062716,-0.228553,0.0,0.0,0.0,0,0
2026-06-16 15:50:31.245,1044410,R_Ankle,0.0121,-0.0017,0.9904,0.77,-1.74,-0.48,0.0,0.0,0.0,0.204443,0.088839,0.020295,0.974609,0.0,0.0,0.0,0,0
2026-06-16 15:50:31.247,1044569,L_Hip,0.1151,-0.0828,0.974,-4.16,4.51,2.96,0.0,0.0,0.0,0.97055,-0.04294,-0.062685,-0.228584,0.0,0.0,0.0,0,0
2026-06-16 15:50:31.247,1044430,R_Ankle,0.0194,-0.02,1.0034,0.76,-1.72,-0.48,-16.05,29.88,-29.9,0.204443,0.08887,0.020295,0.974609,0.0,0.0,0.0,0,0
2026-06-16 15:50:31.249,1044589,L_Hip,0.1161,-0.0769,0.9827,-4.16,4.51,2.97,-13.65,26.95,-22.43,0.97055,-0.04294,-0.062685,-0.228553,0.0,0.0,0.0,0,0
2026-06-16 15:50:31.250,1044450,R_Ankle,0.0175,-0.0121,0.9919,0.77,-1.73,-0.48,-16.55,30.67,-30.07,0.204443,0.088839,0.020295,0.974609,0.0,0.0,0.0,0,0
2026-06-16 15:50:31.252,1044536,L_Shank,-0.0054,-0.019,0.9906,1.74,-1.19,-0.19,3.45,2.68,-16.54,0.975219,-0.003082,-0.025513,0.219642,0.0,0.0,0.0,0,0
2026-06-16 15:50:31.254,1044556,L_Shank,0.0047,-0.0224,0.9863,1.76,-1.19,-0.19,2.76,1.33,-17.13,0.975219,-0.003082,-0.025513,0.219642,0.0,0.0,0.0,0,0
2026-06-16 15:50:31.255,1044576,L_Shank,0.0081,-0.0253,0.9815,1.74,-1.17,-0.19,2.76,2.69,-17.15,0.975219,-0.003082,-0.025513,0.219642,0.0,0.0,0.0,0,0
2026-06-16 15:50:31.257,1044596,L_Shank,0.0013,-0.0151,0.995,1.76,-1.17,-0.18,2.41,1.67,-17.13,0.975219,-0.003082,-0.025513,0.219642,0.0,0.0,0.0,0,0
2026-06-16 15:50:31.262,1044414,R_Shank,0.0414,-0.8432,0.9956,-0.09,-1.46,-8.42,-16.8,27.11,-21.67,0.924162,0.035432,-0.020356,0.379711,0.0,0.0,0.0,0,0
2026-06-16 15:50:31.264,1044434,R_Shank,0.0335,1.4688,1.0167,-0.09,-1.46,-8.41,-16.26,25.61,-21.84,0.924162,0.035432,-0.020386,0.379711,0.0,0.0,0.0,0,0
2026-06-16 15:50:31.265,1044551,L_Hip,0.1249,-0.0769,0.9841,-4.15,4.5,2.96,-13.62,28.56,-22.43,0.97055,-0.04294,-0.062654,-0.228553,0.0,0.0,0.0,0,0
2026-06-16 15:50:31.266,1044571,L_Hip,0.118,-0.0774,0.9895,-4.15,4.51,2.96,0.0,0.0,0.0,0.97055,-0.04297,-0.062654,-0.228584,0.0,0.0,0.0,0,0
2026-06-16 15:50:31.267,1044454,R_Shank,0.038,-2.6436,1.0018,-0.09,-1.47,-8.41,-16.92,24.3,-21.24,0.924162,0.035432,-0.020356,0.379711,0.0,0.0,0.0,0,0
2026-06-16 15:50:31.269,1044474,R_Shank,0.0453,2.1096,1.0157,-0.09,-1.46,-8.42,0.0,0.0,0.0,0.924162,0.035432,-0.020356,0.379711,0.0,0.0,0.0,0,0
2026-06-16 15:50:31.269,1044552,L_Hip,0.1249,-0.0631,0.9914,-4.15,4.51,2.95,-14.0,26.62,-21.84,0.97055,-0.04297,-0.062654,-0.228584,0.0,0.0,0.0,0,0
2026-06-16 15:50:31.270,1044572,L_Hip,0.1279,-0.0715,0.9875,-4.14,4.51,2.98,0.0,0.0,0.0,0.97055,-0.04297,-0.062654,-0.228584,0.0,0.0,0.0,0,0
2026-06-16 15:50:31.276,1044563,L_Ankle,0.1467,0.0188,0.988,5.41,-0.82,-10.3,-40.64,-1.21,-40.25,0.94882,0.042604,-0.073946,0.304025,0.0,0.0,0.0,0,0
2026-06-16 15:50:31.277,1044583,L_Ankle,0.1418,0.0178,0.9846,5.42,-0.83,-10.32,0.0,0.0,0.0,0.94882,0.042604,-0.073946,0.304025,0.0,0.0,0.0,0,0
2026-06-16 15:50:31.279,1044603,L_Ankle,0.1428,0.0119,0.9962,5.41,-0.83,-10.32,-39.21,-3.0,-39.89,0.94882,0.042604,-0.073946,0.304025,0.0,0.0,0.0,0,0
2026-06-16 15:50:31.281,1044623,L_Ankle,0.1442,0.0105,0.9842,5.41,-0.81,-10.3,-38.89,-1.95,-40.57,0.94882,0.042604,-0.073946,0.303995,0.0,0.0,0.0,0,0
2026-06-16 15:50:31.282,1044434,R_Ankle,0.0072,-0.0086,1.0038,0.74,-1.73,-0.48,-15.7,30.51,-29.59,0.204443,0.088839,0.020295,0.974609,0.0,0.0,0.0,0,0
2026-06-16 15:50:31.284,1044454,R_Ankle,0.0248,-0.0116,1.0038,0.76,-1.73,-0.48,0.0,0.0,0.0,0.204443,0.08887,0.020295,0.974609,0.0,0.0,0.0,0,0
2026-06-16 15:50:31.285,1044474,R_Ankle,0.0317,-0.0185,1.0072,0.77,-1.73,-0.49,-16.88,30.01,-27.91,0.204443,0.0889,0.020264,0.974609,0.0,0.0,0.0,0,0
2026-06-16 15:50:31.287,1044494,R_Ankle,0.0081,-0.0096,0.9952,0.77,-1.72,-0.48,-15.53,30.03,-29.12,0.204443,0.08887,0.020295,0.974609,0.0,0.0,0.0,0,0
2026-06-16 15:50:31.299,1044586,L_Shank,0.0003,-0.0224,0.9743,1.74,-1.19,-0.2,2.24,1.17,-17.9,0.975219,-0.003082,-0.025483,0.219642,0.0,0.0,0.0,0,0
2026-06-16 15:50:31.300,1044606,L_Shank,0.0023,-0.0224,0.9849,1.77,-1.17,-0.18,0.0,0.0,0.0,0.975219,-0.003082,-0.025513,0.219642,0.0,0.0,0.0,0,0
2026-06-16 15:50:31.302,1044626,L_Shank,0.0057,-0.018,0.982,1.75,-1.17,-0.19,2.75,2.67,-15.91,0.975219,-0.003082,-0.025513,0.219642,0.0,0.0,0.0,0,0
2026-06-16 15:50:31.303,1044646,L_Shank,-0.0001,-0.0209,0.9834,1.74,-1.19,-0.19,3.64,1.16,-17.61,0.975219,-0.003113,-0.025513,0.219672,0.0,0.0,0.0,0,0
2026-06-16 15:50:31.308,1044459,R_Shank,0.0438,1.4688,0.9941,-0.08,-1.46,-8.42,-15.61,25.94,-20.34,0.924162,0.035432,-0.020325,0.379711,0.0,0.0,0.0,0,0
2026-06-16 15:50:31.309,1044596,L_Hip,0.1259,-0.072,0.9987,-4.16,4.51,2.97,-14.3,27.91,-22.71,0.97055,-0.04294,-0.062654,-0.228584,0.0,0.0,0.0,0,0
2026-06-16 15:50:31.310,1044479,R_Shank,0.035,3.1396,1.0061,-0.08,-1.45,-8.41,-16.77,25.13,-20.78,0.924162,0.035463,-0.020325,0.379711,0.0,0.0,0.0,0,0
2026-06-16 15:50:31.311,1044616,L_Hip,0.1185,-0.0764,0.988,-4.17,4.51,2.96,-14.85,26.44,-21.68,0.97055,-0.04294,-0.062685,-0.228584,0.0,0.0,0.0,0,0
2026-06-16 15:50:31.312,1044499,R_Shank,0.0384,3.2692,1.0143,-0.1,-1.48,-8.42,0.0,0.0,0.0,0.924192,0.035432,-0.020325,0.379711,0.0,0.0,0.0,0,0
2026-06-16 15:50:31.314,1044636,L_Hip,0.1298,-0.0744,0.9808,-4.16,4.51,2.96,-13.98,26.63,-23.29,0.97055,-0.04297,-0.062654,-0.228584,0.0,0.0,0.0,0,0
2026-06-16 15:50:31.315,1044519,R_Shank,0.0414,-0.3316,1.0071,-0.11,-1.47,-8.41,-16.76,25.45,-21.68,0.924192,0.035432,-0.020325,0.379711,0.0,0.0,0.0,0,0
2026-06-16 15:50:31.315,1044656,L_Hip,0.1166,-0.0715,0.9832,-4.15,4.5,2.96,0.0,0.0,0.0,0.97055,-0.04297,-0.062654,-0.228584,0.0,0.0,0.0,0,0
2026-06-16 15:50:31.321,1044609,L_Ankle,0.1457,0.0178,0.9813,5.41,-0.82,-10.31,-38.18,-2.31,-40.21,0.94882,0.042634,-0.073946,0.303995,0.0,0.0,0.0,0,0
2026-06-16 15:50:31.323,1044629,L_Ankle,0.1384,0.0144,0.9856,5.41,-0.83,-10.31,0.0,0.0,0.0,0.94882,0.042634,-0.073946,0.303995,0.0,0.0,0.0,0,0
2026-06-16 15:50:31.325,1044649,L_Ankle,0.1413,0.0139,0.9813,5.41,-0.83,-10.3,-38.72,-1.42,-40.73,0.94882,0.042634,-0.073916,0.303995,0.0,0.0,0.0,0,0
2026-06-16 15:50:31.327,1044669,L_Ankle,0.1388,0.0041,0.975,5.41,-0.84,-10.3,-38.34,-2.13,-39.37,0.94882,0.042665,-0.073946,0.303995,0.0,0.0,0.0,0,0
2026-06-16 15:50:31.328,1044479,R_Ankle,0.0184,-0.0096,1.0019,0.76,-1.71,-0.48,-16.21,29.39,-29.12,0.204413,0.0889,0.020264,0.974609,0.0,0.0,0.0,0,0
2026-06-16 15:50:31.329,1044611,L_Shank,0.0003,-0.018,0.9978,1.75,-1.17,-0.2,2.58,2.17,-16.99,0.975219,-0.003143,-0.025513,0.219672,0.0,0.0,0.0,0,0
2026-06-16 15:50:31.330,1044499,R_Ankle,0.013,-0.0146,1.0144,0.76,-1.72,-0.49,0.0,0.0,0.0,0.204413,0.0889,0.020295,0.974609,0.0,0.0,0.0,0,0
2026-06-16 15:50:31.331,1044631,L_Shank,0.0003,-0.02,0.9772,1.75,-1.17,-0.19,0.0,0.0,0.0,0.975219,-0.003143,-0.025483,0.219672,0.0,0.0,0.0,0,0
2026-06-16 15:50:31.332,1044519,R_Ankle,0.0189,-0.0111,0.999,0.76,-1.7,-0.49,-16.38,30.19,-29.6,0.204413,0.08887,0.020295,0.974609,0.0,0.0,0.0,0,0
2026-06-16 15:50:31.333,1044651,L_Shank,0.0003,-0.0126,0.9834,1.76,-1.17,-0.2,3.28,3.19,-17.01,0.975219,-0.003143,-0.025483,0.219672,0.0,0.0,0.0,0,0
2026-06-16 15:50:31.334,1044539,R_Ankle,0.0238,-0.019,1.0096,0.75,-1.71,-0.5,-17.06,28.9,-28.66,0.204413,0.08887,0.020264,0.974609,0.0,0.0,0.0,0,0
2026-06-16 15:50:31.335,1044671,L_Shank,0.0028,-0.0165,0.9849,1.75,-1.18,-0.19,3.98,2.51,-16.38,0.975219,-0.003113,-0.025483,0.219672,0.0,0.0,0.0,0,0
2026-06-16 15:50:31.336,1044482,R_Shank,0.0389,-1.1024,1.0047,-0.09,-1.47,-8.41,-16.6,25.95,-21.83,0.924192,0.035463,-0.020325,0.379711,0.0,0.0,0.0,0,0
2026-06-16 15:50:31.338,1044502,R_Shank,0.0355,3.01,1.0066,-0.09,-1.46,-8.42,-15.25,25.59,-21.85,0.924162,0.035463,-0.020325,0.379711,0.0,0.0,0.0,0,0
2026-06-16 15:50:31.340,1044522,R_Shank,0.0453,-3.1552,1.021,-0.09,-1.45,-8.41,0.0,0.0,0.0,0.924162,0.035463,-0.020295,0.379711,0.0,0.0,0.0,0,0
2026-06-16 15:50:31.342,1044542,R_Shank,0.0355,2.2392,1.0032,-0.09,-1.46,-8.43,-16.93,25.95,-22.43,0.924192,0.035463,-0.020295,0.379711,0.0,0.0,0.0,0,0
2026-06-16 15:50:31.344,1044631,L_Ankle,0.1442,0.0173,0.9966,5.4,-0.83,-10.29,-38.89,-0.88,-39.54,0.94882,0.042665,-0.073946,0.303995,0.0,0.0,0.0,0,0
2026-06-16 15:50:31.345,1044487,R_Hip,0.0481,0.0123,0.9967,0.25,-1.59,1.77,-18.14,28.35,-31.79,0.93759,-0.004089,-0.04178,-0.345164,0.0,0.0,0.0,0,0
2026-06-16 15:50:31.346,1044651,L_Ankle,0.1388,0.008,0.9688,5.41,-0.83,-10.3,0.0,0.0,0.0,0.94882,0.042665,-0.073946,0.304025,0.0,0.0,0.0,0,0
2026-06-16 15:50:31.347,1044507,R_Hip,0.0451,0.0069,0.9799,0.27,-1.58,1.77,-16.86,28.53,-31.28,0.93759,-0.004089,-0.04178,-0.345195,0.0,0.0,0.0,0,0
2026-06-16 15:50:31.349,1044527,R_Hip,0.0456,0.0059,0.9938,0.28,-1.57,1.77,0.0,0.0,0.0,0.937559,-0.004089,-0.04178,-0.345195,0.0,0.0,0.0,0,0
2026-06-16 15:50:31.349,1044671,L_Ankle,0.1462,0.0202,0.9741,5.41,-0.83,-10.31,-39.07,-1.06,-40.4,0.94882,0.042665,-0.073916,0.303995,0.0,0.0,0.0,0,0
2026-06-16 15:50:31.351,1044547,R_Hip,0.0441,0.0054,0.9876,0.28,-1.58,1.79,-18.87,29.09,-32.82,0.937559,-0.004089,-0.04178,-0.345195,0.0,0.0,0.0,0,0
2026-06-16 15:50:31.351,1044691,L_Ankle,0.1477,0.0129,0.9938,5.41,-0.82,-10.3,-39.58,-2.65,-40.92,0.94882,0.042695,-0.073946,0.303995,0.0,0.0,0.0,0,0
2026-06-16 15:50:31.353,1044502,R_Ankle,0.0072,-0.0101,0.9962,0.77,-1.73,-0.48,-16.9,29.71,-30.06,0.204413,0.0889,0.020264,0.974609,0.0,0.0,0.0,0,0
2026-06-16 15:50:31.354,1044641,L_Hip,0.1283,-0.0705,0.9832,-4.16,4.5,2.97,-14.29,27.91,-23.0,0.970519,-0.043001,-0.062685,-0.228584,0.0,0.0,0.0,0,0
2026-06-16 15:50:31.355,1044522,R_Ankle,0.013,-0.0166,1.0158,0.77,-1.72,-0.49,0.0,0.0,0.0,0.204413,0.08887,0.020264,0.974609,0.0,0.0,0.0,0,0
2026-06-16 15:50:31.357,1044661,L_Hip,0.1151,-0.07,0.9929,-4.16,4.51,2.96,-14.65,27.26,-22.7,0.97055,-0.04297,-0.062654,-0.228584,0.0,0.0,0.0,0,0
2026-06-16 15:50:31.357,1044542,R_Ankle,0.0135,-0.0166,1.0105,0.76,-1.73,-0.51,-15.69,29.23,-28.35,0.204413,0.08887,0.020264,0.974609,0.0,0.0,0.0,0,0
2026-06-16 15:50:31.359,1044681,L_Hip,0.1126,-0.0779,0.9822,-4.17,4.51,2.96,-13.65,26.95,-22.43,0.970519,-0.043001,-0.062685,-0.228584,0.0,0.0,0.0,0,0
2026-06-16 15:50:31.359,1044562,R_Ankle,0.0116,-0.0116,1.0101,0.74,-1.74,-0.48,-16.72,30.82,-29.61,0.204413,0.08887,0.020234,0.974609,0.0,0.0,0.0,0,0
2026-06-16 15:50:31.361,1044701,L_Hip,0.1161,-0.0651,0.9914,-4.16,4.51,2.96,0.0,0.0,0.0,0.970519,-0.043001,-0.062685,-0.228584,0.0,0.0,0.0,0,0
2026-06-16 15:50:31.362,1044504,R_Shank,0.0326,0.4388,1.0066,-0.09,-1.46,-8.43,-16.76,25.45,-22.29,0.924192,0.035463,-0.020264,0.379711,0.0,0.0,0.0,0,0
2026-06-16 15:50:31.363,1044524,R_Shank,0.0409,1.9804,1.0018,-0.11,-1.45,-8.41,-17.26,25.62,-22.43,0.924192,0.035463,-0.020264,0.379711,0.0,0.0,0.0,0,0
2026-06-16 15:50:31.365,1044544,R_Shank,0.0443,-0.0724,1.0095,-0.11,-1.47,-8.42,0.0,0.0,0.0,0.924192,0.035493,-0.020264,0.379711,0.0,0.0,0.0,0,0
2026-06-16 15:50:31.367,1044564,R_Shank,0.0473,2.2392,0.9946,-0.1,-1.47,-8.42,-15.92,25.28,-21.24,0.924192,0.035493,-0.020295,0.379711,0.0,0.0,0.0,0,0
2026-06-16 15:50:31.368,1044512,R_Hip,0.0417,0.0069,0.9943,0.28,-1.56,1.79,-17.78,27.62,-32.82,0.93759,-0.004089,-0.04178,-0.345164,0.0,0.0,0.0,0,0
2026-06-16 15:50:31.370,1044532,R_Hip,0.0431,0.0069,0.9818,0.28,-1.58,1.77,-16.68,28.72,-32.48,0.93759,-0.004089,-0.04181,-0.345164,0.0,0.0,0.0,0,0
2026-06-16 15:50:31.372,1044552,R_Hip,0.0441,0.0108,0.9905,0.26,-1.58,1.77,-17.96,28.17,-31.28,0.93759,-0.004059,-0.04181,-0.345164,0.0,0.0,0.0,0,0
2026-06-16 15:50:31.373,1044572,R_Hip,0.0412,0.0079,0.989,0.28,-1.57,1.77,0.0,0.0,0.0,0.93759,-0.004059,-0.04181,-0.345164,0.0,0.0,0.0,0,0
2026-06-16 15:50:31.374,1044661,L_Shank,0.0042,-0.0234,0.9993,1.76,-1.17,-0.19,2.22,1.14,-15.73,0.975219,-0.003143,-0.025483,0.219672,0.0,0.0,0.0,0,0
2026-06-16 15:50:31.375,1044681,L_Shank,-0.004,-0.0253,0.9974,1.76,-1.18,-0.19,0.0,0.0,0.0,0.975219,-0.003113,-0.025452,0.219672,0.0,0.0,0.0,0,0
2026-06-16 15:50:31.377,1044701,L_Shank,0.0086,-0.0268,0.9945,1.74,-1.19,-0.19,4.16,1.33,-17.15,0.975219,-0.003113,-0.025452,0.219672,0.0,0.0,0.0,0,0
2026-06-16 15:50:31.379,1044721,L_Shank,0.0018,-0.0234,0.982,1.76,-1.18,-0.2,1.54,1.49,-16.97,0.975219,-0.003113,-0.025422,0.219672,0.0,0.0,0.0,0,0
2026-06-16 15:50:31.385,1044537,R_Hip,0.0427,0.0089,0.99,0.27,-1.56,1.79,-17.96,29.27,-32.31,0.93759,-0.004059,-0.04181,-0.345164,0.0,0.0,0.0,0,0
2026-06-16 15:50:31.387,1044557,R_Hip,0.0427,0.004,0.99,0.27,-1.56,1.77,-16.68,30.18,-32.48,0.93759,-0.004059,-0.04178,-0.345164,0.0,0.0,0.0,0,0
2026-06-16 15:50:31.388,1044577,R_Hip,0.0402,0.0069,0.9948,0.28,-1.57,1.77,0.0,0.0,0.0,0.93759,-0.004028,-0.04178,-0.345164,0.0,0.0,0.0,0,0
2026-06-16 15:50:31.389,1044676,L_Ankle,0.1364,0.0163,0.9827,5.41,-0.83,-10.3,-38.36,-2.49,-40.73,0.94882,0.042695,-0.073946,0.304025,0.0,0.0,0.0,0,0
2026-06-16 15:50:31.390,1044597,R_Hip,0.053,0.0147,0.9789,0.27,-1.55,1.8,-17.23,28.9,-33.33,0.93759,-0.004028,-0.04178,-0.345164,0.0,0.0,0.0,0,0
2026-06-16 15:50:31.391,1044696,L_Ankle,0.1374,0.008,0.9822,5.41,-0.82,-10.29,0.0,0.0,0.0,0.94882,0.042695,-0.073977,0.304025,0.0,0.0,0.0,0,0
2026-06-16 15:50:31.393,1044716,L_Ankle,0.1486,0.0002,0.9803,5.42,-0.83,-10.3,-38.67,-3.19,-39.38,0.94882,0.042726,-0.073977,0.304025,0.0,0.0,0.0,0,0
2026-06-16 15:50:31.395,1044736,L_Ankle,0.1364,0.0061,0.9923,5.42,-0.84,-10.31,-40.44,-2.45,-39.75,0.94879,0.042695,-0.074007,0.304025,0.0,0.0,0.0,0,0
2026-06-16 15:50:31.395,1044547,R_Ankle,0.0081,-0.0126,0.989,0.76,-1.73,-0.48,-16.38,28.91,-28.66,0.204413,0.088839,0.020234,0.974609,0.0,0.0,0.0,0,0
2026-06-16 15:50:31.396,1044567,R_Ankle,0.016,-0.0106,1.0158,0.76,-1.74,-0.48,0.0,0.0,0.0,0.204413,0.08887,0.020234,0.974609,0.0,0.0,0.0,0,0
2026-06-16 15:50:31.398,1044587,R_Ankle,0.0116,-0.0047,1.0091,0.76,-1.72,-0.49,-16.38,29.87,-29.29,0.204413,0.088839,0.020234,0.974609,0.0,0.0,0.0,0,0
2026-06-16 15:50:31.400,1044607,R_Ankle,0.0135,-0.0161,1.0077,0.76,-1.72,-0.48,-15.52,30.67,-29.13,0.204413,0.088839,0.020234,0.974609,0.0,0.0,0.0,0,0
2026-06-16 15:50:31.411,1044699,L_Ankle,0.1423,0.0188,0.9933,5.41,-0.83,-10.31,-38.69,-1.41,-38.69,0.94879,0.042695,-0.073977,0.304025,0.0,0.0,0.0,0,0
2026-06-16 15:50:31.413,1044719,L_Ankle,0.1491,0.0105,0.9803,5.41,-0.83,-10.3,0.0,0.0,0.0,0.94879,0.042665,-0.073977,0.304025,0.0,0.0,0.0,0,0
2026-06-16 15:50:31.414,1044739,L_Ankle,0.1423,0.0158,0.9942,5.41,-0.83,-10.29,-39.39,-2.83,-40.07,0.94879,0.042665,-0.073977,0.304025,0.0,0.0,0.0,0,0
2026-06-16 15:50:31.417,1044759,L_Ankle,0.1462,0.0149,0.9923,5.42,-0.83,-10.29,-40.62,-2.27,-39.92,0.94879,0.042665,-0.073977,0.304025,0.0,0.0,0.0,0,0
2026-06-16 15:50:31.420,1044572,R_Shank,0.0419,-1.8728,1.008,-0.09,-1.46,-8.41,-17.78,26.46,-22.57,0.924192,0.035493,-0.020264,0.379711,0.0,0.0,0.0,0,0
2026-06-16 15:50:31.422,1044592,R_Shank,0.0399,2.2392,0.9999,-0.08,-1.47,-8.44,0.0,0.0,0.0,0.924192,0.035493,-0.020264,0.379681,0.0,0.0,0.0,0,0
2026-06-16 15:50:31.422,1044710,L_Hip,0.122,-0.0646,0.9841,-4.15,4.51,2.98,-13.99,26.62,-22.71,0.970519,-0.043031,-0.062654,-0.228584,0.0,0.0,0.0,0,0
2026-06-16 15:50:31.424,1044612,R_Shank,0.0404,0.698,1.0037,-0.1,-1.45,-8.43,-15.74,24.78,-21.4,0.924192,0.035493,-0.020264,0.379681,0.0,0.0,0.0,0,0
2026-06-16 15:50:31.425,1044730,L_Hip,0.1156,-0.0779,0.9832,-4.15,4.51,2.97,-15.14,28.38,-22.55,0.970519,-0.043031,-0.062685,-0.228584,0.0,0.0,0.0,0,0
2026-06-16 15:50:31.426,1044632,R_Shank,0.0389,1.4688,1.0076,-0.09,-1.46,-8.42,-15.75,25.44,-21.7,0.924192,0.035493,-0.020234,0.379681,0.0,0.0,0.0,0,0
2026-06-16 15:50:31.427,1044750,L_Hip,0.1269,-0.0769,0.9875,-4.16,4.51,2.99,-15.16,27.41,-22.55,0.970519,-0.043001,-0.062654,-0.228584,0.0,0.0,0.0,0,0
2026-06-16 15:50:31.428,1044770,L_Hip,0.1205,-0.0661,0.99,-4.16,4.5,2.97,-14.14,27.43,-22.57,0.97055,-0.043001,-0.062654,-0.228584,0.0,0.0,0.0,0,0
2026-06-16 15:50:31.430,1044711,L_Shank,-0.003,-0.02,0.9916,1.76,-1.18,-0.19,3.46,1.32,-16.83,0.975219,-0.003113,-0.025422,0.219672,0.0,0.0,0.0,0,0
2026-06-16 15:50:31.432,1044731,L_Shank,-0.0006,-0.017,0.9676,1.75,-1.19,-0.19,0.0,0.0,0.0,0.975219,-0.003113,-0.025391,0.219672,0.0,0.0,0.0,0,0
2026-06-16 15:50:31.433,1044751,L_Shank,-0.0015,-0.017,0.9858,1.75,-1.19,-0.2,2.76,3.02,-16.84,0.975219,-0.003113,-0.025391,0.219672,0.0,0.0,0.0,0,0
2026-06-16 15:50:31.435,1044587,R_Hip,0.0431,0.0113,1.002,0.28,-1.58,1.78,-18.14,27.62,-31.45,0.93759,-0.004028,-0.04178,-0.345164,0.0,0.0,0.0,0,0
2026-06-16 15:50:31.436,1044771,L_Shank,0.0013,-0.0312,0.9887,1.74,-1.19,-0.19,4.51,1.67,-17.47,0.975219,-0.003113,-0.025422,0.219672,0.0,0.0,0.0,0,0
2026-06-16 15:50:31.437,1044607,R_Hip,0.053,0.0035,0.9958,0.27,-1.57,1.79,-17.05,29.08,-32.13,0.93759,-0.004028,-0.04181,-0.345164,0.0,0.0,0.0,0,0
2026-06-16 15:50:31.439,1044627,R_Hip,0.0417,0.0064,0.9828,0.25,-1.57,1.78,-17.59,28.53,-31.96,0.93759,-0.003998,-0.04181,-0.345164,0.0,0.0,0.0,0,0
2026-06-16 15:50:31.440,1044647,R_Hip,0.0367,0.0089,0.9943,0.25,-1.58,1.77,0.0,0.0,0.0,0.93759,-0.004028,-0.04181,-0.345164,0.0,0.0,0.0,0,0
2026-06-16 15:50:31.442,1044592,R_Ankle,0.0189,-0.0096,0.9909,0.76,-1.71,-0.49,-15.19,29.72,-29.12,0.204413,0.088839,0.020234,0.974609,0.0,0.0,0.0,0,0
2026-06-16 15:50:31.444,1044612,R_Ankle,0.013,-0.0141,0.9914,0.76,-1.73,-0.49,0.0,0.0,0.0,0.204413,0.08887,0.020234,0.974609,0.0,0.0,0.0,0,0
2026-06-16 15:50:31.445,1044731,L_Hip,0.1171,-0.0646,1.0016,-4.15,4.51,2.96,-14.15,27.42,-22.28,0.97055,-0.043031,-0.062654,-0.228584,0.0,0.0,0.0,0,0
2026-06-16 15:50:31.446,1044632,R_Ankle,0.014,-0.0096,0.988,0.76,-1.73,-0.51,-15.36,29.88,-29.27,0.204413,0.08887,0.020234,0.974609,0.0,0.0,0.0,0,0
2026-06-16 15:50:31.447,1044751,L_Hip,0.12,-0.0759,0.9846,-4.16,4.49,2.96,0.0,0.0,0.0,0.97055,-0.043001,-0.062654,-0.228584,0.0,0.0,0.0,0,0
2026-06-16 15:50:31.448,1044652,R_Ankle,0.0233,-0.0131,1.0096,0.76,-1.72,-0.5,-16.03,28.9,-28.04,0.204413,0.0889,0.020234,0.974609,0.0,0.0,0.0,0,0
2026-06-16 15:50:31.449,1044771,L_Hip,0.121,-0.0749,0.9904,-4.14,4.51,2.96,-13.65,27.59,-21.85,0.97055,-0.04297,-0.062654,-0.228584,0.0,0.0,0.0,0,0
2026-06-16 15:50:31.451,1044594,R_Shank,0.0409,0.698,1.0023,-0.08,-1.45,-8.42,-16.78,26.44,-22.28,0.924192,0.035493,-0.020234,0.379681,0.0,0.0,0.0,0,0
2026-06-16 15:50:31.452,1044791,L_Hip,0.118,-0.0622,0.9885,-4.15,4.52,2.96,-14.83,27.41,-21.97,0.97055,-0.04294,-0.062654,-0.228584,0.0,0.0,0.0,0,0
2026-06-16 15:50:31.453,1044614,R_Shank,0.0404,1.5984,1.0066,-0.09,-1.46,-8.41,0.0,0.0,0.0,0.924192,0.035493,-0.020203,0.379681,0.0,0.0,0.0,0,0
2026-06-16 15:50:31.454,1044736,L_Shank,-0.0035,-0.0219,0.9906,1.76,-1.19,-0.21,2.94,1.5,-17.6,0.975219,-0.003113,-0.025422,0.219672,0.0,0.0,0.0,0,0
2026-06-16 15:50:31.455,1044634,R_Shank,0.0345,2.2392,1.0119,-0.09,-1.45,-8.41,-15.78,26.76,-21.69,0.924192,0.035463,-0.020203,0.379711,0.0,0.0,0.0,0,0
2026-06-16 15:50:31.456,1044756,L_Shank,0.0047,-0.0253,0.9868,1.75,-1.19,-0.2,0.0,0.0,0.0,0.975219,-0.003113,-0.025391,0.219672,0.0,0.0,0.0,0,0
2026-06-16 15:50:31.458,1044654,R_Shank,0.038,2.2392,1.0152,-0.09,-1.46,-8.42,-15.27,26.59,-21.54,0.924192,0.035463,-0.020173,0.379681,0.0,0.0,0.0,0,0
2026-06-16 15:50:31.459,1044776,L_Shank,0.0057,-0.0165,0.9998,1.75,-1.17,-0.18,3.97,1.15,-16.36,0.975219,-0.003082,-0.025391,0.219703,0.0,0.0,0.0,0,0
2026-06-16 15:50:31.460,1044612,R_Hip,0.0372,0.0089,0.9914,0.25,-1.58,1.78,-17.59,28.53,-31.28,0.93759,-0.004028,-0.04178,-0.345164,0.0,0.0,0.0,0,0
2026-06-16 15:50:31.461,1044796,L_Shank,-0.003,-0.0268,0.9868,1.74,-1.17,-0.19,2.4,2.67,-15.9,0.975219,-0.003082,-0.025422,0.219703,0.0,0.0,0.0,0,0
2026-06-16 15:50:31.463,1044632,R_Hip,0.0471,0.004,0.9991,0.28,-1.58,1.79,-17.78,29.08,-31.79,0.93759,-0.004028,-0.041749,-0.345164,0.0,0.0,0.0,0,0
2026-06-16 15:50:31.463,1044744,L_Ankle,0.1423,0.0129,0.9822,5.41,-0.83,-10.3,-39.06,-0.7,-39.03,0.94879,0.042665,-0.073977,0.304025,0.0,0.0,0.0,0,0
2026-06-16 15:50:31.465,1044652,R_Hip,0.0491,0.0089,0.9914,0.29,-1.58,1.78,0.0,0.0,0.0,0.93759,-0.004028,-0.041749,-0.345164,0.0,0.0,0.0,0,0
2026-06-16 15:50:31.465,1044764,L_Ankle,0.1379,0.007,0.9707,5.41,-0.83,-10.31,0.0,0.0,0.0,0.94882,0.042695,-0.073946,0.304025,0.0,0.0,0.0,0,0
2026-06-16 15:50:31.467,1044672,R_Hip,0.0451,0.0093,0.9799,0.28,-1.58,1.78,-17.05,29.45,-32.14,0.93759,-0.004028,-0.041749,-0.345164,0.0,0.0,0.0,0,0
2026-06-16 15:50:31.468,1044784,L_Ankle,0.1447,0.008,0.9904,5.41,-0.82,-10.31,-38.36,-2.13,-40.39,0.94882,0.042665,-0.073946,0.304025,0.0,0.0,0.0,0,0
2026-06-16 15:50:31.469,1044804,L_Ankle,0.1339,0.0158,0.9942,5.41,-0.82,-10.29,-39.19,-2.65,-38.53,0.94882,0.042665,-0.073946,0.304025,0.0,0.0,0.0,0,0
2026-06-16 15:50:31.471,1044754,L_Hip,0.1171,-0.0661,0.9788,-4.15,4.5,2.96,-14.46,28.07,-22.85,0.97055,-0.04297,-0.062654,-0.228584,0.0,0.0,0.0,0,0
2026-06-16 15:50:31.473,1044774,L_Hip,0.1136,-0.07,0.9938,-4.15,4.51,2.97,0.0,0.0,0.0,0.97055,-0.04297,-0.062624,-0.228584,0.0,0.0,0.0,0,0
2026-06-16 15:50:31.474,1044794,L_Hip,0.1102,-0.0759,0.9885,-4.16,4.51,2.96,-13.12,27.13,-23.74,0.970519,-0.04297,-0.062624,-0.228584,0.0,0.0,0.0,0,0
2026-06-16 15:50:31.476,1044814,L_Hip,0.1205,-0.073,0.9851,-4.16,4.51,2.97,-14.83,26.77,-22.55,0.97055,-0.04294,-0.062624,-0.228584,0.0,0.0,0.0,0,0
2026-06-16 15:50:31.485,1044637,R_Hip,0.0436,0.0059,0.9871,0.27,-1.58,1.77,-18.69,28.17,-32.31,0.93759,-0.003998,-0.04178,-0.345164,0.0,0.0,0.0,0,0
2026-06-16 15:50:31.486,1044657,R_Hip,0.0451,0.0089,0.9866,0.29,-1.57,1.77,-18.14,29.09,-32.82,0.93759,-0.003998,-0.041749,-0.345164,0.0,0.0,0.0,0,0
2026-06-16 15:50:31.488,1044677,R_Hip,0.0441,0.0113,0.9914,0.27,-1.57,1.77,0.0,0.0,0.0,0.93759,-0.003998,-0.041749,-0.345164,0.0,0.0,0.0,0,0
2026-06-16 15:50:31.489,1044697,R_Hip,0.052,0.0059,0.9962,0.28,-1.55,1.79,-17.05,28.72,-32.82,0.93759,-0.003998,-0.041749,-0.345164,0.0,0.0,0.0,0,0
2026-06-16 15:50:31.500,1044786,L_Shank,0.0008,-0.0244,0.9748,1.75,-1.18,-0.19,2.41,3.03,-17.15,0.975219,-0.003082,-0.025391,0.219703,0.0,0.0,0.0,0,0
2026-06-16 15:50:31.501,1044806,L_Shank,-0.0015,-0.018,1.0022,1.74,-1.19,-0.19,0.0,0.0,0.0,0.975219,-0.003082,-0.025391,0.219703,0.0,0.0,0.0,0,0
2026-06-16 15:50:31.503,1044826,L_Shank,0.0091,-0.0151,0.9892,1.75,-1.18,-0.2,1.89,2.17,-16.98,0.975219,-0.003082,-0.025391,0.219703,0.0,0.0,0.0,0,0
2026-06-16 15:50:31.505,1044846,L_Shank,-0.003,-0.019,0.9873,1.74,-1.19,-0.19,3.45,2.0,-16.53,0.975219,-0.003082,-0.025391,0.219703,0.0,0.0,0.0,0,0
2026-06-16 15:50:31.507,1044789,L_Ankle,0.1486,0.0153,0.9861,5.41,-0.83,-10.3,-40.31,-1.57,-41.27,0.94882,0.042665,-0.073946,0.304025,0.0,0.0,0.0,0,0
2026-06-16 15:50:31.509,1044660,R_Ankle,0.0165,-0.0166,0.999,0.76,-1.72,-0.49,-17.05,30.81,-28.69,0.204413,0.0889,0.020234,0.974609,0.0,0.0,0.0,0,0
2026-06-16 15:50:31.509,1044809,L_Ankle,0.1393,0.0105,0.9813,5.41,-0.83,-10.31,-38.7,-2.13,-40.05,0.94882,0.042665,-0.073946,0.304025,0.0,0.0,0.0,0,0
2026-06-16 15:50:31.511,1044829,L_Ankle,0.1374,0.0109,0.988,5.43,-0.81,-10.3,0.0,0.0,0.0,0.94882,0.042634,-0.073946,0.304025,0.0,0.0,0.0,0,0
2026-06-16 15:50:31.511,1044680,R_Ankle,0.013,-0.0106,0.9986,0.76,-1.73,-0.49,-16.54,30.33,-28.52,0.204413,0.08887,0.020203,0.974609,0.0,0.0,0.0,0,0
2026-06-16 15:50:31.513,1044700,R_Ankle,0.0062,-0.0136,1.0153,0.76,-1.73,-0.48,0.0,0.0,0.0,0.204413,0.08887,0.020203,0.974609,0.0,0.0,0.0,0,0
2026-06-16 15:50:31.514,1044849,L_Ankle,0.1374,0.0149,0.9755,5.42,-0.83,-10.31,-38.86,-1.59,-38.86,0.94882,0.042634,-0.073946,0.304025,0.0,0.0,0.0,0,0
2026-06-16 15:50:31.516,1044720,R_Ankle,0.0091,-0.0072,1.001,0.77,-1.73,-0.48,-16.72,30.18,-29.29,0.204413,0.088839,0.020234,0.974609,0.0,0.0,0.0,0,0
2026-06-16 15:50:31.516,1044799,L_Hip,0.1166,-0.071,0.9982,-4.16,4.51,2.98,-15.48,27.72,-22.84,0.97055,-0.04297,-0.062593,-0.228584,0.0,0.0,0.0,0,0
2026-06-16 15:50:31.518,1044662,R_Hip,0.0451,0.0118,1.001,0.28,-1.56,1.77,-17.78,28.35,-32.82,0.93759,-0.003998,-0.041749,-0.345164,0.0,0.0,0.0,0,0
2026-06-16 15:50:31.518,1044819,L_Hip,0.1195,-0.0646,0.9929,-4.16,4.51,2.98,0.0,0.0,0.0,0.97055,-0.04297,-0.062593,-0.228584,0.0,0.0,0.0,0,0
2026-06-16 15:50:31.520,1044682,R_Hip,0.0451,0.0001,0.9823,0.27,-1.56,1.77,-17.77,28.35,-31.79,0.93759,-0.003998,-0.041719,-0.345164,0.0,0.0,0.0,0,0
2026-06-16 15:50:31.521,1044839,L_Hip,0.1166,-0.0749,0.9856,-4.13,4.51,2.97,-13.97,27.91,-22.13,0.97055,-0.04297,-0.062563,-0.228584,0.0,0.0,0.0,0,0
2026-06-16 15:50:31.523,1044702,R_Hip,0.0431,0.0103,0.9755,0.26,-1.56,1.77,0.0,0.0,0.0,0.93759,-0.003998,-0.041719,-0.345164,0.0,0.0,0.0,0,0
2026-06-16 15:50:31.523,1044859,L_Hip,0.1112,-0.0739,0.9987,-4.16,4.51,2.97,-13.32,26.96,-22.14,0.97055,-0.04294,-0.062563,-0.228584,0.0,0.0,0.0,0,0
2026-06-16 15:50:31.526,1044722,R_Hip,0.0451,0.0113,1.0006,0.26,-1.59,1.77,-19.42,29.27,-32.65,0.93759,-0.003998,-0.041719,-0.345164,0.0,0.0,0.0,0,0
2026-06-16 15:50:31.527,1044811,L_Shank,0.0023,-0.0229,0.9916,1.75,-1.19,-0.21,3.63,2.51,-17.0,0.975219,-0.003082,-0.025391,0.219703,0.0,0.0,0.0,0,0
2026-06-16 15:50:31.529,1044831,L_Shank,0.0023,-0.019,0.9988,1.76,-1.18,-0.21,0.0,0.0,0.0,0.975219,-0.003052,-0.025361,0.219703,0.0,0.0,0.0,0,0
2026-06-16 15:50:31.531,1044682,R_Ankle,0.0135,-0.023,0.9976,0.76,-1.72,-0.48,-16.55,29.39,-29.13,0.204413,0.088839,0.020234,0.974609,0.0,0.0,0.0,0,0
2026-06-16 15:50:31.532,1044851,L_Shank,0.0023,-0.0156,0.9902,1.75,-1.17,-0.2,2.58,2.84,-16.37,0.975219,-0.003052,-0.025361,0.219703,0.0,0.0,0.0,0,0
2026-06-16 15:50:31.534,1044702,R_Ankle,0.0179,-0.0131,0.9938,0.77,-1.73,-0.48,-16.71,31.14,-29.3,0.204382,0.088839,0.020234,0.974609,0.0,0.0,0.0,0,0
2026-06-16 15:50:31.535,1044871,L_Shank,0.0033,-0.017,0.9887,1.75,-1.18,-0.19,2.93,2.17,-16.99,0.975219,-0.003082,-0.025361,0.219703,0.0,0.0,0.0,0,0
2026-06-16 15:50:31.537,1044722,R_Ankle,0.0155,-0.0151,1.0153,0.77,-1.72,-0.5,0.0,0.0,0.0,0.204413,0.08887,0.020234,0.974609,0.0,0.0,0.0,0,0
2026-06-16 15:50:31.539,1044742,R_Ankle,0.0233,-0.0101,0.9938,0.75,-1.72,-0.5,-15.53,30.03,-29.12,0.204413,0.08887,0.020203,0.974609,0.0,0.0,0.0,0,0
2026-06-16 15:50:31.542,1044685,R_Shank,0.0365,-0.3316,1.0056,-0.09,-1.45,-8.42,-15.95,26.6,-21.23,0.924192,0.035463,-0.020173,0.379681,0.0,0.0,0.0,0,0
2026-06-16 15:50:31.545,1044705,R_Shank,0.0375,-2.6436,1.0157,-0.1,-1.46,-8.41,0.0,0.0,0.0,0.924192,0.035432,-0.020173,0.379711,0.0,0.0,0.0,0,0
2026-06-16 15:50:31.547,1044834,L_Ankle,0.1447,0.0139,0.9798,5.42,-0.83,-10.3,-38.51,-2.3,-39.2,0.94882,0.042665,-0.073977,0.304025,0.0,0.0,0.0,0,0
2026-06-16 15:50:31.548,1044725,R_Shank,0.0419,1.5984,1.0167,-0.09,-1.48,-8.42,-16.09,25.77,-22.59,0.924192,0.035432,-0.020173,0.379711,0.0,0.0,0.0,0,0
2026-06-16 15:50:31.550,1044854,L_Ankle,0.1442,0.0085,0.9808,5.42,-0.82,-10.29,-37.5,-0.91,-40.2,0.94882,0.042665,-0.073977,0.304025,0.0,0.0,0.0,0,0
2026-06-16 15:50:31.550,1044745,R_Shank,0.0384,-0.9728,1.01,-0.09,-1.46,-8.41,-15.61,26.92,-21.84,0.924192,0.035432,-0.020203,0.379711,0.0,0.0,0.0,0,0
2026-06-16 15:50:31.552,1044874,L_Ankle,0.1442,0.0129,0.9827,5.41,-0.83,-10.29,0.0,0.0,0.0,0.94882,0.042695,-0.073977,0.304025,0.0,0.0,0.0,0,0
2026-06-16 15:50:31.554,1044894,L_Ankle,0.1413,0.0129,0.9822,5.41,-0.83,-10.32,-40.1,-2.46,-40.08,0.94882,0.042665,-0.073977,0.304025,0.0,0.0,0.0,0,0
2026-06-16 15:50:31.555,1044707,R_Shank,0.0384,3.2692,0.9922,-0.09,-1.45,-8.41,-16.75,25.45,-22.59,0.924192,0.035432,-0.020173,0.379711,0.0,0.0,0.0,0,0
2026-06-16 15:50:31.558,1044844,L_Hip,0.1229,-0.0715,0.9866,-4.16,4.51,2.95,-14.65,27.9,-22.12,0.97055,-0.04294,-0.062563,-0.228584,0.0,0.0,0.0,0,0
2026-06-16 15:50:31.558,1044727,R_Shank,0.0414,3.1396,0.9984,-0.09,-1.47,-8.42,0.0,0.0,0.0,0.924192,0.035432,-0.020203,0.379711,0.0,0.0,0.0,0,0
2026-06-16 15:50:31.560,1044864,L_Hip,0.1283,-0.0725,0.972,-4.15,4.5,2.96,0.0,0.0,0.0,0.97055,-0.04294,-0.062532,-0.228584,0.0,0.0,0.0,0,0
2026-06-16 15:50:31.561,1044747,R_Shank,0.0429,-1.6136,0.998,-0.09,-1.45,-8.41,-15.58,25.92,-22.75,0.924192,0.035432,-0.020203,0.379711,0.0,0.0,0.0,0,0
2026-06-16 15:50:31.563,1044884,L_Hip,0.1239,-0.0744,0.9958,-4.16,4.51,2.97,-14.32,26.62,-22.71,0.97055,-0.04294,-0.062532,-0.228584,0.0,0.0,0.0,0,0
2026-06-16 15:50:31.564,1044767,R_Shank,0.0365,-1.7432,1.0186,-0.09,-1.45,-8.42,-15.59,26.25,-22.75,0.924192,0.035401,-0.020203,0.379711,0.0,0.0,0.0,0,0
2026-06-16 15:50:31.566,1044904,L_Hip,0.1117,-0.0838,0.9914,-4.16,4.5,2.97,-15.16,27.41,-22.55,0.97055,-0.04294,-0.062563,-0.228584,0.0,0.0,0.0,0,0
2026-06-16 15:50:31.566,1044712,R_Hip,0.0451,0.0089,0.9948,0.27,-1.58,1.77,-19.05,29.27,-32.99,0.93759,-0.003998,-0.041749,-0.345164,0.0,0.0,0.0,0,0
2026-06-16 15:50:31.568,1044732,R_Hip,0.0456,0.0059,0.9982,0.25,-1.57,1.77,-17.78,27.99,-32.13,0.93759,-0.003998,-0.041749,-0.345164,0.0,0.0,0.0,0,0
2026-06-16 15:50:31.569,1044752,R_Hip,0.0545,0.003,0.9866,0.27,-1.59,1.77,0.0,0.0,0.0,0.93759,-0.003998,-0.041749,-0.345164,0.0,0.0,0.0,0,0
2026-06-16 15:50:31.571,1044772,R_Hip,0.0451,0.0064,0.9871,0.27,-1.58,1.77,-17.05,27.99,-34.53,0.93759,-0.004028,-0.04178,-0.345164,0.0,0.0,0.0,0,0
2026-06-16 15:50:31.574,1044861,L_Shank,0.0086,-0.0278,0.9945,1.76,-1.18,-0.19,3.8,2.0,-16.53,0.975219,-0.003082,-0.025361,0.219703,0.0,0.0,0.0,0,0
2026-06-16 15:50:31.575,1044727,R_Ankle,0.0121,-0.0176,0.9856,0.74,-1.73,-0.49,-16.72,29.55,-29.29,0.204413,0.08887,0.020203,0.974609,0.0,0.0,0.0,0,0
2026-06-16 15:50:31.577,1044881,L_Shank,-0.005,-0.019,0.9791,1.76,-1.17,-0.19,2.59,1.16,-17.29,0.975219,-0.003052,-0.025361,0.219703,0.0,0.0,0.0,0,0
2026-06-16 15:50:31.578,1044747,R_Ankle,0.017,-0.0037,1.0019,0.76,-1.74,-0.49,-16.38,30.19,-29.29,0.204413,0.08887,0.020203,0.974609,0.0,0.0,0.0,0,0
2026-06-16 15:50:31.579,1044901,L_Shank,0.0072,-0.02,0.9911,1.77,-1.18,-0.2,0.0,0.0,0.0,0.975219,-0.003082,-0.025361,0.219703,0.0,0.0,0.0,0,0
2026-06-16 15:50:31.580,1044767,R_Ankle,0.0165,-0.0116,1.011,0.77,-1.71,-0.5,0.0,0.0,0.0,0.204413,0.08887,0.020234,0.974609,0.0,0.0,0.0,0,0
2026-06-16 15:50:31.582,1044921,L_Shank,0.0076,-0.0248,0.9786,1.75,-1.18,-0.19,1.35,1.65,-16.19,0.975219,-0.003052,-0.025361,0.219703,0.0,0.0,0.0,0,0
2026-06-16 15:50:31.582,1044787,R_Ankle,0.0155,-0.0141,1.0077,0.77,-1.72,-0.48,-16.22,29.4,-30.05,0.204382,0.08887,0.020234,0.974609,0.0,0.0,0.0,0,0
2026-06-16 15:50:31.584,1044729,R_Shank,0.0335,1.3392,1.009,-0.09,-1.47,-8.42,-15.93,25.93,-21.84,0.924192,0.035401,-0.020203,0.379711,0.0,0.0,0.0,0,0
2026-06-16 15:50:31.586,1044749,R_Shank,0.0326,2.3688,1.01,-0.1,-1.45,-8.41,0.0,0.0,0.0,0.924192,0.035401,-0.020203,0.379711,0.0,0.0,0.0,0,0
2026-06-16 15:50:31.588,1044769,R_Shank,0.0409,1.2096,0.9951,-0.09,-1.47,-8.41,-16.42,25.12,-21.39,0.924192,0.035432,-0.020173,0.379711,0.0,0.0,0.0,0,0
2026-06-16 15:50:31.591,1044789,R_Shank,0.035,2.3688,1.0023,-0.09,-1.45,-8.42,-14.94,26.26,-20.64,0.924192,0.035401,-0.020173,0.379711,0.0,0.0,0.0,0,0
2026-06-16 15:50:31.592,1044879,L_Ankle,0.1388,0.0163,0.9904,5.41,-0.83,-10.31,-38.34,-2.49,-39.71,0.94882,0.042665,-0.073946,0.304025,0.0,0.0,0.0,0,0
2026-06-16 15:50:31.593,1044737,R_Hip,0.056,0.001,1.0121,0.26,-1.58,1.77,-17.05,29.08,-32.48,0.93759,-0.004059,-0.041749,-0.345164,0.0,0.0,0.0,0,0
2026-06-16 15:50:31.595,1044899,L_Ankle,0.1457,0.0139,0.9846,5.41,-0.83,-10.3,-38.87,-0.53,-38.52,0.94882,0.042634,-0.073946,0.304025,0.0,0.0,0.0,0,0
2026-06-16 15:50:31.596,1044757,R_Hip,0.0466,0.0147,0.9885,0.27,-1.57,1.79,-17.77,27.62,-31.11,0.93759,-0.004059,-0.041749,-0.345195,0.0,0.0,0.0,0,0
2026-06-16 15:50:31.596,1044919,L_Ankle,0.1364,0.0168,0.9851,5.41,-0.82,-10.3,0.0,0.0,0.0,0.94882,0.042604,-0.073946,0.304025,0.0,0.0,0.0,0,0
2026-06-16 15:50:31.597,1044777,R_Hip,0.0377,0.0064,0.9799,0.27,-1.58,1.79,0.0,0.0,0.0,0.93759,-0.004089,-0.041749,-0.345195,0.0,0.0,0.0,0,0
2026-06-16 15:50:31.599,1044939,L_Ankle,0.1403,0.0168,0.9846,5.41,-0.81,-10.32,-38.88,-2.3,-40.23,0.94882,0.042604,-0.073916,0.304025,0.0,0.0,0.0,0,0
2026-06-16 15:50:31.600,1044797,R_Hip,0.0367,0.0191,0.9856,0.26,-1.58,1.77,-17.77,29.08,-31.45,0.93759,-0.004059,-0.041749,-0.345195,0.0,0.0,0.0,0,0
2026-06-16 15:50:31.602,1044749,R_Ankle,0.015,-0.0161,1.0077,0.77,-1.73,-0.49,-16.72,30.18,-28.98,0.204382,0.08887,0.020234,0.974609,0.0,0.0,0.0,0,0
2026-06-16 15:50:31.602,1044889,L_Hip,0.12,-0.0749,0.9803,-4.15,4.51,2.97,-14.14,27.1,-22.86,0.97055,-0.04294,-0.062563,-0.228584,0.0,0.0,0.0,0,0
2026-06-16 15:50:31.605,1044769,R_Ankle,0.013,-0.0111,1.0034,0.77,-1.73,-0.48,-16.72,30.82,-29.61,0.204382,0.08887,0.020234,0.974609,0.0,0.0,0.0,0,0
2026-06-16 15:50:31.605,1044909,L_Hip,0.1229,-0.0681,0.9788,-4.16,4.51,2.97,0.0,0.0,0.0,0.97055,-0.04297,-0.062532,-0.228584,0.0,0.0,0.0,0,0
2026-06-16 15:50:31.607,1044789,R_Ankle,0.0101,-0.0101,1.0101,0.76,-1.72,-0.5,0.0,0.0,0.0,0.204382,0.08887,0.020203,0.974609,0.0,0.0,0.0,0,0
2026-06-16 15:50:31.608,1044929,L_Hip,0.118,-0.0671,0.9885,-4.16,4.51,2.97,-14.99,27.25,-22.41,0.97055,-0.04297,-0.062532,-0.228584,0.0,0.0,0.0,0,0
2026-06-16 15:50:31.609,1044809,R_Ankle,0.0145,-0.0116,1.0058,0.75,-1.72,-0.48,-16.21,30.03,-29.75,0.204382,0.088839,0.020203,0.974609,0.0,0.0,0.0,0,0
2026-06-16 15:50:31.610,1044949,L_Hip,0.12,-0.0681,0.9841,-4.16,4.5,2.97,-12.3,26.65,-22.74,0.97055,-0.04297,-0.062532,-0.228584,0.0,0.0,0.0,0,0
2026-06-16 15:50:31.614,1044901,L_Ankle,0.1388,0.0178,0.9842,5.41,-0.83,-10.3,-39.55,-2.29,-38.88,0.94882,0.042604,-0.073916,0.304025,0.0,0.0,0.0,0,0
2026-06-16 15:50:31.617,1044921,L_Ankle,0.13,0.0036,0.9861,5.4,-0.83,-10.3,-38.54,-1.96,-40.9,0.94882,0.042604,-0.073946,0.304025,0.0,0.0,0.0,0,0
2026-06-16 15:50:31.618,1044941,L_Ankle,0.1428,0.0207,0.9938,5.41,-0.83,-10.3,-39.58,-1.23,-39.56,0.94882,0.042604,-0.073916,0.304056,0.0,0.0,0.0,0,0
2026-06-16 15:50:31.620,1044902,L_Ankle,0.1442,0.0075,0.9875,5.42,-0.83,-10.31,0.0,0.0,0.0,0.94882,0.042573,-0.073916,0.304056,0.0,0.0,0.0,0,0
2026-06-16 15:50:31.635,1044787,R_Hip,0.0333,0.003,0.9924,0.28,-1.58,1.78,-16.13,28.53,-31.28,0.937559,-0.004028,-0.041749,-0.345195,0.0,0.0,0.0,0,0
2026-06-16 15:50:31.637,1044807,R_Hip,0.0397,0.0001,0.9943,0.26,-1.58,1.78,-18.32,27.8,-31.96,0.93759,-0.004028,-0.04178,-0.345195,0.0,0.0,0.0,0,0
2026-06-16 15:50:31.638,1044827,R_Hip,0.0397,0.0059,0.9967,0.27,-1.58,1.77,0.0,0.0,0.0,0.93759,-0.004028,-0.041749,-0.345195,0.0,0.0,0.0,0,0
2026-06-16 15:50:31.640,1044847,R_Hip,0.0387,-0.0057,0.99,0.28,-1.58,1.79,-17.96,29.63,-32.99,0.93759,-0.004028,-0.041719,-0.345195,0.0,0.0,0.0,0,0
2026-06-16 15:50:31.645,1044797,R_Shank,0.0434,-1.8728,1.0032,-0.09,-1.46,-8.42,-16.42,25.12,-21.69,0.924192,0.035401,-0.020142,0.379711,0.0,0.0,0.0,0,0
2026-06-16 15:50:31.647,1044934,L_Hip,0.1259,-0.07,0.9962,-4.16,4.52,2.96,-13.15,26.8,-22.0,0.97055,-0.04294,-0.062532,-0.228584,0.0,0.0,0.0,0,0
