python_time,esp32_hw_time,sensor_name,ax,ay,az,gx,gy,gz,mx,my,mz,q0,q1,q2,q3,quat_roll,quat_pitch,quat_yaw,is_paused_flag,t_pose_flag
2026-06-16 17:31:58.723,77998,L_Hip,0.1087,-0.0754,0.9953,31.51,-12.8,-1.54,-41.39,0.45,-18.28,0.994751,-0.022889,-0.069826,0.071017,0.0,0.0,0.0,0,0
2026-06-16 17:31:58.726,78018,L_Hip,0.1073,-0.0754,0.989,31.49,-12.8,-1.54,-42.44,-0.21,-17.1,0.994751,-0.022889,-0.069826,0.071017,0.0,0.0,0.0,0,0
2026-06-16 17:31:58.728,78038,L_Hip,0.1141,-0.0808,0.9861,31.48,-12.8,-1.54,-41.4,0.77,-17.41,0.994751,-0.022889,-0.069796,0.071017,0.0,0.0,0.0,0,0
2026-06-16 17:31:58.730,78058,L_Hip,0.1107,-0.0676,0.9846,31.48,-12.81,-1.55,-40.91,0.61,-16.69,0.994751,-0.022889,-0.069796,0.071017,0.0,0.0,0.0,0,0
2026-06-16 17:31:58.774,78048,L_Hip,0.1171,-0.0695,0.9933,31.5,-12.8,-1.57,-41.42,0.12,-16.83,0.994751,-0.022889,-0.069826,0.071017,0.0,0.0,0.0,0,0
2026-06-16 17:31:58.775,78068,L_Hip,0.1092,-0.0744,0.9837,31.5,-12.81,-1.57,0.0,0.0,0.0,0.994751,-0.022858,-0.069826,0.071017,0.0,0.0,0.0,0,0
2026-06-16 17:31:58.778,78088,L_Hip,0.1185,-0.0705,0.9851,31.49,-12.8,-1.56,-40.74,0.13,-17.13,0.994751,-0.022889,-0.069826,0.071017,0.0,0.0,0.0,0,0
2026-06-16 17:31:58.780,78108,L_Hip,0.1087,-0.0715,0.9924,31.5,-12.81,-1.56,-41.1,-0.51,-16.54,0.994751,-0.022889,-0.069826,0.070986,0.0,0.0,0.0,0,0
2026-06-16 17:31:58.799,78073,L_Hip,0.1151,-0.0685,0.9812,31.49,-12.81,-1.54,-39.58,-0.64,-17.29,0.994751,-0.022858,-0.069826,0.070986,0.0,0.0,0.0,0,0
2026-06-16 17:31:58.801,78093,L_Hip,0.1097,-0.0671,0.9793,31.49,-12.81,-1.56,0.0,0.0,0.0,0.994751,-0.022858,-0.069826,0.071017,0.0,0.0,0.0,0,0
2026-06-16 17:31:58.803,78113,L_Hip,0.1136,-0.0676,0.9919,31.48,-12.82,-1.54,-40.26,-0.01,-15.83,0.994751,-0.022889,-0.069796,0.071017,0.0,0.0,0.0,0,0
2026-06-16 17:31:58.805,78133,L_Hip,0.1205,-0.0739,0.9667,31.49,-12.78,-1.55,-41.24,-0.02,-18.14,0.994751,-0.022889,-0.069796,0.071017,0.0,0.0,0.0,0,0
2026-06-16 17:31:58.874,78148,L_Hip,0.1136,-0.0759,0.9846,31.48,-12.8,-1.54,-40.75,0.46,-16.55,0.994751,-0.022889,-0.069796,0.071017,0.0,0.0,0.0,0,0
2026-06-16 17:31:58.876,78168,L_Hip,0.1171,-0.0695,0.9822,31.48,-12.8,-1.54,0.0,0.0,0.0,0.994751,-0.022889,-0.069796,0.070986,0.0,0.0,0.0,0,0
2026-06-16 17:31:58.879,78188,L_Hip,0.1161,-0.073,1.0088,31.49,-12.81,-1.55,-42.56,0.59,-18.7,0.994751,-0.022858,-0.069765,0.070986,0.0,0.0,0.0,0,0
2026-06-16 17:31:58.881,78208,L_Hip,0.1136,-0.0779,0.9764,31.49,-12.8,-1.54,-41.25,0.61,-16.69,0.994751,-0.022858,-0.069765,0.070986,0.0,0.0,0.0,0,0
2026-06-16 17:31:58.898,78173,L_Hip,0.1063,-0.073,0.9924,31.5,-12.8,-1.54,-41.57,1.25,-16.69,0.994751,-0.022858,-0.069796,0.070986,0.0,0.0,0.0,0,0
2026-06-16 17:31:58.900,78193,L_Hip,0.1122,-0.0676,0.9866,31.49,-12.8,-1.54,0.0,0.0,0.0,0.994751,-0.022858,-0.069826,0.070986,0.0,0.0,0.0,0,0
2026-06-16 17:31:58.903,78213,L_Hip,0.1136,-0.071,0.987,31.49,-12.8,-1.54,-41.11,-0.51,-16.25,0.994751,-0.022828,-0.069826,0.070986,0.0,0.0,0.0,0,0
2026-06-16 17:31:58.905,78233,L_Hip,0.1136,-0.0735,0.9793,31.47,-12.8,-1.56,-41.25,-0.03,-17.27,0.994751,-0.022828,-0.069826,0.070986,0.0,0.0,0.0,0,0
2026-06-16 17:31:58.948,78223,L_Hip,0.1117,-0.0744,0.9803,31.5,-12.8,-1.55,-41.42,-0.19,-17.41,0.994751,-0.022858,-0.069826,0.070986,0.0,0.0,0.0,0,0
2026-06-16 17:31:58.950,78243,L_Hip,0.118,-0.0754,0.9933,31.49,-12.8,-1.55,0.0,0.0,0.0,0.994751,-0.022858,-0.069826,0.070986,0.0,0.0,0.0,0,0
2026-06-16 17:31:58.953,78263,L_Hip,0.1117,-0.0808,0.9788,31.49,-12.8,-1.54,-40.72,0.46,-18.0,0.994751,-0.022828,-0.069826,0.070986,0.0,0.0,0.0,0,0
2026-06-16 17:31:58.955,78283,L_Hip,0.1122,-0.0744,0.989,31.5,-12.8,-1.55,-41.43,0.12,-16.54,0.994751,-0.022828,-0.069826,0.070986,0.0,0.0,0.0,0,0
2026-06-16 17:31:58.974,78248,L_Hip,0.1117,-0.0828,0.9943,31.49,-12.8,-1.55,-40.6,-0.34,-16.11,0.994751,-0.022828,-0.069857,0.070986,0.0,0.0,0.0,0,0
2026-06-16 17:31:58.976,78268,L_Hip,0.1136,-0.0779,0.9909,31.49,-12.81,-1.55,-40.42,-0.17,-16.55,0.994751,-0.022828,-0.069826,0.070986,0.0,0.0,0.0,0,0
2026-06-16 17:31:58.978,78288,L_Hip,0.1185,-0.0725,0.9938,31.5,-12.81,-1.55,0.0,0.0,0.0,0.994751,-0.022828,-0.069826,0.070986,0.0,0.0,0.0,0,0
2026-06-16 17:31:58.980,78308,L_Hip,0.1171,-0.0739,0.9909,31.51,-12.8,-1.55,-41.94,-0.36,-16.97,0.994751,-0.022828,-0.069826,0.070986,0.0,0.0,0.0,0,0
2026-06-16 17:31:58.999,78273,L_Hip,0.1146,-0.0769,0.9992,31.5,-12.8,-1.57,-40.88,0.94,-17.86,0.994751,-0.022828,-0.069826,0.070986,0.0,0.0,0.0,0,0
2026-06-16 17:31:59.001,78293,L_Hip,0.1151,-0.0744,0.987,31.48,-12.8,-1.57,-41.07,-0.18,-18.29,0.994751,-0.022828,-0.069826,0.070986,0.0,0.0,0.0,0,0
2026-06-16 17:31:59.003,78313,L_Hip,0.1082,-0.071,0.9827,31.48,-12.81,-1.55,0.0,0.0,0.0,0.994751,-0.022828,-0.069826,0.070986,0.0,0.0,0.0,0,0
2026-06-16 17:31:59.006,78333,L_Hip,0.1166,-0.0661,0.9958,31.49,-12.8,-1.54,-40.72,1.1,-17.13,0.994751,-0.022858,-0.069796,0.070986,0.0,0.0,0.0,0,0
2026-06-16 17:31:59.048,78323,L_Hip,0.1141,-0.0808,0.9856,31.49,-12.8,-1.56,-40.77,-0.5,-16.55,0.994751,-0.022858,-0.069826,0.070986,0.0,0.0,0.0,0,0
2026-06-16 17:31:59.051,78343,L_Hip,0.1151,-0.072,0.9885,31.5,-12.79,-1.56,-40.75,0.45,-16.26,0.994751,-0.022858,-0.069796,0.070956,0.0,0.0,0.0,0,0
2026-06-16 17:31:59.053,78363,L_Hip,0.1097,-0.07,0.9924,31.5,-12.8,-1.56,0.0,0.0,0.0,0.994751,-0.022889,-0.069826,0.070956,0.0,0.0,0.0,0,0
2026-06-16 17:31:59.055,78383,L_Hip,0.1229,-0.0764,0.9914,31.5,-12.8,-1.56,-41.26,-0.03,-16.69,0.994751,-0.022858,-0.069826,0.070956,0.0,0.0,0.0,0,0
2026-06-16 17:31:59.073,78348,L_Hip,0.1136,-0.0754,0.9764,31.5,-12.8,-1.55,-41.77,0.11,-16.53,0.994751,-0.022858,-0.069826,0.070956,0.0,0.0,0.0,0,0
2026-06-16 17:31:59.076,78368,L_Hip,0.1112,-0.073,0.99,31.49,-12.8,-1.54,-42.77,-0.54,-17.97,0.994751,-0.022858,-0.069826,0.070956,0.0,0.0,0.0,0,0
2026-06-16 17:31:59.078,78388,L_Hip,0.1122,-0.072,0.9929,31.48,-12.81,-1.55,0.0,0.0,0.0,0.994751,-0.022889,-0.069826,0.070956,0.0,0.0,0.0,0,0
2026-06-16 17:31:59.080,78408,L_Hip,0.1151,-0.0735,1.0006,31.5,-12.81,-1.54,-41.25,0.28,-16.69,0.994751,-0.022858,-0.069826,0.070956,0.0,0.0,0.0,0,0
2026-06-16 17:31:59.148,78422,L_Hip,0.1161,-0.0695,0.9846,31.48,-12.8,-1.57,-41.58,-0.35,-17.84,0.994751,-0.022858,-0.069826,0.070925,0.0,0.0,0.0,0,0
2026-06-16 17:31:59.150,78442,L_Hip,0.1122,-0.0793,0.9837,31.49,-12.81,-1.54,-40.92,0.29,-16.69,0.994751,-0.022889,-0.069857,0.070925,0.0,0.0,0.0,0,0
2026-06-16 17:31:59.152,78462,L_Hip,0.1136,-0.0749,0.9938,31.5,-12.81,-1.54,-42.8,-0.86,-16.22,0.994751,-0.022858,-0.069826,0.070925,0.0,0.0,0.0,0,0
2026-06-16 17:31:59.154,78482,L_Hip,0.1136,-0.0735,0.9817,31.5,-12.8,-1.53,0.0,0.0,0.0,0.994751,-0.022858,-0.069826,0.070925,0.0,0.0,0.0,0,0
2026-06-16 17:31:59.173,78448,L_Hip,0.1166,-0.0892,0.9943,31.5,-12.8,-1.55,-41.58,-0.03,-17.55,0.994751,-0.022889,-0.069857,0.070925,0.0,0.0,0.0,0,0
2026-06-16 17:31:59.176,78468,L_Hip,0.1126,-0.0705,0.9749,31.49,-12.8,-1.54,-42.29,-1.01,-16.67,0.994751,-0.022889,-0.069826,0.070925,0.0,0.0,0.0,0,0
2026-06-16 17:31:59.178,78488,L_Hip,0.1136,-0.0749,0.9827,31.51,-12.82,-1.57,-41.59,0.28,-16.68,0.994751,-0.022889,-0.069826,0.070925,0.0,0.0,0.0,0,0
2026-06-16 17:31:59.180,78508,L_Hip,0.121,-0.0739,0.9929,31.5,-12.8,-1.55,0.0,0.0,0.0,0.994751,-0.022889,-0.069826,0.070925,0.0,0.0,0.0,0,0
2026-06-16 17:31:59.198,78473,L_Hip,0.1161,-0.0764,0.9812,31.48,-12.81,-1.54,-41.92,0.6,-16.97,0.994751,-0.022889,-0.069826,0.070925,0.0,0.0,0.0,0,0
2026-06-16 17:31:59.201,78493,L_Hip,0.1097,-0.0725,0.9778,31.51,-12.8,-1.55,-41.57,0.28,-18.14,0.994751,-0.022889,-0.069857,0.070925,0.0,0.0,0.0,0,0
2026-06-16 17:31:59.203,78513,L_Hip,0.1082,-0.0754,0.9943,31.51,-12.8,-1.55,-41.25,0.61,-16.4,0.994751,-0.022889,-0.069857,0.070925,0.0,0.0,0.0,0,0
2026-06-16 17:31:59.206,78533,L_Hip,0.1136,-0.0666,0.972,31.49,-12.79,-1.54,-42.95,-1.35,-17.82,0.994751,-0.022919,-0.069826,0.070925,0.0,0.0,0.0,0,0
2026-06-16 17:31:59.248,78523,L_Hip,0.1058,-0.0872,0.9812,31.49,-12.8,-1.54,-41.76,-0.2,-17.41,0.994751,-0.022889,-0.069826,0.070956,0.0,0.0,0.0,0,0
2026-06-16 17:31:59.251,78543,L_Hip,0.1249,-0.071,1.005,31.5,-12.8,-1.54,0.0,0.0,0.0,0.994751,-0.022919,-0.069826,0.070956,0.0,0.0,0.0,0,0
2026-06-16 17:31:59.253,78563,L_Hip,0.1176,-0.0774,0.9812,31.51,-12.8,-1.55,-42.27,0.27,-16.67,0.994751,-0.022919,-0.069857,0.070956,0.0,0.0,0.0,0,0
2026-06-16 17:31:59.256,78583,L_Hip,0.1097,-0.0843,0.9933,31.5,-12.81,-1.56,-40.09,-0.49,-16.85,0.994751,-0.022919,-0.069857,0.070956,0.0,0.0,0.0,0,0
2026-06-16 17:31:59.299,78573,L_Hip,0.1136,-0.0764,0.9904,31.49,-12.8,-1.54,-40.6,-0.66,-16.4,0.994751,-0.022919,-0.069887,0.070956,0.0,0.0,0.0,0,0
2026-06-16 17:31:59.301,78593,L_Hip,0.1063,-0.0754,0.9938,31.49,-12.8,-1.54,0.0,0.0,0.0,0.994751,-0.022919,-0.069918,0.070956,0.0,0.0,0.0,0,0
2026-06-16 17:31:59.304,78613,L_Hip,0.1019,-0.0774,0.9895,31.5,-12.8,-1.56,-42.62,-1.02,-16.95,0.994751,-0.022919,-0.069918,0.070956,0.0,0.0,0.0,0,0
2026-06-16 17:31:59.306,78633,L_Hip,0.1112,-0.0725,0.9808,31.48,-12.82,-1.54,-41.27,0.28,-15.82,0.994751,-0.022919,-0.069887,0.070956,0.0,0.0,0.0,0,0
2026-06-16 17:31:59.324,78598,L_Hip,0.1176,-0.0735,0.9919,31.49,-12.8,-1.54,-42.42,0.11,-17.69,0.994751,-0.022919,-0.069887,0.070956,0.0,0.0,0.0,0,0
2026-06-16 17:31:59.326,78618,L_Hip,0.1195,-0.0725,0.9924,31.48,-12.8,-1.54,0.0,0.0,0.0,0.994751,-0.022919,-0.069887,0.070956,0.0,0.0,0.0,0,0
2026-06-16 17:31:59.328,78638,L_Hip,0.1215,-0.0823,0.9933,31.49,-12.82,-1.55,-40.92,-0.34,-16.98,0.994751,-0.022919,-0.069918,0.070956,0.0,0.0,0.0,0,0
2026-06-16 17:31:59.330,78658,L_Hip,0.1146,-0.0725,0.9822,31.49,-12.81,-1.55,-41.08,0.13,-17.42,0.994751,-0.022919,-0.069918,0.070956,0.0,0.0,0.0,0,0
2026-06-16 17:31:59.373,78648,L_Hip,0.1112,-0.072,0.9812,31.48,-12.81,-1.55,-42.26,-0.04,-17.25,0.994751,-0.022919,-0.069918,0.070956,0.0,0.0,0.0,0,0
2026-06-16 17:31:59.376,78668,L_Hip,0.1176,-0.0744,0.9895,31.5,-12.81,-1.55,0.0,0.0,0.0,0.994751,-0.022919,-0.069918,0.070956,0.0,0.0,0.0,0,0
2026-06-16 17:31:59.378,78688,L_Hip,0.1225,-0.0685,0.9875,31.48,-12.8,-1.56,-41.78,-0.84,-17.11,0.994751,-0.022919,-0.069887,0.070956,0.0,0.0,0.0,0,0
2026-06-16 17:31:59.380,78708,L_Hip,0.1156,-0.0749,0.9793,31.5,-12.8,-1.56,-42.44,-0.53,-17.39,0.994751,-0.022919,-0.069887,0.070956,0.0,0.0,0.0,0,0
2026-06-16 17:31:59.398,78673,L_Hip,0.1225,-0.0789,0.9783,31.5,-12.8,-1.54,-42.1,0.43,-16.24,0.994751,-0.022919,-0.069887,0.070956,0.0,0.0,0.0,0,0
2026-06-16 17:31:59.401,78693,L_Hip,0.1126,-0.0764,0.9783,31.49,-12.8,-1.55,0.0,0.0,0.0,0.994751,-0.022919,-0.069887,0.070956,0.0,0.0,0.0,0,0
2026-06-16 17:31:59.403,78713,L_Hip,0.1161,-0.0779,0.9909,31.48,-12.8,-1.55,-41.74,1.4,-16.54,0.994751,-0.02295,-0.069887,0.070956,0.0,0.0,0.0,0,0
2026-06-16 17:31:59.405,78733,L_Hip,0.1215,-0.071,0.9962,31.5,-12.81,-1.56,-40.89,0.62,-17.86,0.994751,-0.02298,-0.069918,0.070956,0.0,0.0,0.0,0,0
2026-06-16 17:31:59.448,78723,L_Hip,0.1171,-0.0872,0.9972,31.49,-12.8,-1.55,-40.4,0.14,-17.43,0.994751,-0.02298,-0.069918,0.070986,0.0,0.0,0.0,0,0
2026-06-16 17:31:59.451,78743,L_Hip,0.1136,-0.0744,1.004,31.48,-12.8,-1.55,-42.1,-0.2,-17.4,0.994751,-0.02298,-0.069887,0.070986,0.0,0.0,0.0,0,0
2026-06-16 17:31:59.453,78763,L_Hip,0.1107,-0.0793,0.9866,31.48,-12.8,-1.54,0.0,0.0,0.0,0.994751,-0.02298,-0.069887,0.070986,0.0,0.0,0.0,0,0
2026-06-16 17:31:59.456,78783,L_Hip,0.1092,-0.0735,0.9817,31.5,-12.8,-1.56,-41.42,0.12,-16.83,0.994751,-0.02295,-0.069887,0.070956,0.0,0.0,0.0,0,0
2026-06-16 17:31:59.523,78798,L_Hip,0.1092,-0.0735,0.9929,31.5,-12.8,-1.55,-42.1,-0.2,-17.11,0.994751,-0.02298,-0.069887,0.070986,0.0,0.0,0.0,0,0
2026-06-16 17:31:59.526,78818,L_Hip,0.1082,-0.0671,0.9982,31.5,-12.8,-1.54,-41.45,-0.84,-16.54,0.994751,-0.023011,-0.069918,0.070986,0.0,0.0,0.0,0,0
2026-06-16 17:31:59.528,78838,L_Hip,0.1082,-0.0798,0.987,31.48,-12.8,-1.54,0.0,0.0,0.0,0.994751,-0.023041,-0.069918,0.070986,0.0,0.0,0.0,0,0
2026-06-16 17:31:59.530,78858,L_Hip,0.1112,-0.0784,0.9895,31.49,-12.8,-1.55,-41.06,0.45,-18.0,0.994751,-0.023041,-0.069918,0.070986,0.0,0.0,0.0,0,0
2026-06-16 17:31:59.549,78823,L_Hip,0.1156,-0.0793,0.9895,31.5,-12.8,-1.55,-41.6,-0.68,-17.26,0.994751,-0.023041,-0.069918,0.070986,0.0,0.0,0.0,0,0
2026-06-16 17:31:59.551,78843,L_Hip,0.1195,-0.0705,1.0001,31.48,-12.8,-1.55,-40.42,-0.82,-17.42,0.994751,-0.023072,-0.069918,0.070986,0.0,0.0,0.0,0,0
2026-06-16 17:31:59.553,78863,L_Hip,0.1166,-0.0754,0.9827,31.5,-12.8,-1.54,0.0,0.0,0.0,0.994751,-0.023072,-0.069918,0.070986,0.0,0.0,0.0,0,0
2026-06-16 17:31:59.556,78883,L_Hip,0.1063,-0.0784,0.9933,31.48,-12.8,-1.54,-41.94,0.27,-16.1,0.994751,-0.023072,-0.069918,0.070986,0.0,0.0,0.0,0,0
2026-06-16 17:31:59.599,78873,L_Hip,0.1112,-0.0754,0.9793,31.49,-12.8,-1.55,-42.11,0.11,-16.24,0.994751,-0.023072,-0.069918,0.070986,0.0,0.0,0.0,0,0
2026-06-16 17:31:59.601,78893,L_Hip,0.1244,-0.0739,1.0025,31.48,-12.8,-1.54,-40.9,-0.02,-18.15,0.994751,-0.023072,-0.069887,0.070986,0.0,0.0,0.0,0,0
2026-06-16 17:31:59.603,78913,L_Hip,0.1205,-0.0739,0.9933,31.48,-12.8,-1.54,0.0,0.0,0.0,0.994751,-0.023072,-0.069857,0.070986,0.0,0.0,0.0,0,0
2026-06-16 17:31:59.605,78933,L_Hip,0.1122,-0.0685,0.9895,31.5,-12.8,-1.54,-41.59,-0.35,-17.26,0.994751,-0.023072,-0.069887,0.070986,0.0,0.0,0.0,0,0
2026-06-16 17:31:59.624,78898,L_Hip,0.1185,-0.0744,0.9822,31.5,-12.8,-1.54,-41.6,-0.68,-17.55,0.994751,-0.023103,-0.069887,0.070986,0.0,0.0,0.0,0,0
2026-06-16 17:31:59.626,78918,L_Hip,0.1087,-0.072,0.9778,31.5,-12.81,-1.54,-42.09,0.75,-16.82,0.994751,-0.023103,-0.069857,0.070986,0.0,0.0,0.0,0,0
2026-06-16 17:31:59.628,78938,L_Hip,0.1107,-0.0725,0.9783,31.49,-12.8,-1.54,-41.41,0.44,-17.12,0.994751,-0.023103,-0.069887,0.070986,0.0,0.0,0.0,0,0
2026-06-16 17:31:59.630,78958,L_Hip,0.118,-0.0759,0.9875,31.49,-12.8,-1.55,0.0,0.0,0.0,0.994751,-0.023133,-0.069887,0.070986,0.0,0.0,0.0,0,0
2026-06-16 17:31:59.649,78923,L_Hip,0.1185,-0.0774,0.9798,31.49,-12.8,-1.55,-41.78,-0.52,-16.53,0.994751,-0.023133,-0.069887,0.070986,0.0,0.0,0.0,0,0
2026-06-16 17:31:59.651,78943,L_Hip,0.1151,-0.0739,0.9914,31.5,-12.8,-1.55,-40.76,-1.14,-17.42,0.994751,-0.023133,-0.069857,0.070986,0.0,0.0,0.0,0,0
2026-06-16 17:31:59.653,78963,L_Hip,0.12,-0.073,0.9793,31.48,-12.8,-1.54,-40.76,-0.18,-16.55,0.994751,-0.023164,-0.069887,0.070986,0.0,0.0,0.0,0,0
2026-06-16 17:31:59.656,78983,L_Hip,0.1146,-0.073,0.9977,31.49,-12.8,-1.55,0.0,0.0,0.0,0.994751,-0.023133,-0.069918,0.070986,0.0,0.0,0.0,0,0
2026-06-16 17:31:59.673,78948,L_Hip,0.1141,-0.071,0.99,31.49,-12.81,-1.53,-41.6,-0.04,-16.39,0.994751,-0.023133,-0.069918,0.070986,0.0,0.0,0.0,0,0
2026-06-16 17:31:59.676,78968,L_Hip,0.1185,-0.0715,0.974,31.5,-12.81,-1.55,-41.1,-1.15,-17.41,0.994751,-0.023133,-0.069918,0.070986,0.0,0.0,0.0,0,0
2026-06-16 17:31:59.678,78988,L_Hip,0.1176,-0.0725,0.987,31.48,-12.8,-1.55,-41.58,-0.35,-17.84,0.994751,-0.023133,-0.069918,0.071017,0.0,0.0,0.0,0,0
2026-06-16 17:31:59.681,79008,L_Hip,0.1146,-0.0744,0.9832,31.49,-12.81,-1.54,-43.13,-0.87,-16.8,0.994751,-0.023133,-0.069887,0.071017,0.0,0.0,0.0,0,0
2026-06-16 17:31:59.724,78998,L_Hip,0.1176,-0.0735,0.987,31.5,-12.8,-1.55,-41.44,-0.2,-15.96,0.99472,-0.023133,-0.069918,0.071017,0.0,0.0,0.0,0,0
2026-06-16 17:31:59.726,79018,L_Hip,0.1215,-0.0685,0.9919,31.49,-12.8,-1.54,-40.44,-0.82,-16.26,0.99472,-0.023164,-0.069918,0.071017,0.0,0.0,0.0,0,0
2026-06-16 17:31:59.729,79038,L_Hip,0.1092,-0.0754,0.9904,31.49,-12.79,-1.54,-40.94,-0.99,-16.98,0.99472,-0.023164,-0.069918,0.071017,0.0,0.0,0.0,0,0
2026-06-16 17:31:59.731,79058,L_Hip,0.1146,-0.0715,0.9832,31.48,-12.82,-1.55,-42.3,-0.69,-16.09,0.99472,-0.023164,-0.069918,0.071017,0.0,0.0,0.0,0,0
2026-06-16 17:31:59.799,79073,L_Hip,0.1073,-0.0774,0.9895,31.49,-12.8,-1.55,-41.07,1.1,-16.84,0.99472,-0.023164,-0.069918,0.071017,0.0,0.0,0.0,0,0
2026-06-16 17:31:59.802,79093,L_Hip,0.1141,-0.0735,0.9875,31.48,-12.8,-1.54,0.0,0.0,0.0,0.99472,-0.023194,-0.069918,0.071047,0.0,0.0,0.0,0,0
2026-06-16 17:31:59.804,79113,L_Hip,0.1205,-0.0764,0.9885,31.48,-12.8,-1.55,-41.75,-0.52,-17.99,0.99472,-0.023164,-0.069948,0.071047,0.0,0.0,0.0,0,0
2026-06-16 17:31:59.806,79133,L_Hip,0.1087,-0.0744,0.9875,31.48,-12.81,-1.55,-41.11,-0.51,-16.25,0.99472,-0.023194,-0.069948,0.071047,0.0,0.0,0.0,0,0
2026-06-16 17:31:59.823,79098,L_Hip,0.1205,-0.0754,0.988,31.49,-12.8,-1.55,-42.1,0.43,-16.24,0.99472,-0.023164,-0.069948,0.071047,0.0,0.0,0.0,0,0
2026-06-16 17:31:59.826,79118,L_Hip,0.1185,-0.0808,0.9861,31.48,-12.8,-1.54,0.0,0.0,0.0,0.99472,-0.023164,-0.069979,0.071047,0.0,0.0,0.0,0,0
2026-06-16 17:31:59.828,79138,L_Hip,0.1092,-0.0656,0.989,31.5,-12.8,-1.55,-41.76,-0.52,-17.69,0.99472,-0.023164,-0.069948,0.071047,0.0,0.0,0.0,0,0
2026-06-16 17:31:59.831,79158,L_Hip,0.1126,-0.07,0.9769,31.5,-12.8,-1.56,-41.91,0.6,-17.55,0.99472,-0.023164,-0.069948,0.071047,0.0,0.0,0.0,0,0
2026-06-16 17:31:59.850,79123,L_Hip,0.1254,-0.0769,0.9885,31.48,-12.81,-1.55,-41.27,-0.67,-16.98,0.99472,-0.023164,-0.069979,0.071047,0.0,0.0,0.0,0,0
2026-06-16 17:31:59.852,79143,L_Hip,0.1195,-0.0725,0.99,31.49,-12.8,-1.55,0.0,0.0,0.0,0.99472,-0.023194,-0.069948,0.071047,0.0,0.0,0.0,0,0
2026-06-16 17:31:59.855,79163,L_Hip,0.1077,-0.0695,0.9774,31.5,-12.8,-1.54,-41.42,-0.83,-17.99,0.99472,-0.023194,-0.069948,0.071047,0.0,0.0,0.0,0,0
2026-06-16 17:31:59.857,79183,L_Hip,0.1156,-0.073,0.989,31.48,-12.81,-1.54,-40.41,-0.17,-17.43,0.99472,-0.023225,-0.069948,0.071047,0.0,0.0,0.0,0,0
2026-06-16 17:31:59.874,79148,L_Hip,0.1058,-0.0774,0.9914,31.5,-12.8,-1.57,-41.75,0.12,-17.41,0.99472,-0.023225,-0.069948,0.071047,0.0,0.0,0.0,0,0
2026-06-16 17:31:59.876,79168,L_Hip,0.1156,-0.07,0.9866,31.48,-12.8,-1.55,0.0,0.0,0.0,0.99472,-0.023225,-0.069948,0.071047,0.0,0.0,0.0,0,0
2026-06-16 17:31:59.879,79188,L_Hip,0.1126,-0.0725,0.9866,31.49,-12.79,-1.55,-41.39,0.13,-18.57,0.99472,-0.023255,-0.069979,0.071047,0.0,0.0,0.0,0,0
2026-06-16 17:31:59.882,79208,L_Hip,0.1097,-0.073,0.9919,31.49,-12.8,-1.57,-41.42,0.44,-16.83,0.99472,-0.023225,-0.069979,0.071047,0.0,0.0,0.0,0,0
2026-06-16 17:31:59.924,79198,L_Hip,0.1141,-0.0793,0.9774,31.48,-12.8,-1.54,-41.09,-0.19,-16.83,0.99472,-0.023225,-0.069948,0.071047,0.0,0.0,0.0,0,0
2026-06-16 17:31:59.927,79218,L_Hip,0.1136,-0.0725,0.9793,31.49,-12.8,-1.55,0.0,0.0,0.0,0.99472,-0.023225,-0.069979,0.071017,0.0,0.0,0.0,0,0
2026-06-16 17:31:59.929,79238,L_Hip,0.1141,-0.0779,0.9904,31.49,-12.79,-1.55,-42.44,-0.21,-16.81,0.99472,-0.023225,-0.070009,0.071047,0.0,0.0,0.0,0,0
2026-06-16 17:31:59.931,79258,L_Hip,0.1156,-0.0789,0.9803,31.49,-12.8,-1.55,-40.75,0.45,-16.26,0.99472,-0.023225,-0.069979,0.071047,0.0,0.0,0.0,0,0
2026-06-16 17:31:59.974,79248,L_Hip,0.121,-0.0661,0.9788,31.5,-12.8,-1.54,-41.08,-0.5,-18.0,0.99472,-0.023194,-0.069979,0.071047,0.0,0.0,0.0,0,0
2026-06-16 17:31:59.976,79268,L_Hip,0.1171,-0.0656,0.9972,31.49,-12.8,-1.56,-41.09,-0.51,-17.41,0.99472,-0.023194,-0.069948,0.071047,0.0,0.0,0.0,0,0
2026-06-16 17:31:59.978,79288,L_Hip,0.1058,-0.0749,0.9832,31.51,-12.8,-1.54,0.0,0.0,0.0,0.99472,-0.023194,-0.069948,0.071047,0.0,0.0,0.0,0,0
2026-06-16 17:31:59.981,79308,L_Hip,0.1097,-0.0681,0.9851,31.5,-12.8,-1.56,-40.08,0.14,-16.27,0.99472,-0.023194,-0.069948,0.071047,0.0,0.0,0.0,0,0
2026-06-16 17:32:00.024,79298,L_Hip,0.1185,-0.0764,0.9817,31.49,-12.8,-1.54,-41.06,0.45,-18.0,0.99472,-0.023194,-0.069918,0.071047,0.0,0.0,0.0,0,0
2026-06-16 17:32:00.026,79318,L_Hip,0.118,-0.0685,0.9967,31.5,-12.8,-1.53,-41.27,-0.99,-16.97,0.99472,-0.023225,-0.069918,0.071047,0.0,0.0,0.0,0,0
2026-06-16 17:32:00.029,79338,L_Hip,0.1107,-0.0764,0.9856,31.51,-12.8,-1.53,0.0,0.0,0.0,0.99472,-0.023225,-0.069918,0.071047,0.0,0.0,0.0,0,0
2026-06-16 17:32:00.032,79358,L_Hip,0.119,-0.0808,1.0011,31.49,-12.81,-1.55,-42.27,0.26,-16.38,0.99472,-0.023255,-0.069918,0.071047,0.0,0.0,0.0,0,0
2026-06-16 17:32:00.049,79323,L_Hip,0.1161,-0.0774,0.9914,31.48,-12.8,-1.55,-42.44,-0.21,-16.81,0.99472,-0.023255,-0.069918,0.071047,0.0,0.0,0.0,0,0
2026-06-16 17:32:00.051,79343,L_Hip,0.1136,-0.071,0.9764,31.48,-12.8,-1.55,-41.93,-0.04,-17.26,0.99472,-0.023225,-0.069918,0.071047,0.0,0.0,0.0,0,0
2026-06-16 17:32:00.053,79363,L_Hip,0.1117,-0.0764,0.9933,31.48,-12.79,-1.54,0.0,0.0,0.0,0.99472,-0.023225,-0.069948,0.071047,0.0,0.0,0.0,0,0
2026-06-16 17:32:00.056,79383,L_Hip,0.1053,-0.0749,0.9856,31.51,-12.8,-1.56,-41.08,0.13,-17.42,0.99472,-0.023194,-0.069918,0.071047,0.0,0.0,0.0,0,0
2026-06-16 17:32:00.073,79348,L_Hip,0.1166,-0.0744,0.99,31.5,-12.8,-1.57,-41.1,-0.83,-17.41,0.99472,-0.023194,-0.069918,0.071047,0.0,0.0,0.0,0,0
2026-06-16 17:32:00.076,79368,L_Hip,0.1151,-0.0764,0.9783,31.5,-12.8,-1.54,-41.07,-0.18,-18.0,0.99472,-0.023194,-0.069918,0.071047,0.0,0.0,0.0,0,0
2026-06-16 17:32:00.078,79388,L_Hip,0.122,-0.073,0.9817,31.48,-12.79,-1.54,-42.08,0.11,-17.98,0.99472,-0.023164,-0.069918,0.071047,0.0,0.0,0.0,0,0
2026-06-16 17:32:00.080,79408,L_Hip,0.1171,-0.0749,0.988,31.49,-12.8,-1.56,0.0,0.0,0.0,0.99472,-0.023164,-0.069918,0.071047,0.0,0.0,0.0,0,0
2026-06-16 17:32:00.148,79423,L_Hip,0.1249,-0.0681,0.9962,31.5,-12.81,-1.57,-40.57,0.3,-16.99,0.99472,-0.023194,-0.069918,0.071047,0.0,0.0,0.0,0,0
2026-06-16 17:32:00.151,79443,L_Hip,0.1136,-0.0843,0.9929,31.49,-12.8,-1.56,-43.14,-0.87,-16.51,0.99472,-0.023225,-0.069918,0.071047,0.0,0.0,0.0,0,0
2026-06-16 17:32:00.153,79463,L_Hip,0.1146,-0.0764,0.989,31.48,-12.81,-1.56,0.0,0.0,0.0,0.99472,-0.023225,-0.069918,0.071047,0.0,0.0,0.0,0,0
2026-06-16 17:32:00.155,79483,L_Hip,0.1136,-0.073,0.988,31.5,-12.8,-1.54,-42.09,0.43,-16.82,0.99472,-0.023225,-0.069918,0.071047,0.0,0.0,0.0,0,0
2026-06-16 17:32:00.199,79473,L_Hip,0.1092,-0.0784,0.9929,31.5,-12.8,-1.55,-40.76,-0.82,-17.13,0.99472,-0.023255,-0.069887,0.071047,0.0,0.0,0.0,0,0
2026-06-16 17:32:00.201,79493,L_Hip,0.1215,-0.0793,0.9909,31.51,-12.8,-1.55,-41.74,0.76,-17.41,0.99472,-0.023225,-0.069887,0.071047,0.0,0.0,0.0,0,0
2026-06-16 17:32:00.204,79513,L_Hip,0.1073,-0.0622,0.9822,31.51,-12.81,-1.56,-41.61,-0.68,-16.68,0.99472,-0.023255,-0.069918,0.071047,0.0,0.0,0.0,0,0
2026-06-16 17:32:00.206,79533,L_Hip,0.1117,-0.0705,0.9788,31.49,-12.8,-1.54,-41.25,0.61,-16.69,0.99472,-0.023255,-0.069948,0.071047,0.0,0.0,0.0,0,0
2026-06-16 17:32:00.249,79523,L_Hip,0.1112,-0.0725,0.9832,31.48,-12.8,-1.55,-41.75,0.44,-16.83,0.99472,-0.023255,-0.069948,0.071047,0.0,0.0,0.0,0,0
2026-06-16 17:32:00.252,79543,L_Hip,0.1195,-0.0685,1.0025,31.49,-12.8,-1.54,-40.73,-0.17,-18.0,0.99472,-0.023225,-0.069948,0.071047,0.0,0.0,0.0,0,0
2026-06-16 17:32:00.254,79563,L_Hip,0.12,-0.0695,0.9817,31.48,-12.81,-1.54,-40.74,0.13,-17.13,0.99472,-0.023255,-0.069918,0.071047,0.0,0.0,0.0,0,0
2026-06-16 17:32:00.257,79583,L_Hip,0.1136,-0.0744,1.003,31.5,-12.79,-1.56,-41.75,-0.52,-17.99,0.99472,-0.023255,-0.069948,0.071047,0.0,0.0,0.0,0,0
2026-06-16 17:32:00.274,79548,L_Hip,0.1161,-0.0779,0.9972,31.49,-12.82,-1.56,-41.24,-0.02,-18.14,0.99472,-0.023255,-0.069948,0.071047,0.0,0.0,0.0,0,0
2026-06-16 17:32:00.276,79568,L_Hip,0.1122,-0.0789,0.988,31.5,-12.81,-1.55,-39.93,-0.33,-16.12,0.99472,-0.023255,-0.069948,0.071047,0.0,0.0,0.0,0,0
2026-06-16 17:32:00.278,79588,L_Hip,0.1087,-0.0744,0.9832,31.49,-12.8,-1.55,0.0,0.0,0.0,0.99472,-0.023255,-0.069948,0.071047,0.0,0.0,0.0,0,0
2026-06-16 17:32:00.280,79608,L_Hip,0.1185,-0.07,0.9962,31.49,-12.8,-1.54,-40.6,-0.02,-16.12,0.99472,-0.023225,-0.069948,0.071047,0.0,0.0,0.0,0,0
2026-06-16 17:32:00.298,79573,L_Hip,0.1176,-0.0744,0.9977,31.47,-12.81,-1.56,-41.95,-1.65,-17.54,0.99472,-0.023225,-0.069948,0.071047,0.0,0.0,0.0,0,0
2026-06-16 17:32:00.300,79593,L_Hip,0.1117,-0.0735,0.989,31.5,-12.82,-1.54,0.0,0.0,0.0,0.99472,-0.023225,-0.069918,0.071047,0.0,0.0,0.0,0,0
2026-06-16 17:32:00.303,79613,L_Hip,0.1205,-0.0754,0.9929,31.49,-12.8,-1.55,-42.92,-0.05,-18.41,0.99472,-0.023225,-0.069948,0.071047,0.0,0.0,0.0,0,0
2026-06-16 17:32:00.305,79633,L_Hip,0.1053,-0.072,0.9895,31.48,-12.8,-1.55,-42.46,-1.5,-17.1,0.99472,-0.023225,-0.069948,0.071047,0.0,0.0,0.0,0,0
2026-06-16 17:32:00.323,79598,L_Hip,0.1102,-0.0808,0.9914,31.5,-12.8,-1.55,-42.1,-0.52,-17.4,0.99472,-0.023225,-0.069948,0.071078,0.0,0.0,0.0,0,0
2026-06-16 17:32:00.326,79618,L_Hip,0.121,-0.0661,0.9851,31.49,-12.8,-1.55,0.0,0.0,0.0,0.99472,-0.023194,-0.069948,0.071078,0.0,0.0,0.0,0,0
2026-06-16 17:32:00.328,79638,L_Hip,0.1239,-0.0676,0.9895,31.5,-12.82,-1.57,-41.07,0.45,-17.13,0.99472,-0.023194,-0.069979,0.071078,0.0,0.0,0.0,0,0
2026-06-16 17:32:00.330,79658,L_Hip,0.1126,-0.0695,0.9904,31.48,-12.8,-1.55,-40.41,0.14,-16.85,0.99472,-0.023225,-0.069948,0.071078,0.0,0.0,0.0,0,0
2026-06-16 17:32:00.373,79648,L_Hip,0.119,-0.0685,0.9793,31.49,-12.81,-1.53,-42.1,-0.52,-17.4,0.99472,-0.023225,-0.069948,0.071078,0.0,0.0,0.0,0,0
2026-06-16 17:32:00.375,79668,L_Hip,0.1185,-0.0676,1.0016,31.5,-12.81,-1.54,0.0,0.0,0.0,0.99472,-0.023194,-0.069948,0.071078,0.0,0.0,0.0,0,0
2026-06-16 17:32:00.378,79688,L_Hip,0.1205,-0.0739,0.9716,31.48,-12.8,-1.55,-42.43,0.75,-16.24,0.99472,-0.023194,-0.069948,0.071078,0.0,0.0,0.0,0,0
2026-06-16 17:32:00.380,79708,L_Hip,0.1126,-0.0661,0.9837,31.49,-12.8,-1.54,-41.78,-0.2,-15.95,0.99472,-0.023194,-0.069979,0.071078,0.0,0.0,0.0,0,0
2026-06-16 17:32:00.424,79697,L_Hip,0.1185,-0.07,0.9774,31.5,-12.81,-1.57,-41.09,-0.18,-17.12,0.99472,-0.023194,-0.069979,0.071078,0.0,0.0,0.0,0,0
2026-06-16 17:32:00.426,79717,L_Hip,0.1166,-0.0813,0.9778,31.49,-12.81,-1.56,0.0,0.0,0.0,0.99472,-0.023225,-0.069979,0.071078,0.0,0.0,0.0,0,0
2026-06-16 17:32:00.429,79737,L_Hip,0.1176,-0.0779,0.9875,31.49,-12.81,-1.55,-40.21,1.28,-17.58,0.99472,-0.023225,-0.069979,0.071078,0.0,0.0,0.0,0,0
2026-06-16 17:32:00.431,79757,L_Hip,0.1097,-0.0676,0.9866,31.49,-12.8,-1.57,-41.08,0.13,-17.42,0.99472,-0.023194,-0.070009,0.071078,0.0,0.0,0.0,0,0
2026-06-16 17:32:00.451,79723,L_Hip,0.1171,-0.0808,0.988,31.48,-12.8,-1.56,-42.27,-1.01,-17.83,0.99472,-0.023194,-0.070009,0.071078,0.0,0.0,0.0,0,0
2026-06-16 17:32:00.453,79743,L_Hip,0.1171,-0.0695,0.9885,31.5,-12.79,-1.54,-41.07,0.45,-17.13,0.99472,-0.023194,-0.070009,0.071078,0.0,0.0,0.0,0,0
2026-06-16 17:32:00.455,79763,L_Hip,0.1161,-0.0749,0.987,31.48,-12.8,-1.55,0.0,0.0,0.0,0.99472,-0.023164,-0.070009,0.071078,0.0,0.0,0.0,0,0
2026-06-16 17:32:00.458,79783,L_Hip,0.1156,-0.0774,0.9909,31.49,-12.8,-1.55,-43.11,-0.54,-17.38,0.99472,-0.023194,-0.07004,0.071078,0.0,0.0,0.0,0,0
2026-06-16 17:32:00.473,79748,L_Hip,0.1107,-0.0843,0.9846,31.48,-12.8,-1.55,-40.04,0.8,-18.02,0.99472,-0.023194,-0.07004,0.071078,0.0,0.0,0.0,0,0
2026-06-16 17:32:00.476,79768,L_Hip,0.119,-0.0602,0.99,31.5,-12.8,-1.56,-41.27,-0.67,-16.98,0.99472,-0.023164,-0.07007,0.071078,0.0,0.0,0.0,0,0
2026-06-16 17:32:00.478,79788,L_Hip,0.1225,-0.0676,0.9725,31.51,-12.8,-1.57,0.0,0.0,0.0,0.99472,-0.023194,-0.07007,0.071078,0.0,0.0,0.0,0,0
2026-06-16 17:32:00.480,79808,L_Hip,0.1073,-0.072,0.9929,31.48,-12.8,-1.56,-42.42,0.43,-17.4,0.99472,-0.023194,-0.070101,0.071078,0.0,0.0,0.0,0,0
2026-06-16 17:32:00.523,79798,L_Hip,0.1126,-0.0676,0.9938,31.48,-12.8,-1.54,-42.26,-0.04,-17.25,0.99472,-0.023194,-0.070101,0.071078,0.0,0.0,0.0,0,0
2026-06-16 17:32:00.526,79818,L_Hip,0.1151,-0.0754,0.9861,31.49,-12.79,-1.54,-41.57,0.93,-17.27,0.99472,-0.023194,-0.070101,0.071078,0.0,0.0,0.0,0,0
2026-06-16 17:32:00.528,79838,L_Hip,0.1082,-0.072,0.9851,31.5,-12.8,-1.55,0.0,0.0,0.0,0.99472,-0.023225,-0.070101,0.071078,0.0,0.0,0.0,0,0
2026-06-16 17:32:00.530,79858,L_Hip,0.1161,-0.0744,0.9992,31.47,-12.82,-1.54,-41.58,0.92,-16.69,0.99472,-0.023225,-0.070101,0.071078,0.0,0.0,0.0,0,0
2026-06-16 17:32:00.599,79873,L_Hip,0.1136,-0.0646,0.987,31.48,-12.8,-1.54,-41.25,0.61,-16.69,0.99472,-0.023225,-0.070101,0.071078,0.0,0.0,0.0,0,0
2026-06-16 17:32:00.601,79893,L_Hip,0.1146,-0.0656,0.9992,31.49,-12.8,-1.55,-42.43,0.42,-16.53,0.99472,-0.023225,-0.070101,0.071078,0.0,0.0,0.0,0,0
2026-06-16 17:32:00.604,79913,L_Hip,0.1166,-0.0622,0.9895,31.49,-12.8,-1.55,0.0,0.0,0.0,0.99472,-0.023225,-0.070101,0.071078,0.0,0.0,0.0,0,0
2026-06-16 17:32:00.606,79933,L_Hip,0.1171,-0.0744,0.987,31.49,-12.8,-1.56,-41.6,-0.36,-16.68,0.99472,-0.023225,-0.070132,0.071078,0.0,0.0,0.0,0,0
2026-06-16 17:32:00.674,79948,L_Hip,0.1156,-0.0833,0.9972,31.49,-12.81,-1.57,-40.38,0.79,-17.72,0.99472,-0.023194,-0.070101,0.071078,0.0,0.0,0.0,0,0
2026-06-16 17:32:00.676,79968,L_Hip,0.1112,-0.0646,0.9885,31.48,-12.8,-1.57,0.0,0.0,0.0,0.99472,-0.023194,-0.070101,0.071078,0.0,0.0,0.0,0,0
2026-06-16 17:32:00.678,79988,L_Hip,0.1176,-0.0789,0.987,31.48,-12.8,-1.56,-42.26,0.59,-16.67,0.99472,-0.023194,-0.070101,0.071078,0.0,0.0,0.0,0,0
2026-06-16 17:32:00.680,80008,L_Hip,0.1117,-0.073,0.9846,31.48,-12.79,-1.54,0.0,0.0,0.0,0.99472,-0.023194,-0.07007,0.071078,0.0,0.0,0.0,0,0
2026-06-16 17:32:00.699,79973,L_Hip,0.12,-0.0754,1.0016,31.5,-12.8,-1.57,-41.1,-0.51,-16.54,0.99472,-0.023194,-0.070101,0.071078,0.0,0.0,0.0,0,0
2026-06-16 17:32:00.701,79993,L_Hip,0.1126,-0.0784,0.9943,31.51,-12.8,-1.55,-41.24,0.29,-17.56,0.99472,-0.023194,-0.070101,0.071078,0.0,0.0,0.0,0,0
2026-06-16 17:32:00.703,80013,L_Hip,0.12,-0.071,0.9827,31.5,-12.81,-1.54,-41.28,-0.03,-15.81,0.99472,-0.023164,-0.07007,0.071078,0.0,0.0,0.0,0,0
2026-06-16 17:32:00.705,80033,L_Hip,0.1092,-0.0735,0.987,31.5,-12.8,-1.55,0.0,0.0,0.0,0.99472,-0.023133,-0.07007,0.071078,0.0,0.0,0.0,0,0
2026-06-16 17:32:00.723,79998,L_Hip,0.1136,-0.0823,0.9759,31.48,-12.81,-1.56,-42.6,-0.05,-17.25,0.99472,-0.023133,-0.070101,0.071078,0.0,0.0,0.0,0,0
2026-06-16 17:32:00.726,80018,L_Hip,0.1171,-0.0798,0.9783,31.48,-12.8,-1.56,-39.01,1.14,-18.9,0.99472,-0.023164,-0.070101,0.071078,0.0,0.0,0.0,0,0
2026-06-16 17:32:00.728,80038,L_Hip,0.1156,-0.0641,0.9832,31.49,-12.79,-1.55,-41.44,-1.48,-17.7,0.99472,-0.023164,-0.070101,0.071078,0.0,0.0,0.0,0,0
2026-06-16 17:32:00.731,80058,L_Hip,0.122,-0.0631,0.9846,31.49,-12.8,-1.55,-41.94,-0.04,-16.39,0.99472,-0.023194,-0.07007,0.071078,0.0,0.0,0.0,0,0
2026-06-16 17:32:00.749,80023,L_Hip,0.1171,-0.071,0.9924,31.49,-12.8,-1.54,-40.94,-1.31,-17.27,0.99472,-0.023194,-0.070101,0.071078,0.0,0.0,0.0,0,0
2026-06-16 17:32:00.751,80043,L_Hip,0.1185,-0.0725,0.9958,31.5,-12.8,-1.54,0.0,0.0,0.0,0.99472,-0.023194,-0.070101,0.071078,0.0,0.0,0.0,0,0
2026-06-16 17:32:00.753,80063,L_Hip,0.1136,-0.0774,0.9948,31.49,-12.8,-1.56,-42.11,-0.21,-16.53,0.99472,-0.023194,-0.070101,0.071078,0.0,0.0,0.0,0,0
2026-06-16 17:32:00.755,80083,L_Hip,0.1126,-0.0784,0.9919,31.48,-12.81,-1.54,-42.25,0.59,-17.26,0.99472,-0.023194,-0.070132,0.071078,0.0,0.0,0.0,0,0
2026-06-16 17:32:00.774,80048,L_Hip,0.1185,-0.071,0.9885,31.48,-12.81,-1.55,-41.4,0.13,-17.99,0.99472,-0.023194,-0.070132,0.071078,0.0,0.0,0.0,0,0
2026-06-16 17:32:00.776,80068,L_Hip,0.1087,-0.0725,0.9866,31.49,-12.8,-1.54,0.0,0.0,0.0,0.99472,-0.023194,-0.070132,0.071078,0.0,0.0,0.0,0,0
2026-06-16 17:32:00.778,80088,L_Hip,0.1087,-0.0784,0.9875,31.48,-12.8,-1.54,-40.72,1.1,-17.43,0.99472,-0.023225,-0.070162,0.071078,0.0,0.0,0.0,0,0
2026-06-16 17:32:00.781,80108,L_Hip,0.1166,-0.0695,0.9841,31.48,-12.8,-1.55,-41.26,-0.35,-16.98,0.99472,-0.023194,-0.070162,0.071078,0.0,0.0,0.0,0,0
2026-06-16 17:32:00.799,80073,L_Hip,0.1151,-0.0725,0.9861,31.49,-12.82,-1.54,-42.25,-0.68,-18.7,0.99472,-0.023164,-0.070162,0.071078,0.0,0.0,0.0,0,0
2026-06-16 17:32:00.801,80093,L_Hip,0.1112,-0.0725,0.9885,31.49,-12.8,-1.55,0.0,0.0,0.0,0.99472,-0.023194,-0.070162,0.071078,0.0,0.0,0.0,0,0
2026-06-16 17:32:00.803,80113,L_Hip,0.12,-0.0715,0.99,31.48,-12.8,-1.57,-40.92,-0.34,-17.27,0.99472,-0.023164,-0.070162,0.071078,0.0,0.0,0.0,0,0
2026-06-16 17:32:00.805,80133,L_Hip,0.1239,-0.0695,0.9885,31.48,-12.82,-1.56,-42.44,0.1,-16.52,0.99472,-0.023194,-0.070193,0.071078,0.0,0.0,0.0,0,0
2026-06-16 17:32:00.874,80148,L_Hip,0.119,-0.0739,0.9798,31.48,-12.8,-1.56,-40.91,0.62,-16.99,0.99472,-0.023194,-0.070193,0.071078,0.0,0.0,0.0,0,0
2026-06-16 17:32:00.876,80168,L_Hip,0.1171,-0.0725,0.9745,31.48,-12.81,-1.55,0.0,0.0,0.0,0.99472,-0.023164,-0.070193,0.071078,0.0,0.0,0.0,0,0
2026-06-16 17:32:00.878,80188,L_Hip,0.1185,-0.0769,0.9798,31.48,-12.82,-1.54,-41.42,-0.19,-17.12,0.99472,-0.023164,-0.070193,0.071078,0.0,0.0,0.0,0,0
2026-06-16 17:32:00.880,80208,L_Hip,0.1166,-0.07,0.9822,31.49,-12.8,-1.55,-41.12,-2.12,-17.41,0.99472,-0.023164,-0.070162,0.071078,0.0,0.0,0.0,0,0
2026-06-16 17:32:00.899,80173,L_Hip,0.1122,-0.0769,0.9837,31.49,-12.8,-1.57,-41.59,-0.35,-17.26,0.99472,-0.023164,-0.070162,0.071078,0.0,0.0,0.0,0,0
2026-06-16 17:32:00.901,80193,L_Hip,0.1171,-0.0774,0.9895,31.5,-12.81,-1.56,0.0,0.0,0.0,0.99472,-0.023164,-0.070193,0.071078,0.0,0.0,0.0,0,0
2026-06-16 17:32:00.903,80213,L_Hip,0.1107,-0.0744,0.9987,31.48,-12.81,-1.54,-41.42,0.12,-16.83,0.99472,-0.023164,-0.070193,0.071078,0.0,0.0,0.0,0,0
2026-06-16 17:32:00.905,80233,L_Hip,0.1185,-0.0656,0.987,31.48,-12.81,-1.54,-42.11,-0.21,-16.53,0.99472,-0.023164,-0.070193,0.071078,0.0,0.0,0.0,0,0
2026-06-16 17:32:00.923,80198,L_Hip,0.1136,-0.0764,0.9938,31.48,-12.8,-1.54,-42.11,-0.21,-16.53,0.99472,-0.023164,-0.070223,0.071078,0.0,0.0,0.0,0,0
2026-06-16 17:32:00.926,80218,L_Hip,0.1151,-0.0685,0.9774,31.49,-12.8,-1.54,-41.44,-0.84,-16.83,0.99472,-0.023194,-0.070193,0.071078,0.0,0.0,0.0,0,0
2026-06-16 17:32:00.928,80238,L_Hip,0.1205,-0.0784,0.9725,31.48,-12.8,-1.56,0.0,0.0,0.0,0.99472,-0.023194,-0.070223,0.071078,0.0,0.0,0.0,0,0
2026-06-16 17:32:00.930,80258,L_Hip,0.1269,-0.0754,0.9929,31.5,-12.8,-1.56,-41.74,0.76,-17.41,0.99472,-0.023194,-0.070254,0.071078,0.0,0.0,0.0,0,0
2026-06-16 17:32:00.998,80273,L_Hip,0.1073,-0.0636,0.988,31.48,-12.8,-1.54,-42.28,-0.37,-16.67,0.99472,-0.023194,-0.070254,0.071078,0.0,0.0,0.0,0,0
2026-06-16 17:32:01.001,80293,L_Hip,0.1146,-0.0774,0.9875,31.48,-12.8,-1.55,-40.23,0.31,-17.58,0.99472,-0.023164,-0.070223,0.071078,0.0,0.0,0.0,0,0
2026-06-16 17:32:01.003,80313,L_Hip,0.1161,-0.0695,0.9861,31.5,-12.8,-1.55,0.0,0.0,0.0,0.99472,-0.023194,-0.070254,0.071078,0.0,0.0,0.0,0,0
2026-06-16 17:32:01.005,80333,L_Hip,0.1146,-0.0764,0.9851,31.5,-12.8,-1.54,-40.73,1.42,-16.26,0.99472,-0.023194,-0.070223,0.071078,0.0,0.0,0.0,0,0
2026-06-16 17:32:01.024,80298,L_Hip,0.1166,-0.0759,0.9851,31.49,-12.8,-1.54,-42.58,0.26,-17.83,0.99472,-0.023225,-0.070223,0.071078,0.0,0.0,0.0,0,0
2026-06-16 17:32:01.026,80318,L_Hip,0.1161,-0.0749,0.9982,31.49,-12.8,-1.55,-42.12,-0.53,-16.53,0.99472,-0.023225,-0.070223,0.071078,0.0,0.0,0.0,0,0
2026-06-16 17:32:01.028,80338,L_Hip,0.1112,-0.0744,0.9895,31.48,-12.82,-1.57,0.0,0.0,0.0,0.99472,-0.023225,-0.070223,0.071078,0.0,0.0,0.0,0,0
2026-06-16 17:32:01.031,80358,L_Hip,0.1136,-0.0661,0.9992,31.48,-12.79,-1.56,-42.06,0.76,-18.28,0.99472,-0.023225,-0.070223,0.071078,0.0,0.0,0.0,0,0
2026-06-16 17:32:01.074,80348,L_Hip,0.1126,-0.0808,0.9875,31.5,-12.8,-1.54,-40.57,-0.01,-17.57,0.99472,-0.023225,-0.070254,0.071078,0.0,0.0,0.0,0,0
2026-06-16 17:32:01.076,80368,L_Hip,0.1171,-0.0695,0.9914,31.49,-12.8,-1.54,-40.92,0.29,-16.4,0.99472,-0.023225,-0.070254,0.071078,0.0,0.0,0.0,0,0
2026-06-16 17:32:01.078,80388,L_Hip,0.1117,-0.0715,0.9977,31.48,-12.8,-1.54,0.0,0.0,0.0,0.99472,-0.023225,-0.070223,0.071078,0.0,0.0,0.0,0,0
2026-06-16 17:32:01.081,80408,L_Hip,0.119,-0.0735,0.9992,31.48,-12.8,-1.55,-42.08,-0.2,-18.27,0.99472,-0.023194,-0.070223,0.071078,0.0,0.0,0.0,0,0
2026-06-16 17:32:01.098,80373,L_Hip,0.1195,-0.0808,0.9851,31.48,-12.81,-1.55,-41.27,-0.03,-16.11,0.99472,-0.023194,-0.070193,0.071078,0.0,0.0,0.0,0,0
2026-06-16 17:32:01.101,80393,L_Hip,0.1102,-0.0715,0.9812,31.49,-12.81,-1.55,-41.78,-0.84,-16.53,0.99472,-0.023194,-0.070223,0.071078,0.0,0.0,0.0,0,0
2026-06-16 17:32:01.103,80413,L_Hip,0.1161,-0.0808,0.989,31.49,-12.79,-1.54,-41.24,0.93,-16.69,0.99472,-0.023225,-0.070223,0.071078,0.0,0.0,0.0,0,0
2026-06-16 17:32:01.105,80433,L_Hip,0.1136,-0.0715,0.99,31.5,-12.8,-1.54,0.0,0.0,0.0,0.99472,-0.023225,-0.070193,0.071078,0.0,0.0,0.0,0,0
2026-06-16 17:32:01.123,80398,L_Hip,0.1264,-0.071,0.989,31.49,-12.8,-1.55,-42.76,0.42,-17.39,0.99472,-0.023194,-0.070193,0.071078,0.0,0.0,0.0,0,0
2026-06-16 17:32:01.126,80418,L_Hip,0.1195,-0.0892,0.9875,31.49,-12.8,-1.55,-41.4,1.09,-17.12,0.99472,-0.023194,-0.070193,0.071078,0.0,0.0,0.0,0,0
2026-06-16 17:32:01.128,80438,L_Hip,0.1166,-0.0725,0.9827,31.49,-12.81,-1.56,-41.97,-0.69,-15.22,0.99472,-0.023194,-0.070193,0.071078,0.0,0.0,0.0,0,0
2026-06-16 17:32:01.130,80458,L_Hip,0.1077,-0.0666,0.9938,31.48,-12.8,-1.57,0.0,0.0,0.0,0.99472,-0.023225,-0.070193,0.071078,0.0,0.0,0.0,0,0
2026-06-16 17:32:01.199,80473,L_Hip,0.1166,-0.0715,0.9929,31.49,-12.8,-1.56,-41.27,-0.35,-16.69,0.99472,-0.023225,-0.070193,0.071078,0.0,0.0,0.0,0,0
2026-06-16 17:32:01.201,80493,L_Hip,0.1087,-0.0636,0.9803,31.48,-12.8,-1.54,-41.42,0.44,-16.83,0.99472,-0.023194,-0.070193,0.071078,0.0,0.0,0.0,0,0
2026-06-16 17:32:01.203,80513,L_Hip,0.1146,-0.071,0.9817,31.49,-12.8,-1.55,-43.11,0.09,-16.8,0.99472,-0.023225,-0.070223,0.071108,0.0,0.0,0.0,0,0
2026-06-16 17:32:01.205,80533,L_Hip,0.1136,-0.073,0.9943,31.5,-12.8,-1.54,-42.25,-0.36,-18.12,0.99472,-0.023225,-0.070193,0.071108,0.0,0.0,0.0,0,0
2026-06-16 17:32:01.224,80498,L_Hip,0.12,-0.0705,0.9904,31.49,-12.8,-1.55,-42.97,-1.67,-17.53,0.99472,-0.023225,-0.070223,0.071108,0.0,0.0,0.0,0,0
2026-06-16 17:32:01.226,80518,L_Hip,0.1239,-0.0666,0.9885,31.49,-12.8,-1.56,0.0,0.0,0.0,0.99472,-0.023194,-0.070193,0.071108,0.0,0.0,0.0,0,0
2026-06-16 17:32:01.228,80538,L_Hip,0.1166,-0.0764,0.9851,31.5,-12.8,-1.58,-41.43,0.12,-16.54,0.99469,-0.023225,-0.070223,0.071108,0.0,0.0,0.0,0,0
2026-06-16 17:32:01.230,80558,L_Hip,0.1126,-0.0774,0.9943,31.49,-12.8,-1.57,-41.24,-0.02,-17.85,0.99472,-0.023225,-0.070223,0.071078,0.0,0.0,0.0,0,0
2026-06-16 17:32:01.249,80523,L_Hip,0.1141,-0.0808,0.9982,31.49,-12.8,-1.54,-40.89,0.3,-18.15,0.99472,-0.023225,-0.070193,0.071078,0.0,0.0,0.0,0,0
2026-06-16 17:32:01.251,80543,L_Hip,0.1156,-0.0661,0.9851,31.48,-12.8,-1.56,0.0,0.0,0.0,0.99472,-0.023225,-0.070223,0.071078,0.0,0.0,0.0,0,0
2026-06-16 17:32:01.253,80563,L_Hip,0.119,-0.0789,0.9972,31.49,-12.8,-1.55,-42.62,-0.38,-16.67,0.99472,-0.023194,-0.070193,0.071108,0.0,0.0,0.0,0,0
2026-06-16 17:32:01.255,80583,L_Hip,0.1043,-0.0626,0.9725,31.51,-12.81,-1.54,-41.94,-0.68,-16.96,0.99472,-0.023194,-0.070223,0.071108,0.0,0.0,0.0,0,0
2026-06-16 17:32:01.323,80598,L_Hip,0.1102,-0.0681,0.9933,31.49,-12.8,-1.55,-40.75,0.13,-16.84,0.99472,-0.023225,-0.070193,0.071108,0.0,0.0,0.0,0,0
2026-06-16 17:32:01.326,80618,L_Hip,0.1215,-0.0769,0.9793,31.48,-12.8,-1.55,0.0,0.0,0.0,0.99472,-0.023225,-0.070193,0.071108,0.0,0.0,0.0,0,0
2026-06-16 17:32:01.328,80638,L_Hip,0.1126,-0.0739,0.9919,31.48,-12.8,-1.54,-40.39,0.79,-17.43,0.99469,-0.023194,-0.070223,0.071108,0.0,0.0,0.0,0,0
2026-06-16 17:32:01.330,80658,L_Hip,0.1185,-0.0764,0.987,31.48,-12.82,-1.56,-42.11,-0.53,-16.82,0.99472,-0.023194,-0.070223,0.071108,0.0,0.0,0.0,0,0
2026-06-16 17:32:01.348,80623,L_Hip,0.1126,-0.07,0.9788,31.49,-12.81,-1.55,-40.42,-0.17,-16.84,0.99472,-0.023194,-0.070193,0.071108,0.0,0.0,0.0,0,0
2026-06-16 17:32:01.350,80643,L_Hip,0.1176,-0.0789,0.9914,31.5,-12.8,-1.54,0.0,0.0,0.0,0.99472,-0.023194,-0.070193,0.071108,0.0,0.0,0.0,0,0
2026-06-16 17:32:01.353,80663,L_Hip,0.1176,-0.0744,0.9764,31.5,-12.8,-1.54,-42.46,-0.54,-16.23,0.99472,-0.023194,-0.070193,0.071108,0.0,0.0,0.0,0,0
2026-06-16 17:32:01.355,80683,L_Hip,0.1063,-0.0651,0.9967,31.49,-12.8,-1.54,-42.11,0.11,-16.24,0.99472,-0.023225,-0.070223,0.071108,0.0,0.0,0.0,0,0
2026-06-16 17:32:01.373,80648,L_Hip,0.1205,-0.0725,0.9948,31.51,-12.8,-1.54,-41.61,-0.68,-16.97,0.99472,-0.023225,-0.070223,0.071108,0.0,0.0,0.0,0,0
2026-06-16 17:32:01.376,80668,L_Hip,0.1107,-0.0725,0.9841,31.49,-12.79,-1.55,0.0,0.0,0.0,0.99472,-0.023225,-0.070223,0.071108,0.0,0.0,0.0,0,0
2026-06-16 17:32:01.378,80688,L_Hip,0.1195,-0.071,0.9808,31.49,-12.81,-1.56,-41.91,0.6,-17.26,0.99472,-0.023225,-0.070223,0.071108,0.0,0.0,0.0,0,0
2026-06-16 17:32:01.380,80708,L_Hip,0.1107,-0.0671,0.9943,31.49,-12.8,-1.56,-41.09,0.13,-16.84,0.99469,-0.023225,-0.070223,0.071108,0.0,0.0,0.0,0,0
2026-06-16 17:32:01.398,80673,L_Hip,0.1161,-0.0818,0.9904,31.5,-12.81,-1.54,-41.44,-0.52,-16.54,0.99469,-0.023255,-0.070254,0.071108,0.0,0.0,0.0,0,0
2026-06-16 17:32:01.401,80693,L_Hip,0.1117,-0.0676,0.9851,31.49,-12.8,-1.54,-41.25,-0.67,-17.85,0.99469,-0.023255,-0.070254,0.071108,0.0,0.0,0.0,0,0
2026-06-16 17:32:01.403,80713,L_Hip,0.1171,-0.0764,0.9861,31.49,-12.8,-1.55,0.0,0.0,0.0,0.99469,-0.023255,-0.070254,0.071108,0.0,0.0,0.0,0,0
2026-06-16 17:32:01.405,80733,L_Hip,0.1156,-0.0754,0.9958,31.49,-12.8,-1.56,-42.28,0.26,-16.09,0.99469,-0.023255,-0.070254,0.071108,0.0,0.0,0.0,0,0
2026-06-16 17:32:01.448,80723,L_Hip,0.1068,-0.0764,0.9967,31.48,-12.8,-1.54,-41.45,-0.84,-16.25,0.99469,-0.023225,-0.070223,0.071139,0.0,0.0,0.0,0,0
2026-06-16 17:32:01.451,80743,L_Hip,0.1176,-0.0671,0.9972,31.5,-12.8,-1.56,-42.08,0.43,-17.69,0.99469,-0.023225,-0.070223,0.071139,0.0,0.0,0.0,0,0
2026-06-16 17:32:01.453,80763,L_Hip,0.1122,-0.0769,0.9808,31.5,-12.8,-1.56,0.0,0.0,0.0,0.99469,-0.023225,-0.070223,0.071139,0.0,0.0,0.0,0,0
2026-06-16 17:32:01.455,80783,L_Hip,0.1122,-0.0725,0.9948,31.5,-12.8,-1.55,-41.77,-0.2,-16.53,0.99469,-0.023225,-0.070223,0.071139,0.0,0.0,0.0,0,0
2026-06-16 17:32:01.499,80773,L_Hip,0.1166,-0.0808,0.9808,31.48,-12.8,-1.55,-41.29,-0.68,-15.81,0.99469,-0.023225,-0.070223,0.071108,0.0,0.0,0.0,0,0
2026-06-16 17:32:01.501,80793,L_Hip,0.1195,-0.07,0.9614,31.5,-12.81,-1.55,-41.39,1.09,-17.42,0.99469,-0.023225,-0.070254,0.071139,0.0,0.0,0.0,0,0
2026-06-16 17:32:01.503,80813,L_Hip,0.1146,-0.0764,0.9919,31.49,-12.81,-1.55,0.0,0.0,0.0,0.99469,-0.023225,-0.070223,0.071139,0.0,0.0,0.0,0,0
2026-06-16 17:32:01.505,80833,L_Hip,0.1122,-0.0749,0.973,31.5,-12.8,-1.56,-41.59,0.28,-16.97,0.99469,-0.023225,-0.070254,0.071139,0.0,0.0,0.0,0,0
2026-06-16 17:32:01.524,80798,L_Hip,0.1077,-0.0739,0.9909,31.49,-12.8,-1.54,-41.9,0.6,-17.84,0.99469,-0.023225,-0.070254,0.071108,0.0,0.0,0.0,0,0
2026-06-16 17:32:01.526,80818,L_Hip,0.1126,-0.071,1.0011,31.48,-12.8,-1.55,-40.39,0.79,-17.43,0.99469,-0.023225,-0.070254,0.071108,0.0,0.0,0.0,0,0
2026-06-16 17:32:01.528,80838,L_Hip,0.1171,-0.0735,0.9643,31.48,-12.8,-1.55,0.0,0.0,0.0,0.99469,-0.023194,-0.070254,0.071108,0.0,0.0,0.0,0,0
2026-06-16 17:32:01.531,80858,L_Hip,0.1146,-0.0779,0.9875,31.48,-12.8,-1.55,-40.6,-0.66,-16.69,0.99469,-0.023225,-0.070223,0.071108,0.0,0.0,0.0,0,0
2026-06-16 17:32:01.573,80848,L_Hip,0.1126,-0.0749,0.9938,31.48,-12.8,-1.57,-41.24,-0.02,-18.14,0.99469,-0.023225,-0.070223,0.071139,0.0,0.0,0.0,0,0
2026-06-16 17:32:01.576,80868,L_Hip,0.1176,-0.0769,0.9958,31.48,-12.79,-1.55,-42.11,-0.85,-17.11,0.99469,-0.023225,-0.070223,0.071139,0.0,0.0,0.0,0,0
2026-06-16 17:32:01.578,80888,L_Hip,0.1185,-0.0685,0.9919,31.49,-12.8,-1.55,-41.23,0.93,-17.56,0.99469,-0.023255,-0.070254,0.071108,0.0,0.0,0.0,0,0
2026-06-16 17:32:01.580,80908,L_Hip,0.1087,-0.071,0.9812,31.49,-12.81,-1.54,-40.25,-0.01,-16.41,0.99469,-0.023225,-0.070254,0.071108,0.0,0.0,0.0,0,0
2026-06-16 17:32:01.598,80873,L_Hip,0.122,-0.0676,0.9866,31.5,-12.8,-1.54,-42.27,-0.37,-16.96,0.99469,-0.023225,-0.070254,0.071139,0.0,0.0,0.0,0,0
2026-06-16 17:32:01.601,80893,L_Hip,0.1058,-0.0656,0.9817,31.48,-12.8,-1.56,0.0,0.0,0.0,0.99469,-0.023255,-0.070284,0.071139,0.0,0.0,0.0,0,0
2026-06-16 17:32:01.603,80913,L_Hip,0.1146,-0.0744,0.9904,31.48,-12.8,-1.56,-42.9,1.55,-17.83,0.99469,-0.023225,-0.070254,0.071139,0.0,0.0,0.0,0,0
2026-06-16 17:32:01.605,80933,L_Hip,0.1117,-0.0769,0.987,31.48,-12.8,-1.55,0.0,0.0,0.0,0.99469,-0.023225,-0.070254,0.071139,0.0,0.0,0.0,0,0
2026-06-16 17:32:01.648,80923,L_Hip,0.1097,-0.0671,0.9929,31.48,-12.8,-1.55,-40.59,-0.98,-17.57,0.99469,-0.023225,-0.070284,0.071139,0.0,0.0,0.0,0,0
2026-06-16 17:32:01.651,80943,L_Hip,0.1117,-0.0735,1.0011,31.5,-12.8,-1.54,-40.94,-0.67,-16.69,0.99469,-0.023225,-0.070284,0.071139,0.0,0.0,0.0,0,0
2026-06-16 17:32:01.653,80963,L_Hip,0.1102,-0.0848,0.9948,31.49,-12.8,-1.55,-41.11,-1.15,-17.12,0.99469,-0.023225,-0.070254,0.071139,0.0,0.0,0.0,0,0
2026-06-16 17:32:01.655,80983,L_Hip,0.1166,-0.0607,0.9904,31.48,-12.8,-1.55,-41.09,-0.19,-16.83,0.99469,-0.023225,-0.070254,0.071139,0.0,0.0,0.0,0,0
2026-06-16 17:32:01.698,80972,L_Hip,0.1136,-0.0739,0.9948,31.48,-12.81,-1.54,-43.49,-1.84,-16.5,0.99469,-0.023194,-0.070254,0.071139,0.0,0.0,0.0,0,0
2026-06-16 17:32:01.700,80992,L_Hip,0.1151,-0.0813,0.988,31.48,-12.8,-1.54,0.0,0.0,0.0,0.99469,-0.023194,-0.070223,0.071139,0.0,0.0,0.0,0,0
2026-06-16 17:32:01.702,81012,L_Hip,0.1264,-0.0739,0.99,31.49,-12.8,-1.55,-40.75,0.13,-16.55,0.99469,-0.023194,-0.070254,0.071139,0.0,0.0,0.0,0,0
2026-06-16 17:32:01.705,81032,L_Hip,0.1082,-0.0744,0.9919,31.49,-12.8,-1.54,-40.92,-0.02,-16.98,0.99469,-0.023194,-0.070223,0.071139,0.0,0.0,0.0,0,0
2026-06-16 17:32:01.723,80998,L_Hip,0.1112,-0.0754,0.9793,31.49,-12.8,-1.55,-42.23,-0.04,-19.0,0.99469,-0.023194,-0.070223,0.071139,0.0,0.0,0.0,0,0
2026-06-16 17:32:01.725,81018,L_Hip,0.1166,-0.072,0.9943,31.48,-12.8,-1.56,0.0,0.0,0.0,0.99469,-0.023225,-0.070193,0.071139,0.0,0.0,0.0,0,0
2026-06-16 17:32:01.728,81038,L_Hip,0.1107,-0.0759,0.989,31.49,-12.8,-1.55,-42.13,-0.21,-15.37,0.99472,-0.023194,-0.070193,0.071139,0.0,0.0,0.0,0,0
2026-06-16 17:32:01.730,81058,L_Hip,0.1126,-0.0769,0.9958,31.49,-12.8,-1.55,-41.43,-0.51,-17.12,0.99472,-0.023225,-0.070162,0.071139,0.0,0.0,0.0,0,0
2026-06-16 17:32:01.774,81048,L_Hip,0.1043,-0.0735,0.9909,31.49,-12.81,-1.54,-40.75,-0.82,-17.71,0.99472,-0.023194,-0.070162,0.071139,0.0,0.0,0.0,0,0
2026-06-16 17:32:01.776,81068,L_Hip,0.1063,-0.0735,0.9992,31.48,-12.8,-1.54,0.0,0.0,0.0,0.99472,-0.023194,-0.070162,0.071139,0.0,0.0,0.0,0,0
2026-06-16 17:32:01.778,81088,L_Hip,0.1077,-0.0646,0.9837,31.49,-12.8,-1.54,-42.1,-0.2,-17.11,0.99472,-0.023194,-0.070162,0.071139,0.0,0.0,0.0,0,0
2026-06-16 17:32:01.780,81108,L_Hip,0.1122,-0.0774,0.9904,31.5,-12.81,-1.55,-42.64,-0.7,-15.79,0.99469,-0.023194,-0.070193,0.071139,0.0,0.0,0.0,0,0
2026-06-16 17:32:01.799,81073,L_Hip,0.1092,-0.0749,0.9778,31.5,-12.81,-1.55,-41.25,0.29,-16.98,0.99469,-0.023194,-0.070193,0.071169,0.0,0.0,0.0,0,0
2026-06-16 17:32:01.801,81093,L_Hip,0.1107,-0.0739,0.9706,31.48,-12.81,-1.55,0.0,0.0,0.0,0.99469,-0.023225,-0.070223,0.071169,0.0,0.0,0.0,0,0
2026-06-16 17:32:01.803,81113,L_Hip,0.1146,-0.0695,0.9866,31.5,-12.8,-1.54,-41.42,0.77,-16.54,0.99469,-0.023225,-0.070223,0.071139,0.0,0.0,0.0,0,0
2026-06-16 17:32:01.805,81133,L_Hip,0.1205,-0.0735,0.9953,31.49,-12.79,-1.54,-42.4,1.07,-17.98,0.99469,-0.023225,-0.070193,0.071139,0.0,0.0,0.0,0,0
2026-06-16 17:32:01.848,81123,L_Hip,0.1185,-0.0735,0.9895,31.49,-12.8,-1.54,-40.91,-0.34,-17.56,0.99469,-0.023225,-0.070193,0.071169,0.0,0.0,0.0,0,0
2026-06-16 17:32:01.850,81143,L_Hip,0.1122,-0.0808,0.9837,31.49,-12.81,-1.54,0.0,0.0,0.0,0.99469,-0.023255,-0.070193,0.071169,0.0,0.0,0.0,0,0
2026-06-16 17:32:01.853,81163,L_Hip,0.1161,-0.072,0.9837,31.49,-12.8,-1.55,-41.27,-0.35,-16.4,0.99472,-0.023255,-0.070162,0.071169,0.0,0.0,0.0,0,0
2026-06-16 17:32:01.855,81183,L_Hip,0.1092,-0.0759,0.9948,31.51,-12.8,-1.58,-41.6,-0.36,-16.97,0.99472,-0.023255,-0.070132,0.071169,0.0,0.0,0.0,0,0
2026-06-16 17:32:01.874,81148,L_Hip,0.1146,-0.0661,0.99,31.5,-12.81,-1.56,-41.1,-0.19,-16.54,0.99472,-0.023255,-0.070132,0.071169,0.0,0.0,0.0,0,0
2026-06-16 17:32:01.876,81168,L_Hip,0.1126,-0.073,0.9817,31.49,-12.81,-1.55,-41.93,0.27,-16.68,0.99472,-0.023255,-0.070101,0.071169,0.0,0.0,0.0,0,0
2026-06-16 17:32:01.878,81188,L_Hip,0.122,-0.0631,0.987,31.5,-12.82,-1.54,0.0,0.0,0.0,0.99472,-0.023255,-0.070101,0.071169,0.0,0.0,0.0,0,0
2026-06-16 17:32:01.880,81208,L_Hip,0.121,-0.0739,0.9764,31.49,-12.82,-1.55,-41.41,0.44,-17.12,0.99472,-0.023255,-0.07007,0.071169,0.0,0.0,0.0,0,0
2026-06-16 17:32:01.924,81198,L_Hip,0.1166,-0.071,0.9977,31.49,-12.8,-1.56,-41.74,0.44,-17.99,0.99472,-0.023255,-0.070101,0.071169,0.0,0.0,0.0,0,0
2026-06-16 17:32:01.926,81218,L_Hip,0.1171,-0.0823,0.988,31.49,-12.8,-1.56,-41.58,-0.35,-17.84,0.99472,-0.023286,-0.070101,0.071169,0.0,0.0,0.0,0,0
2026-06-16 17:32:01.928,81238,L_Hip,0.1097,-0.0779,0.9759,31.48,-12.8,-1.55,0.0,0.0,0.0,0.99472,-0.023286,-0.070101,0.0712,0.0,0.0,0.0,0,0
2026-06-16 17:32:01.930,81258,L_Hip,0.119,-0.072,0.9798,31.5,-12.81,-1.58,-43.25,0.57,-17.82,0.99472,-0.023286,-0.07007,0.071169,0.0,0.0,0.0,0,0
2026-06-16 17:32:01.998,81273,L_Hip,0.1136,-0.0749,0.9875,31.49,-12.8,-1.56,-40.4,0.46,-16.85,0.99472,-0.023316,-0.07007,0.0712,0.0,0.0,0.0,0,0
2026-06-16 17:32:02.001,81293,L_Hip,0.1097,-0.0705,0.9933,31.49,-12.8,-1.56,-41.76,0.11,-16.83,0.99472,-0.023316,-0.07007,0.0712,0.0,0.0,0.0,0,0
2026-06-16 17:32:02.003,81313,L_Hip,0.1146,-0.07,0.9837,31.48,-12.8,-1.54,0.0,0.0,0.0,0.99472,-0.023286,-0.07007,0.0712,0.0,0.0,0.0,0,0
2026-06-16 17:32:02.005,81333,L_Hip,0.1097,-0.0754,0.9967,31.48,-12.8,-1.54,-41.42,0.44,-16.83,0.99472,-0.023286,-0.070101,0.0712,0.0,0.0,0.0,0,0
2026-06-16 17:32:02.024,81298,L_Hip,0.1117,-0.0661,0.9861,31.48,-12.82,-1.54,-40.76,-1.14,-17.42,0.99469,-0.023286,-0.070132,0.0712,0.0,0.0,0.0,0,0
2026-06-16 17:32:02.026,81318,L_Hip,0.1195,-0.0779,0.9837,31.5,-12.8,-1.55,-40.07,-0.17,-17.14,0.99472,-0.023286,-0.070101,0.0712,0.0,0.0,0.0,0,0
2026-06-16 17:32:02.028,81338,L_Hip,0.1254,-0.0759,0.9851,31.5,-12.8,-1.55,0.0,0.0,0.0,0.99472,-0.023286,-0.070101,0.071169,0.0,0.0,0.0,0,0
2026-06-16 17:32:02.030,81358,L_Hip,0.1077,-0.0681,0.9885,31.49,-12.8,-1.55,-41.26,-0.35,-17.27,0.99472,-0.023286,-0.070101,0.071169,0.0,0.0,0.0,0,0
2026-06-16 17:32:02.074,81348,L_Hip,0.1141,-0.071,1.0006,31.49,-12.8,-1.54,-42.44,-0.85,-17.68,0.99472,-0.023255,-0.070132,0.071169,0.0,0.0,0.0,0,0
2026-06-16 17:32:02.076,81368,L_Hip,0.1185,-0.073,0.9851,31.49,-12.8,-1.54,-41.42,0.12,-16.83,0.99472,-0.023255,-0.070101,0.071169,0.0,0.0,0.0,0,0
2026-06-16 17:32:02.078,81388,L_Hip,0.1156,-0.0754,0.9885,31.49,-12.8,-1.55,-41.94,-0.04,-16.68,0.99472,-0.023255,-0.070101,0.071169,0.0,0.0,0.0,0,0
2026-06-16 17:32:02.080,81408,L_Hip,0.1126,-0.0666,0.9851,31.5,-12.8,-1.57,0.0,0.0,0.0,0.99472,-0.023255,-0.07007,0.071169,0.0,0.0,0.0,0,0
2026-06-16 17:32:02.098,81373,L_Hip,0.1151,-0.0759,0.9861,31.49,-12.8,-1.56,-42.59,0.26,-17.25,0.99472,-0.023286,-0.07007,0.071169,0.0,0.0,0.0,0,0
2026-06-16 17:32:02.101,81393,L_Hip,0.1126,-0.0808,0.9716,31.48,-12.8,-1.55,-40.74,0.46,-16.84,0.99472,-0.023286,-0.070101,0.071169,0.0,0.0,0.0,0,0
2026-06-16 17:32:02.103,81413,L_Hip,0.1229,-0.0739,0.9875,31.5,-12.81,-1.55,-41.11,-1.8,-17.41,0.99472,-0.023286,-0.070101,0.071169,0.0,0.0,0.0,0,0
2026-06-16 17:32:02.105,81433,L_Hip,0.1092,-0.07,0.9817,31.5,-12.81,-1.54,0.0,0.0,0.0,0.99472,-0.023255,-0.070132,0.071169,0.0,0.0,0.0,0,0
2026-06-16 17:32:02.174,81448,L_Hip,0.1176,-0.0749,0.973,31.49,-12.8,-1.54,-41.09,-0.83,-17.7,0.99472,-0.023255,-0.070132,0.071169,0.0,0.0,0.0,0,0
2026-06-16 17:32:02.176,81468,L_Hip,0.1176,-0.0705,0.9798,31.49,-12.8,-1.55,-41.93,0.27,-16.39,0.99472,-0.023255,-0.070132,0.071169,0.0,0.0,0.0,0,0
2026-06-16 17:32:02.178,81488,L_Hip,0.121,-0.071,0.9958,31.5,-12.83,-1.54,-40.88,1.59,-17.57,0.99469,-0.023255,-0.070132,0.0712,0.0,0.0,0.0,0,0
2026-06-16 17:32:02.181,81508,L_Hip,0.12,-0.0735,0.9875,31.5,-12.8,-1.54,-40.74,0.46,-17.13,0.99472,-0.023255,-0.070132,0.071169,0.0,0.0,0.0,0,0
2026-06-16 17:32:02.199,81473,L_Hip,0.1156,-0.0685,0.9798,31.49,-12.8,-1.55,-42.1,0.11,-16.53,0.99472,-0.023255,-0.070101,0.071169,0.0,0.0,0.0,0,0
2026-06-16 17:32:02.201,81493,L_Hip,0.1112,-0.0759,0.9851,31.5,-12.8,-1.54,0.0,0.0,0.0,0.99472,-0.023286,-0.070101,0.071169,0.0,0.0,0.0,0,0
2026-06-16 17:32:02.203,81513,L_Hip,0.1166,-0.0735,0.9803,31.51,-12.8,-1.55,-41.93,-0.04,-17.26,0.99472,-0.023286,-0.070101,0.071169,0.0,0.0,0.0,0,0
2026-06-16 17:32:02.205,81533,L_Hip,0.1151,-0.0744,0.9856,31.5,-12.8,-1.55,-41.42,0.12,-16.83,0.99469,-0.023286,-0.070132,0.071169,0.0,0.0,0.0,0,0
2026-06-16 17:32:02.224,81498,L_Hip,0.1244,-0.0646,0.9992,31.5,-12.81,-1.55,-41.91,0.28,-17.55,0.99469,-0.023286,-0.070132,0.071169,0.0,0.0,0.0,0,0
2026-06-16 17:32:02.226,81518,L_Hip,0.1141,-0.0725,0.9987,31.49,-12.8,-1.52,0.0,0.0,0.0,0.99469,-0.023286,-0.070162,0.071169,0.0,0.0,0.0,0,0
2026-06-16 17:32:02.228,81538,L_Hip,0.1087,-0.071,0.9919,31.48,-12.8,-1.54,-40.78,-0.83,-16.26,0.99469,-0.023286,-0.070162,0.071169,0.0,0.0,0.0,0,0
2026-06-16 17:32:02.231,81558,L_Hip,0.1161,-0.0749,0.9817,31.48,-12.8,-1.56,-42.46,0.1,-15.65,0.99469,-0.023255,-0.070193,0.071169,0.0,0.0,0.0,0,0
2026-06-16 17:32:02.249,81523,L_Hip,0.1107,-0.0735,1.0035,31.51,-12.81,-1.57,-41.61,-0.36,-16.39,0.99469,-0.023255,-0.070193,0.071169,0.0,0.0,0.0,0,0
2026-06-16 17:32:02.251,81543,L_Hip,0.1068,-0.0744,0.9933,31.49,-12.8,-1.54,0.0,0.0,0.0,0.99469,-0.023225,-0.070193,0.071169,0.0,0.0,0.0,0,0
2026-06-16 17:32:02.253,81563,L_Hip,0.1195,-0.0754,1.0001,31.48,-12.79,-1.54,-40.05,1.11,-16.85,0.99469,-0.023225,-0.070193,0.071169,0.0,0.0,0.0,0,0
2026-06-16 17:32:02.255,81583,L_Hip,0.119,-0.0725,0.9885,31.5,-12.8,-1.55,-41.1,-0.51,-16.83,0.99469,-0.023225,-0.070193,0.071169,0.0,0.0,0.0,0,0
2026-06-16 17:32:02.273,81548,L_Hip,0.1077,-0.0725,0.9827,31.49,-12.81,-1.57,-42.43,0.42,-16.53,0.99469,-0.023225,-0.070193,0.0712,0.0,0.0,0.0,0,0
2026-06-16 17:32:02.276,81568,L_Hip,0.1092,-0.071,0.9866,31.5,-12.81,-1.56,0.0,0.0,0.0,0.99469,-0.023225,-0.070193,0.0712,0.0,0.0,0.0,0,0
2026-06-16 17:32:02.278,81588,L_Hip,0.1126,-0.07,0.9798,31.5,-12.79,-1.54,-42.43,0.1,-17.4,0.99469,-0.023225,-0.070193,0.0712,0.0,0.0,0.0,0,0
2026-06-16 17:32:02.280,81608,L_Hip,0.1166,-0.0774,0.9885,31.48,-12.8,-1.55,-40.93,-0.66,-17.27,0.99469,-0.023225,-0.070193,0.0712,0.0,0.0,0.0,0,0
2026-06-16 17:32:02.348,81622,L_Hip,0.1185,-0.0759,0.9788,31.48,-12.81,-1.55,-40.78,-0.51,-15.68,0.99469,-0.023225,-0.070193,0.0712,0.0,0.0,0.0,0,0
2026-06-16 17:32:02.350,81642,L_Hip,0.1126,-0.0759,0.9958,31.5,-12.8,-1.54,0.0,0.0,0.0,0.99469,-0.023225,-0.070193,0.0712,0.0,0.0,0.0,0,0
2026-06-16 17:32:02.352,81662,L_Hip,0.1176,-0.0769,0.9798,31.5,-12.82,-1.55,-41.56,0.93,-17.85,0.99469,-0.023225,-0.070162,0.0712,0.0,0.0,0.0,0,0
2026-06-16 17:32:02.354,81682,L_Hip,0.1151,-0.0725,0.9924,31.48,-12.8,-1.55,-42.09,-0.2,-17.98,0.99469,-0.023225,-0.070193,0.0712,0.0,0.0,0.0,0,0
2026-06-16 17:32:02.373,81648,L_Hip,0.12,-0.0754,0.9846,31.48,-12.8,-1.55,-41.43,0.12,-16.54,0.99469,-0.023225,-0.070193,0.0712,0.0,0.0,0.0,0,0
2026-06-16 17:32:02.376,81668,L_Hip,0.1146,-0.0813,0.9962,31.48,-12.81,-1.55,-41.75,-0.19,-17.7,0.99469,-0.023255,-0.070193,0.0712,0.0,0.0,0.0,0,0
2026-06-16 17:32:02.378,81688,L_Hip,0.1082,-0.0764,0.9783,31.49,-12.8,-1.55,0.0,0.0,0.0,0.99469,-0.023225,-0.070193,0.071169,0.0,0.0,0.0,0,0
2026-06-16 17:32:02.381,81708,L_Hip,0.1171,-0.0676,0.9822,31.49,-12.82,-1.55,-41.75,0.12,-17.7,0.99469,-0.023225,-0.070162,0.0712,0.0,0.0,0.0,0,0
2026-06-16 17:32:02.399,81673,L_Hip,0.12,-0.0715,0.9778,31.51,-12.81,-1.55,-42.12,-0.85,-16.53,0.99469,-0.023225,-0.070162,0.0712,0.0,0.0,0.0,0,0
2026-06-16 17:32:02.401,81693,L_Hip,0.1205,-0.0808,0.972,31.49,-12.82,-1.55,-40.56,0.3,-17.57,0.99469,-0.023255,-0.070162,0.0712,0.0,0.0,0.0,0,0
2026-06-16 17:32:02.403,81713,L_Hip,0.1077,-0.0754,0.9783,31.5,-12.8,-1.55,0.0,0.0,0.0,0.99469,-0.023255,-0.070162,0.0712,0.0,0.0,0.0,0,0
2026-06-16 17:32:02.405,81733,L_Hip,0.1107,-0.0774,0.9778,31.49,-12.8,-1.55,-42.42,1.07,-16.53,0.99469,-0.023286,-0.070162,0.0712,0.0,0.0,0.0,0,0
2026-06-16 17:32:02.449,81723,L_Hip,0.1112,-0.0774,0.9943,31.5,-12.81,-1.54,-42.61,-0.37,-16.96,0.99469,-0.023255,-0.070162,0.0712,0.0,0.0,0.0,0,0
2026-06-16 17:32:02.451,81743,L_Hip,0.121,-0.0828,0.9774,31.49,-12.8,-1.55,-41.58,0.28,-17.55,0.99469,-0.023255,-0.070162,0.0712,0.0,0.0,0.0,0,0
2026-06-16 17:32:02.453,81763,L_Hip,0.1176,-0.0833,0.9788,31.5,-12.82,-1.54,0.0,0.0,0.0,0.99469,-0.023286,-0.070162,0.0712,0.0,0.0,0.0,0,0
2026-06-16 17:32:02.455,81783,L_Hip,0.1151,-0.0695,0.987,31.48,-12.8,-1.56,-41.61,-0.68,-16.97,0.99469,-0.023286,-0.070162,0.0712,0.0,0.0,0.0,0,0
2026-06-16 17:32:02.473,81748,L_Hip,0.1161,-0.0715,0.9817,31.51,-12.8,-1.55,-40.9,1.58,-16.12,0.99469,-0.023286,-0.070193,0.0712,0.0,0.0,0.0,0,0
2026-06-16 17:32:02.476,81768,L_Hip,0.1176,-0.0789,0.9774,31.49,-12.8,-1.55,-41.92,0.27,-17.26,0.99469,-0.023286,-0.070162,0.0712,0.0,0.0,0.0,0,0
2026-06-16 17:32:02.478,81788,L_Hip,0.1166,-0.0744,0.9929,31.5,-12.8,-1.53,0.0,0.0,0.0,0.99469,-0.023316,-0.070193,0.0712,0.0,0.0,0.0,0,0
2026-06-16 17:32:02.480,81808,L_Hip,0.1171,-0.0715,0.9822,31.48,-12.8,-1.55,-42.11,-0.2,-16.82,0.99469,-0.023316,-0.070193,0.0712,0.0,0.0,0.0,0,0
2026-06-16 17:32:02.523,81798,L_Hip,0.1161,-0.0862,0.9866,31.48,-12.8,-1.55,-41.09,0.13,-16.54,0.99469,-0.023316,-0.070193,0.0712,0.0,0.0,0.0,0,0
2026-06-16 17:32:02.526,81818,L_Hip,0.1126,-0.0739,0.9725,31.49,-12.8,-1.56,-42.79,-0.22,-16.23,0.99469,-0.023316,-0.070193,0.0712,0.0,0.0,0.0,0,0
2026-06-16 17:32:02.528,81838,L_Hip,0.1068,-0.0705,0.9856,31.48,-12.8,-1.57,-41.95,-1.33,-17.25,0.99469,-0.023347,-0.070223,0.0712,0.0,0.0,0.0,0,0
2026-06-16 17:32:02.530,81858,L_Hip,0.1185,-0.0779,0.9827,31.49,-12.8,-1.55,0.0,0.0,0.0,0.99469,-0.023347,-0.070223,0.07123,0.0,0.0,0.0,0,0
2026-06-16 17:32:02.573,81848,L_Hip,0.1313,-0.0671,0.9846,31.49,-12.79,-1.55,-39.73,0.15,-17.15,0.99469,-0.023347,-0.070223,0.0712,0.0,0.0,0.0,0,0
2026-06-16 17:32:02.576,81868,L_Hip,0.1097,-0.0774,0.9933,31.5,-12.79,-1.54,-40.94,-0.35,-15.82,0.99469,-0.023347,-0.070193,0.07123,0.0,0.0,0.0,0,0
2026-06-16 17:32:02.578,81888,L_Hip,0.1166,-0.0671,1.003,31.48,-12.8,-1.55,-42.41,1.07,-17.11,0.99469,-0.023347,-0.070223,0.07123,0.0,0.0,0.0,0,0
2026-06-16 17:32:02.581,81908,L_Hip,0.1176,-0.0823,0.9909,31.48,-12.8,-1.54,-42.25,-0.04,-17.83,0.99469,-0.023347,-0.070223,0.07123,0.0,0.0,0.0,0,0
2026-06-16 17:32:02.598,81873,L_Hip,0.1053,-0.0646,0.9604,31.51,-12.82,-1.56,-40.75,0.46,-16.55,0.99469,-0.023347,-0.070193,0.07123,0.0,0.0,0.0,0,0
2026-06-16 17:32:02.601,81893,L_Hip,0.1318,-0.0739,0.9803,31.5,-12.8,-1.57,0.0,0.0,0.0,0.99469,-0.023347,-0.070162,0.07123,0.0,0.0,0.0,0,0
2026-06-16 17:32:02.603,81913,L_Hip,0.1102,-0.0685,0.9808,31.51,-12.8,-1.55,-41.43,0.12,-16.54,0.99469,-0.023377,-0.070162,0.07123,0.0,0.0,0.0,0,0
2026-06-16 17:32:02.605,81933,L_Hip,0.1122,-0.0779,0.9769,31.5,-12.79,-1.56,-41.41,0.77,-16.83,0.99469,-0.023377,-0.070162,0.0712,0.0,0.0,0.0,0,0
2026-06-16 17:32:02.648,81923,L_Hip,0.1122,-0.0887,0.9929,31.49,-12.8,-1.55,-40.91,-0.02,-17.27,0.99469,-0.023408,-0.070193,0.07123,0.0,0.0,0.0,0,0
2026-06-16 17:32:02.650,81943,L_Hip,0.1166,-0.0715,0.9967,31.5,-12.83,-1.56,0.0,0.0,0.0,0.99469,-0.023438,-0.070162,0.07123,0.0,0.0,0.0,0,0
2026-06-16 17:32:02.653,81963,L_Hip,0.119,-0.0715,0.9749,31.49,-12.82,-1.54,-42.77,-0.54,-17.68,0.99469,-0.023408,-0.070193,0.07123,0.0,0.0,0.0,0,0
2026-06-16 17:32:02.655,81983,L_Hip,0.1176,-0.0681,0.9895,31.49,-12.8,-1.56,-41.25,0.29,-16.98,0.99469,-0.023377,-0.070162,0.07123,0.0,0.0,0.0,0,0
2026-06-16 17:32:02.674,81948,L_Hip,0.1146,-0.0676,0.9866,31.49,-12.8,-1.54,-41.59,-0.03,-17.26,0.99469,-0.023438,-0.070162,0.07123,0.0,0.0,0.0,0,0
2026-06-16 17:32:02.676,81968,L_Hip,0.1195,-0.0759,0.9914,31.5,-12.8,-1.54,0.0,0.0,0.0,0.99469,-0.023408,-0.070162,0.07123,0.0,0.0,0.0,0,0
2026-06-16 17:32:02.678,81988,L_Hip,0.1068,-0.0764,0.9982,31.49,-12.82,-1.55,-41.57,0.93,-17.27,0.99469,-0.023408,-0.070162,0.07123,0.0,0.0,0.0,0,0
2026-06-16 17:32:02.680,82008,L_Hip,0.121,-0.0774,0.9914,31.49,-12.8,-1.57,-42.59,-0.05,-17.83,0.99469,-0.023377,-0.070193,0.07123,0.0,0.0,0.0,0,0
2026-06-16 17:32:02.723,81998,L_Hip,0.1166,-0.0759,0.9817,31.48,-12.8,-1.55,-40.93,0.29,-16.11,0.99469,-0.023377,-0.070162,0.07123,0.0,0.0,0.0,0,0
2026-06-16 17:32:02.725,82018,L_Hip,0.121,-0.0735,0.9938,31.5,-12.81,-1.57,0.0,0.0,0.0,0.99469,-0.023377,-0.070162,0.07123,0.0,0.0,0.0,0,0
2026-06-16 17:32:02.728,82038,L_Hip,0.1166,-0.0774,0.9856,31.51,-12.79,-1.55,-41.07,-0.5,-18.58,0.99469,-0.023377,-0.070162,0.07123,0.0,0.0,0.0,0,0
2026-06-16 17:32:02.730,82058,L_Hip,0.118,-0.0715,0.9841,31.48,-12.81,-1.55,-41.92,0.6,-16.97,0.99469,-0.023408,-0.070193,0.07123,0.0,0.0,0.0,0,0
2026-06-16 17:32:02.799,82073,L_Hip,0.122,-0.072,0.9992,31.5,-12.82,-1.54,-40.73,0.46,-17.71,0.99469,-0.023377,-0.070193,0.07123,0.0,0.0,0.0,0,0
2026-06-16 17:32:02.801,82093,L_Hip,0.122,-0.0774,0.9866,31.49,-12.8,-1.54,0.0,0.0,0.0,0.99469,-0.023377,-0.070162,0.07123,0.0,0.0,0.0,0,0
2026-06-16 17:32:02.803,82113,L_Hip,0.1151,-0.0739,0.9875,31.49,-12.8,-1.54,-43.12,0.41,-16.22,0.99469,-0.023377,-0.070162,0.07123,0.0,0.0,0.0,0,0
2026-06-16 17:32:02.806,82133,L_Hip,0.1156,-0.0798,0.9895,31.5,-12.8,-1.55,-42.09,0.75,-16.82,0.99469,-0.023377,-0.070162,0.07123,0.0,0.0,0.0,0,0
2026-06-16 17:32:02.824,82098,L_Hip,0.119,-0.0759,0.9909,31.49,-12.8,-1.55,-41.95,-1.01,-16.96,0.99469,-0.023377,-0.070162,0.07123,0.0,0.0,0.0,0,0
2026-06-16 17:32:02.826,82118,L_Hip,0.1141,-0.0715,0.9798,31.48,-12.8,-1.55,0.0,0.0,0.0,0.99469,-0.023408,-0.070162,0.07123,0.0,0.0,0.0,0,0
2026-06-16 17:32:02.828,82138,L_Hip,0.1171,-0.073,0.9962,31.49,-12.8,-1.54,-42.12,-0.85,-16.82,0.99469,-0.023408,-0.070162,0.0712,0.0,0.0,0.0,0,0
2026-06-16 17:32:02.831,82158,L_Hip,0.121,-0.0676,0.9812,31.48,-12.8,-1.54,-41.73,0.76,-17.99,0.99469,-0.023408,-0.070162,0.0712,0.0,0.0,0.0,0,0
2026-06-16 17:32:02.849,82123,L_Hip,0.1171,-0.0666,0.9846,31.49,-12.81,-1.56,-41.08,0.13,-17.13,0.99469,-0.023408,-0.070162,0.0712,0.0,0.0,0.0,0,0
2026-06-16 17:32:02.851,82143,L_Hip,0.1176,-0.072,0.9745,31.48,-12.8,-1.56,-41.44,-0.84,-17.12,0.99469,-0.023408,-0.070193,0.07123,0.0,0.0,0.0,0,0
2026-06-16 17:32:02.853,82163,L_Hip,0.1166,-0.0789,0.9866,31.48,-12.8,-1.57,0.0,0.0,0.0,0.99469,-0.023377,-0.070193,0.07123,0.0,0.0,0.0,0,0
2026-06-16 17:32:02.855,82183,L_Hip,0.1146,-0.0705,0.989,31.49,-12.81,-1.56,-41.09,-0.19,-16.83,0.99469,-0.023408,-0.070193,0.07123,0.0,0.0,0.0,0,0
2026-06-16 17:32:02.873,82148,L_Hip,0.1151,-0.0774,0.9924,31.48,-12.8,-1.55,-40.94,-0.99,-16.98,0.99469,-0.023408,-0.070223,0.07123,0.0,0.0,0.0,0,0
2026-06-16 17:32:02.876,82168,L_Hip,0.1117,-0.0754,0.9967,31.5,-12.82,-1.57,-42.11,-0.2,-16.82,0.99469,-0.023377,-0.070223,0.07123,0.0,0.0,0.0,0,0
2026-06-16 17:32:02.878,82188,L_Hip,0.119,-0.0744,0.9774,31.49,-12.8,-1.56,0.0,0.0,0.0,0.99469,-0.023377,-0.070254,0.0712,0.0,0.0,0.0,0,0
2026-06-16 17:32:02.880,82208,L_Hip,0.1097,-0.0759,0.9774,31.5,-12.82,-1.54,-41.59,0.28,-16.68,0.99469,-0.023377,-0.070223,0.07123,0.0,0.0,0.0,0,0
2026-06-16 17:32:02.924,82198,L_Hip,0.1141,-0.0739,0.989,31.49,-12.79,-1.55,-40.76,-0.82,-17.42,0.99469,-0.023347,-0.070223,0.0712,0.0,0.0,0.0,0,0
2026-06-16 17:32:02.926,82218,L_Hip,0.1166,-0.0695,0.9924,31.49,-12.8,-1.54,-40.03,1.76,-17.73,0.99469,-0.023377,-0.070254,0.0712,0.0,0.0,0.0,0,0
2026-06-16 17:32:02.928,82238,L_Hip,0.1141,-0.0754,0.9667,31.5,-12.8,-1.56,0.0,0.0,0.0,0.99469,-0.023347,-0.070284,0.0712,0.0,0.0,0.0,0,0
2026-06-16 17:32:02.930,82258,L_Hip,0.0876,-0.0754,1.0127,31.48,-12.77,-1.55,-41.09,-0.51,-17.12,0.99469,-0.023347,-0.070284,0.0712,0.0,0.0,0.0,0,0
2026-06-16 17:32:02.999,82273,L_Hip,0.1097,-0.0902,1.0103,31.48,-12.82,-1.56,-42.28,0.26,-16.09,0.99469,-0.023316,-0.070284,0.0712,0.0,0.0,0.0,0,0
2026-06-16 17:32:03.001,82293,L_Hip,0.0994,-0.072,0.9638,31.47,-12.81,-1.55,-41.45,0.11,-15.09,0.99469,-0.023316,-0.070284,0.0712,0.0,0.0,0.0,0,0
2026-06-16 17:32:03.003,82313,L_Hip,0.1112,-0.0818,0.9798,31.5,-12.8,-1.57,0.0,0.0,0.0,0.99469,-0.023286,-0.070284,0.071169,0.0,0.0,0.0,0,0
2026-06-16 17:32:03.005,82333,L_Hip,0.1156,-0.0779,1.003,31.49,-12.79,-1.54,-42.42,-0.2,-18.27,0.99469,-0.023316,-0.070284,0.071169,0.0,0.0,0.0,0,0
2026-06-16 17:32:03.024,82298,L_Hip,0.1102,-0.0877,1.0079,31.48,-12.8,-1.54,-41.11,-0.51,-15.96,0.99469,-0.023316,-0.070254,0.0712,0.0,0.0,0.0,0,0
2026-06-16 17:32:03.026,82318,L_Hip,0.1068,-0.0695,0.9924,31.5,-12.79,-1.57,-41.95,-0.69,-16.38,0.99469,-0.023286,-0.070284,0.0712,0.0,0.0,0.0,0,0
2026-06-16 17:32:03.028,82338,L_Hip,0.1141,-0.071,1.0001,31.5,-12.8,-1.55,-40.9,-0.34,-18.14,0.99469,-0.023286,-0.070284,0.0712,0.0,0.0,0.0,0,0
2026-06-16 17:32:03.030,82358,L_Hip,0.121,-0.0681,0.9929,31.51,-12.8,-1.56,0.0,0.0,0.0,0.99469,-0.023286,-0.070284,0.0712,0.0,0.0,0.0,0,0
2026-06-16 17:32:03.049,82323,L_Hip,0.1171,-0.072,0.9953,31.48,-12.81,-1.56,-42.07,1.08,-17.11,0.99469,-0.023255,-0.070193,0.0712,0.0,0.0,0.0,0,0
2026-06-16 17:32:03.051,82343,L_Hip,0.1274,-0.096,1.0127,31.48,-12.81,-1.54,-41.89,0.6,-18.42,0.99469,-0.023225,-0.070132,0.0712,0.0,0.0,0.0,0,0
2026-06-16 17:32:03.053,82363,L_Hip,0.1185,-0.0813,0.9875,31.48,-12.81,-1.54,-42.08,0.43,-17.4,0.99472,-0.023225,-0.070132,0.0712,0.0,0.0,0.0,0,0
2026-06-16 17:32:03.055,82383,L_Hip,0.1141,-0.071,0.9967,31.48,-12.8,-1.54,0.0,0.0,0.0,0.99472,-0.023225,-0.070101,0.071169,0.0,0.0,0.0,0,0
2026-06-16 17:32:03.099,82373,L_Hip,0.118,-0.0725,0.9798,31.49,-12.81,-1.54,-41.75,0.12,-17.7,0.99472,-0.023194,-0.07007,0.071169,0.0,0.0,0.0,0,0
2026-06-16 17:32:03.101,82393,L_Hip,0.1171,-0.0813,0.9924,31.5,-12.8,-1.56,-40.39,0.79,-17.43,0.99472,-0.023194,-0.07007,0.0712,0.0,0.0,0.0,0,0
2026-06-16 17:32:03.103,82413,L_Hip,0.1087,-0.0661,0.989,31.48,-12.81,-1.54,-40.91,-0.34,-17.85,0.99472,-0.023194,-0.07007,0.071169,0.0,0.0,0.0,0,0
2026-06-16 17:32:03.106,82433,L_Hip,0.1122,-0.0725,0.9725,31.49,-12.8,-1.54,-40.77,-1.15,-16.84,0.99472,-0.023164,-0.07004,0.071169,0.0,0.0,0.0,0,0
2026-06-16 17:32:03.124,82398,L_Hip,0.1136,-0.0843,0.989,31.49,-12.8,-1.54,-40.58,0.3,-16.7,0.99472,-0.023164,-0.07004,0.071169,0.0,0.0,0.0,0,0
2026-06-16 17:32:03.126,82418,L_Hip,0.1141,-0.0705,0.987,31.5,-12.8,-1.55,0.0,0.0,0.0,0.99472,-0.023133,-0.070009,0.071169,0.0,0.0,0.0,0,0
2026-06-16 17:32:03.128,82438,L_Hip,0.1161,-0.0754,0.9996,31.5,-12.8,-1.56,-42.11,-0.21,-16.24,0.99472,-0.023164,-0.07004,0.071169,0.0,0.0,0.0,0,0
2026-06-16 17:32:03.130,82458,L_Hip,0.1077,-0.0744,0.9716,31.48,-12.8,-1.54,-41.47,-1.81,-16.53,0.99472,-0.023164,-0.07007,0.071169,0.0,0.0,0.0,0,0
2026-06-16 17:32:03.174,82448,L_Hip,0.1141,-0.071,0.9885,31.49,-12.8,-1.54,-42.59,-0.05,-17.83,0.99472,-0.023164,-0.07007,0.0712,0.0,0.0,0.0,0,0
2026-06-16 17:32:03.176,82468,L_Hip,0.118,-0.0779,0.9822,31.48,-12.81,-1.54,0.0,0.0,0.0,0.99472,-0.023194,-0.07004,0.0712,0.0,0.0,0.0,0,0
2026-06-16 17:32:03.178,82488,L_Hip,0.119,-0.0774,0.9817,31.5,-12.8,-1.54,-42.61,-1.34,-18.41,0.99472,-0.023194,-0.07004,0.0712,0.0,0.0,0.0,0,0
2026-06-16 17:32:03.180,82508,L_Hip,0.1146,-0.0749,0.9962,31.51,-12.79,-1.54,-42.43,-0.21,-17.69,0.99472,-0.023194,-0.07004,0.0712,0.0,0.0,0.0,0,0
2026-06-16 17:32:03.224,82498,L_Hip,0.1126,-0.0671,0.9885,31.49,-12.79,-1.56,-41.11,-0.83,-16.25,0.99472,-0.023194,-0.07004,0.0712,0.0,0.0,0.0,0,0
2026-06-16 17:32:03.226,82518,L_Hip,0.1249,-0.073,0.9856,31.49,-12.8,-1.54,0.0,0.0,0.0,0.99472,-0.023194,-0.07004,0.0712,0.0,0.0,0.0,0,0
2026-06-16 17:32:03.228,82538,L_Hip,0.1205,-0.0833,0.9793,31.5,-12.8,-1.54,-41.42,0.12,-17.12,0.99472,-0.023225,-0.07004,0.0712,0.0,0.0,0.0,0,0
2026-06-16 17:32:03.230,82558,L_Hip,0.1126,-0.0769,1.0011,31.51,-12.8,-1.55,-41.26,0.61,-16.11,0.99472,-0.023225,-0.07004,0.0712,0.0,0.0,0.0,0,0
2026-06-16 17:32:03.274,82548,L_Hip,0.1156,-0.0739,0.9846,31.49,-12.8,-1.55,-41.92,-0.36,-17.84,0.99472,-0.023225,-0.07004,0.0712,0.0,0.0,0.0,0,0
2026-06-16 17:32:03.276,82568,L_Hip,0.1176,-0.0769,0.9841,31.5,-12.8,-1.56,-41.45,-0.52,-15.96,0.99472,-0.023225,-0.070009,0.07123,0.0,0.0,0.0,0,0
2026-06-16 17:32:03.278,82588,L_Hip,0.1136,-0.0749,0.9817,31.48,-12.8,-1.54,0.0,0.0,0.0,0.99472,-0.023255,-0.070009,0.07123,0.0,0.0,0.0,0,0
2026-06-16 17:32:03.280,82608,L_Hip,0.1146,-0.0833,0.9904,31.49,-12.81,-1.54,-42.26,-0.04,-17.25,0.99472,-0.023255,-0.070009,0.07123,0.0,0.0,0.0,0,0
2026-06-16 17:32:03.300,82573,L_Hip,0.1141,-0.0754,0.989,31.49,-12.8,-1.54,-41.6,-0.68,-17.26,0.99472,-0.023255,-0.070009,0.07123,0.0,0.0,0.0,0,1
2026-06-16 17:32:03.302,82593,L_Hip,0.1107,-0.0705,0.9895,31.49,-12.81,-1.55,-41.57,0.93,-17.27,0.99472,-0.023255,-0.070009,0.07123,0.0,0.0,0.0,0,1
2026-06-16 17:32:03.304,82613,L_Hip,0.118,-0.0685,0.9866,31.48,-12.8,-1.54,0.0,0.0,0.0,0.99472,-0.023255,-0.070009,0.07123,0.0,0.0,0.0,0,1
2026-06-16 17:32:03.307,82633,L_Hip,0.1171,-0.0808,0.9924,31.48,-12.81,-1.55,-41.29,-1.96,-17.26,0.99472,-0.023255,-0.07004,0.07123,0.0,0.0,0.0,0,1
2026-06-16 17:32:03.348,82623,L_Hip,0.1136,-0.0685,0.9919,31.48,-12.81,-1.55,-41.92,-0.68,-18.13,0.99472,-0.023286,-0.070009,0.07123,0.0,0.0,0.0,0,1
2026-06-16 17:32:03.350,82643,L_Hip,0.119,-0.0769,1.0074,31.48,-12.8,-1.54,0.0,0.0,0.0,0.99472,-0.023286,-0.070009,0.07123,0.0,0.0,0.0,0,1
2026-06-16 17:32:03.353,82663,L_Hip,0.1136,-0.0779,0.9885,31.48,-12.8,-1.55,-41.27,-0.99,-17.26,0.99472,-0.023286,-0.070009,0.07123,0.0,0.0,0.0,0,1
2026-06-16 17:32:03.355,82683,L_Hip,0.1161,-0.07,0.9812,31.49,-12.8,-1.54,-41.08,0.13,-17.13,0.99472,-0.023286,-0.07004,0.07123,0.0,0.0,0.0,0,1
2026-06-16 17:32:03.374,82648,L_Hip,0.1161,-0.0739,1.0113,31.48,-12.81,-1.54,-42.29,-1.01,-16.67,0.99472,-0.023286,-0.07004,0.07123,0.0,0.0,0.0,0,1
2026-06-16 17:32:03.376,82668,L_Hip,0.119,-0.073,0.9982,31.5,-12.8,-1.54,-41.6,-0.68,-17.55,0.99472,-0.023255,-0.070009,0.07123,0.0,0.0,0.0,0,1
2026-06-16 17:32:03.378,82688,L_Hip,0.1117,-0.0744,0.9977,31.49,-12.8,-1.55,0.0,0.0,0.0,0.99472,-0.023255,-0.070009,0.07123,0.0,0.0,0.0,0,1
2026-06-16 17:32:03.380,82708,L_Hip,0.1097,-0.0828,0.9817,31.5,-12.8,-1.55,-41.1,-0.51,-16.54,0.99472,-0.023255,-0.070009,0.07123,0.0,0.0,0.0,0,1
2026-06-16 17:32:03.399,82673,L_Hip,0.1205,-0.0793,0.9817,31.49,-12.8,-1.55,-41.39,0.77,-18.29,0.99472,-0.023255,-0.070009,0.07123,0.0,0.0,0.0,0,1
2026-06-16 17:32:03.401,82693,L_Hip,0.1136,-0.0774,0.9788,31.49,-12.8,-1.54,-40.08,-0.49,-17.14,0.99472,-0.023316,-0.070009,0.07123,0.0,0.0,0.0,0,1
2026-06-16 17:32:03.403,82713,L_Hip,0.1146,-0.0764,0.9885,31.49,-12.81,-1.54,0.0,0.0,0.0,0.99472,-0.023286,-0.070009,0.07123,0.0,0.0,0.0,0,1
2026-06-16 17:32:03.405,82733,L_Hip,0.1136,-0.0784,0.99,31.48,-12.8,-1.55,-42.09,1.07,-15.95,0.99472,-0.023316,-0.070009,0.07123,0.0,0.0,0.0,0,1
2026-06-16 17:32:03.473,82748,L_Hip,0.118,-0.0759,0.9933,31.48,-12.79,-1.56,-41.29,-0.68,-15.81,0.99472,-0.023316,-0.070009,0.071261,0.0,0.0,0.0,0,1
2026-06-16 17:32:03.476,82768,L_Hip,0.1166,-0.0838,0.9938,31.51,-12.79,-1.54,-41.93,-0.36,-17.26,0.99472,-0.023316,-0.07004,0.071261,0.0,0.0,0.0,0,1
2026-06-16 17:32:03.478,82788,L_Hip,0.1068,-0.0789,0.9812,31.5,-12.82,-1.55,0.0,0.0,0.0,0.99472,-0.023316,-0.07004,0.071261,0.0,0.0,0.0,0,1
2026-06-16 17:32:03.480,82808,L_Hip,0.1166,-0.0681,0.988,31.51,-12.8,-1.54,-41.07,0.45,-17.13,0.99469,-0.023316,-0.07004,0.071261,0.0,0.0,0.0,0,1
2026-06-16 17:32:03.499,82773,L_Hip,0.1141,-0.0769,0.9851,31.49,-12.8,-1.54,-41.05,1.42,-17.42,0.99469,-0.023316,-0.07004,0.071261,0.0,0.0,0.0,0,1
2026-06-16 17:32:03.501,82793,L_Hip,0.1161,-0.0793,0.9929,31.5,-12.8,-1.54,-41.75,-0.51,-18.28,0.99472,-0.023316,-0.070009,0.071261,0.0,0.0,0.0,0,1
2026-06-16 17:32:03.503,82813,L_Hip,0.118,-0.0769,0.9808,31.48,-12.8,-1.54,-42.27,-0.69,-17.54,0.99469,-0.023316,-0.07004,0.071291,0.0,0.0,0.0,0,1
2026-06-16 17:32:03.506,82833,L_Hip,0.1117,-0.0828,1.0001,31.48,-12.8,-1.55,0.0,0.0,0.0,0.99469,-0.023316,-0.07004,0.071291,0.0,0.0,0.0,0,1
2026-06-16 17:32:03.523,82798,L_Hip,0.1136,-0.0823,0.9962,31.49,-12.81,-1.55,-41.74,0.44,-17.99,0.99469,-0.023347,-0.07004,0.071291,0.0,0.0,0.0,0,1
2026-06-16 17:32:03.526,82818,L_Hip,0.1156,-0.0808,0.9982,31.49,-12.81,-1.54,-41.79,-1.17,-16.53,0.99469,-0.023347,-0.07004,0.071291,0.0,0.0,0.0,0,1
2026-06-16 17:32:03.528,82838,L_Hip,0.1102,-0.0622,1.0016,31.48,-12.81,-1.55,0.0,0.0,0.0,0.99469,-0.023347,-0.07004,0.071291,0.0,0.0,0.0,0,1
2026-06-16 17:32:03.530,82858,L_Hip,0.1185,-0.0784,1.0006,31.48,-12.81,-1.54,-41.39,1.41,-17.13,0.99469,-0.023377,-0.07004,0.071291,0.0,0.0,0.0,0,1
2026-06-16 17:32:03.573,82848,L_Hip,0.122,-0.0681,0.9929,31.48,-12.8,-1.56,-40.4,0.46,-17.14,0.99469,-0.023377,-0.07007,0.071291,0.0,0.0,0.0,0,1
2026-06-16 17:32:03.576,82868,L_Hip,0.1097,-0.0705,0.9856,31.48,-12.8,-1.55,-41.92,-0.04,-17.55,0.99469,-0.023408,-0.07007,0.071322,0.0,0.0,0.0,0,1
2026-06-16 17:32:03.578,82888,L_Hip,0.1195,-0.0671,0.9846,31.49,-12.8,-1.56,-42.1,-0.52,-17.69,0.99469,-0.023408,-0.07007,0.071322,0.0,0.0,0.0,0,1
2026-06-16 17:32:03.581,82908,L_Hip,0.1141,-0.0725,0.9841,31.49,-12.79,-1.56,-40.74,-0.18,-17.42,0.99469,-0.023438,-0.07007,0.071322,0.0,0.0,0.0,0,1
2026-06-16 17:32:03.623,82898,L_Hip,0.1077,-0.0651,0.9962,31.49,-12.8,-1.56,-40.76,-0.18,-16.55,0.99469,-0.023438,-0.07007,0.071322,0.0,0.0,0.0,0,1
2026-06-16 17:32:03.626,82918,L_Hip,0.1185,-0.0636,1.0006,31.49,-12.8,-1.56,0.0,0.0,0.0,0.99469,-0.023438,-0.07007,0.071322,0.0,0.0,0.0,0,1
2026-06-16 17:32:03.628,82938,L_Hip,0.122,-0.0793,0.9725,31.49,-12.8,-1.55,-41.92,-0.04,-17.55,0.99469,-0.023469,-0.070101,0.071322,0.0,0.0,0.0,0,1
2026-06-16 17:32:03.630,82958,L_Hip,0.1082,-0.0754,0.9788,31.5,-12.79,-1.55,-41.92,-1.0,-19.0,0.99469,-0.023469,-0.07007,0.071322,0.0,0.0,0.0,0,1
2026-06-16 17:32:03.649,82923,L_Hip,0.12,-0.07,0.9827,31.48,-12.79,-1.55,-41.93,-1.0,-17.84,0.99469,-0.023469,-0.070101,0.071322,0.0,0.0,0.0,0,1
2026-06-16 17:32:03.651,82943,L_Hip,0.1185,-0.0676,0.99,31.5,-12.8,-1.54,0.0,0.0,0.0,0.99469,-0.023438,-0.070101,0.071322,0.0,0.0,0.0,0,1
2026-06-16 17:32:03.653,82963,L_Hip,0.1122,-0.0808,0.9754,31.5,-12.79,-1.55,-43.12,-0.87,-17.38,0.99469,-0.023438,-0.070101,0.071322,0.0,0.0,0.0,0,1
2026-06-16 17:32:03.655,82983,L_Hip,0.1161,-0.0744,0.9943,31.5,-12.81,-1.55,-42.58,0.59,-17.54,0.99469,-0.023408,-0.070101,0.071322,0.0,0.0,0.0,0,1
2026-06-16 17:32:03.674,82948,L_Hip,0.1171,-0.0676,0.9866,31.51,-12.8,-1.54,-41.77,-1.16,-17.69,0.99469,-0.023408,-0.070101,0.071322,0.0,0.0,0.0,0,1
2026-06-16 17:32:03.676,82968,L_Hip,0.1166,-0.0789,0.9841,31.49,-12.8,-1.56,0.0,0.0,0.0,0.99469,-0.023408,-0.07007,0.071322,0.0,0.0,0.0,0,1
2026-06-16 17:32:03.678,82988,L_Hip,0.1161,-0.073,0.9832,31.49,-12.8,-1.56,-40.42,-0.49,-17.13,0.99469,-0.023377,-0.07007,0.071291,-8.55,3.02,319.58,0,1
2026-06-16 17:32:03.681,83008,L_Hip,0.1171,-0.0764,0.9846,31.5,-12.8,-1.55,-40.9,0.29,-17.57,0.99469,-0.023347,-0.07007,0.071291,-8.54,3.02,319.58,0,1
2026-06-16 17:32:03.724,82998,L_Hip,0.1102,-0.0789,0.9754,31.51,-12.8,-1.54,-42.28,-1.01,-17.54,0.99469,-0.023377,-0.07007,0.071291,-8.55,3.02,319.58,0,1
2026-06-16 17:32:03.726,83018,L_Hip,0.119,-0.0656,0.987,31.5,-12.8,-1.54,0.0,0.0,0.0,0.99469,-0.023347,-0.07007,0.071322,-8.54,3.02,319.58,0,1
2026-06-16 17:32:03.728,83038,L_Hip,0.1166,-0.0735,0.9866,31.5,-12.81,-1.55,-41.22,0.29,-18.43,0.99469,-0.023316,-0.070101,0.071322,-8.54,3.01,319.58,0,1
2026-06-16 17:32:03.730,83058,L_Hip,0.1107,-0.0735,0.9837,31.49,-12.81,-1.54,-41.28,-1.0,-16.68,0.99469,-0.023316,-0.07007,0.071322,-8.54,3.02,319.58,0,1
2026-06-16 17:32:03.774,83048,L_Hip,0.1073,-0.071,0.988,31.5,-12.79,-1.55,-42.59,0.58,-17.25,0.99469,-0.023316,-0.07007,0.071322,-8.54,3.02,319.58,0,1
2026-06-16 17:32:03.776,83068,L_Hip,0.1229,-0.0749,0.9919,31.49,-12.81,-1.54,0.0,0.0,0.0,0.99469,-0.023347,-0.07007,0.071291,-8.54,3.02,319.58,0,1
2026-06-16 17:32:03.778,83088,L_Hip,0.1171,-0.0739,0.9788,31.51,-12.8,-1.55,-42.76,0.1,-17.39,0.99469,-0.023316,-0.07007,0.071291,-8.54,3.02,319.58,0,1
2026-06-16 17:32:03.780,83108,L_Hip,0.1185,-0.072,0.9812,31.49,-12.8,-1.54,-40.58,0.3,-16.7,0.99469,-0.023316,-0.07007,0.071291,-8.54,3.02,319.58,0,1
2026-06-16 17:32:03.823,83097,L_Hip,0.1185,-0.071,0.9778,31.5,-12.8,-1.55,-41.94,-0.36,-16.97,0.99469,-0.023347,-0.070101,0.071322,-8.54,3.01,319.58,0,1
2026-06-16 17:32:03.825,83117,L_Hip,0.1077,-0.0646,0.9856,31.5,-12.81,-1.56,0.0,0.0,0.0,0.99469,-0.023347,-0.070101,0.071322,-8.54,3.01,319.58,0,1
2026-06-16 17:32:03.827,83137,L_Hip,0.1117,-0.0681,1.0001,31.49,-12.81,-1.55,-41.57,-0.03,-18.14,0.99469,-0.023347,-0.070101,0.071322,-8.54,3.01,319.58,0,1
2026-06-16 17:32:03.829,83157,L_Hip,0.1122,-0.0774,0.9953,31.5,-12.82,-1.55,-41.06,0.45,-18.0,0.99469,-0.023347,-0.070101,0.071322,-8.54,3.01,319.58,0,1
2026-06-16 17:32:03.849,83123,L_Hip,0.1073,-0.0749,0.9754,31.49,-12.8,-1.55,-41.76,0.76,-15.96,0.99469,-0.023316,-0.070101,0.071322,-8.54,3.01,319.58,0,1
2026-06-16 17:32:03.851,83143,L_Hip,0.12,-0.0789,0.9837,31.5,-12.81,-1.55,-41.24,0.61,-16.98,0.99469,-0.023347,-0.070101,0.071322,-8.54,3.01,319.58,0,1
2026-06-16 17:32:03.853,83163,L_Hip,0.1068,-0.073,0.9783,31.49,-12.8,-1.56,0.0,0.0,0.0,0.99469,-0.023316,-0.070101,0.071322,-8.54,3.01,319.58,0,1
2026-06-16 17:32:03.856,83183,L_Hip,0.1141,-0.0779,0.9817,31.48,-12.79,-1.56,-39.91,-0.32,-17.29,0.99469,-0.023316,-0.070132,0.071322,-8.54,3.01,319.58,0,1
2026-06-16 17:32:03.874,83148,L_Hip,0.1185,-0.071,0.9808,31.48,-12.8,-1.55,-43.11,-0.22,-17.09,0.99469,-0.023316,-0.070132,0.071322,-8.54,3.01,319.58,0,1
2026-06-16 17:32:03.876,83168,L_Hip,0.1087,-0.0705,0.9856,31.5,-12.81,-1.55,-40.42,-1.14,-18.0,0.99469,-0.023316,-0.070101,0.071322,-8.54,3.01,319.58,0,1
2026-06-16 17:32:03.879,83188,L_Hip,0.1107,-0.0666,0.9759,31.5,-12.81,-1.55,0.0,0.0,0.0,0.99469,-0.023316,-0.070101,0.071322,-8.54,3.01,319.58,0,1
2026-06-16 17:32:03.881,83208,L_Hip,0.1156,-0.0666,0.9851,31.51,-12.8,-1.56,-42.11,-0.85,-17.4,0.99469,-0.023286,-0.070101,0.071322,-8.54,3.01,319.58,0,1
2026-06-16 17:32:03.924,83198,L_Hip,0.1185,-0.0715,0.9967,31.49,-12.81,-1.54,-42.11,-0.21,-16.53,0.99469,-0.023286,-0.070101,0.071352,-8.54,3.01,319.59,0,1
2026-06-16 17:32:03.926,83218,L_Hip,0.1146,-0.0681,0.9875,31.48,-12.81,-1.57,-41.09,-0.51,-17.41,0.99469,-0.023316,-0.070101,0.071352,-8.54,3.01,319.59,0,1
2026-06-16 17:32:03.928,83238,L_Hip,0.1136,-0.0715,0.9929,31.48,-12.83,-1.55,0.0,0.0,0.0,0.99469,-0.023316,-0.070101,0.071352,-8.54,3.01,319.59,0,1
2026-06-16 17:32:03.930,83258,L_Hip,0.119,-0.0774,0.9841,31.49,-12.8,-1.54,-40.93,-0.99,-17.56,0.99469,-0.023316,-0.070101,0.071322,-8.54,3.01,319.58,0,1
2026-06-16 17:32:03.974,83248,L_Hip,0.1073,-0.0715,0.9856,31.49,-12.8,-1.55,-41.26,0.28,-16.4,0.99469,-0.023316,-0.070101,0.071322,-8.54,3.01,319.58,0,1
2026-06-16 17:32:03.976,83268,L_Hip,0.1112,-0.0681,0.9967,31.48,-12.8,-1.54,-42.13,-0.53,-15.95,0.99469,-0.023316,-0.070101,0.071322,-8.54,3.01,319.58,0,1
2026-06-16 17:32:03.978,83288,L_Hip,0.1161,-0.0636,0.9904,31.49,-12.8,-1.55,0.0,0.0,0.0,0.99469,-0.023286,-0.070132,0.071322,-8.54,3.01,319.58,0,1
2026-06-16 17:32:03.980,83308,L_Hip,0.1082,-0.0715,0.9798,31.5,-12.8,-1.54,-41.6,-0.36,-16.68,0.99469,-0.023286,-0.070101,0.071322,-8.54,3.01,319.58,0,1
2026-06-16 17:32:03.998,83273,L_Hip,0.1097,-0.0848,0.9909,31.5,-12.8,-1.55,-42.28,-0.69,-16.96,0.99469,-0.023225,-0.070101,0.071322,-8.53,3.01,319.58,0,1
2026-06-16 17:32:04.001,83293,L_Hip,0.1073,-0.0764,0.9919,31.5,-12.8,-1.55,-40.94,-0.35,-16.11,0.99469,-0.023225,-0.070101,0.071322,-8.53,3.01,319.58,0,1
2026-06-16 17:32:04.003,83313,L_Hip,0.1171,-0.0725,0.9953,31.48,-12.81,-1.55,-42.93,-0.06,-17.53,0.99469,-0.023225,-0.070132,0.071322,-8.53,3.01,319.58,0,1
2026-06-16 17:32:04.005,83333,L_Hip,0.1185,-0.0749,0.9938,31.49,-12.79,-1.55,0.0,0.0,0.0,0.99469,-0.023194,-0.070132,0.071322,-8.53,3.01,319.58,0,1
2026-06-16 17:32:04.074,83348,L_Hip,0.1097,-0.0739,0.989,31.5,-12.8,-1.54,-42.61,-1.02,-17.53,0.99469,-0.023194,-0.070132,0.071322,-8.53,3.01,319.58,0,1
2026-06-16 17:32:04.076,83368,L_Hip,0.1195,-0.0641,0.9962,31.5,-12.78,-1.55,-41.23,0.93,-17.56,0.99469,-0.023194,-0.070132,0.071322,-8.53,3.01,319.58,0,1
2026-06-16 17:32:04.078,83388,L_Hip,0.1146,-0.0656,0.9861,31.49,-12.78,-1.54,-41.08,0.13,-17.13,0.99469,-0.023194,-0.070132,0.071322,-8.53,3.01,319.58,0,1
2026-06-16 17:32:04.080,83408,L_Hip,0.1136,-0.0617,0.9783,31.49,-12.8,-1.56,0.0,0.0,0.0,0.99469,-0.023164,-0.070101,0.071322,-8.52,3.01,319.58,0,1
2026-06-16 17:32:04.099,83373,L_Hip,0.1141,-0.07,0.9837,31.49,-12.8,-1.55,-40.74,0.13,-17.13,0.99469,-0.023164,-0.070101,0.071322,-8.52,3.01,319.58,0,1
2026-06-16 17:32:04.101,83393,L_Hip,0.1176,-0.0739,0.9774,31.5,-12.79,-1.54,-40.42,-0.82,-17.13,0.99469,-0.023133,-0.070101,0.071352,-8.52,3.01,319.59,0,1
2026-06-16 17:32:04.103,83413,L_Hip,0.1156,-0.0676,0.9996,31.49,-12.8,-1.54,-41.27,-0.99,-17.26,0.99469,-0.023164,-0.07007,0.071352,-8.52,3.02,319.59,0,1
2026-06-16 17:32:04.106,83433,L_Hip,0.1136,-0.0749,0.9895,31.49,-12.8,-1.55,-40.89,1.26,-17.28,0.99469,-0.023164,-0.07007,0.071352,-8.52,3.02,319.59,0,1
2026-06-16 17:32:04.148,83423,L_Hip,0.1077,-0.0769,0.987,31.48,-12.8,-1.54,-42.45,-0.53,-16.81,0.99469,-0.023133,-0.070101,0.071352,-8.52,3.01,319.59,0,1
2026-06-16 17:32:04.151,83443,L_Hip,0.1141,-0.07,0.9749,31.5,-12.8,-1.56,0.0,0.0,0.0,0.99469,-0.023164,-0.07007,0.071352,-8.52,3.02,319.59,0,1
2026-06-16 17:32:04.153,83463,L_Hip,0.1161,-0.072,0.9701,31.51,-12.81,-1.54,-42.25,0.59,-17.55,0.99469,-0.023164,-0.07004,0.071352,-8.52,3.02,319.59,0,1
2026-06-16 17:32:04.155,83483,L_Hip,0.1082,-0.0744,0.9933,31.5,-12.8,-1.55,-40.25,-0.97,-17.86,0.99469,-0.023133,-0.07004,0.071352,-8.52,3.02,319.59,0,1
2026-06-16 17:32:04.174,83448,L_Hip,0.1102,-0.0779,0.9832,31.48,-12.81,-1.55,-41.42,0.12,-16.83,0.99469,-0.023103,-0.07004,0.071352,-8.51,3.02,319.59,0,1
2026-06-16 17:32:04.176,83468,L_Hip,0.1151,-0.0774,0.9856,31.48,-12.79,-1.56,0.0,0.0,0.0,0.99469,-0.023133,-0.07007,0.071352,-8.52,3.02,319.59,0,1
2026-06-16 17:32:04.179,83488,L_Hip,0.1141,-0.0681,0.9851,31.49,-12.8,-1.55,-41.23,0.61,-17.56,0.99469,-0.023133,-0.07007,0.071352,-8.52,3.02,319.59,0,1
2026-06-16 17:32:04.181,83508,L_Hip,0.1097,-0.0749,0.9822,31.49,-12.8,-1.55,-41.43,-0.51,-17.41,0.99469,-0.023133,-0.07007,0.071352,-8.52,3.02,319.59,0,1
2026-06-16 17:32:04.199,83473,L_Hip,0.1136,-0.0735,0.9846,31.49,-12.8,-1.54,-41.42,-0.51,-17.7,0.99469,-0.023103,-0.07007,0.071352,-8.51,3.02,319.59,0,1
2026-06-16 17:32:04.201,83493,L_Hip,0.12,-0.0735,0.9909,31.5,-12.81,-1.54,0.0,0.0,0.0,0.99469,-0.023103,-0.07007,0.071352,-8.51,3.02,319.59,0,1
2026-06-16 17:32:04.203,83513,L_Hip,0.1126,-0.0808,0.9827,31.49,-12.8,-1.55,-41.46,-0.52,-15.67,0.99469,-0.023103,-0.07004,0.071352,-8.51,3.02,319.59,0,1
2026-06-16 17:32:04.205,83533,L_Hip,0.1082,-0.0843,0.9904,31.5,-12.79,-1.55,-41.41,0.77,-16.83,0.99469,-0.023072,-0.07007,0.071352,-8.51,3.02,319.59,0,1
2026-06-16 17:32:04.274,83548,L_Hip,0.1171,-0.0784,0.9851,31.5,-12.81,-1.54,-40.74,-0.18,-17.71,0.99469,-0.023103,-0.07007,0.071383,-8.51,3.02,319.59,0,1
2026-06-16 17:32:04.276,83568,L_Hip,0.1102,-0.0715,0.9919,31.51,-12.8,-1.56,0.0,0.0,0.0,0.99469,-0.023103,-0.07007,0.071383,-8.51,3.02,319.59,0,1
2026-06-16 17:32:04.278,83588,L_Hip,0.1126,-0.073,0.9875,31.49,-12.8,-1.55,-42.78,-0.54,-17.39,0.99469,-0.023103,-0.07007,0.071383,-8.51,3.02,319.59,0,1
2026-06-16 17:32:04.280,83608,L_Hip,0.119,-0.0725,0.9846,31.51,-12.81,-1.54,-40.78,-1.15,-16.25,0.99469,-0.023103,-0.07007,0.071383,-8.51,3.02,319.59,0,1
2026-06-16 17:32:04.298,83573,L_Hip,0.1141,-0.07,0.99,31.48,-12.8,-1.55,-41.95,-0.69,-16.38,0.99469,-0.023103,-0.07007,0.071383,-8.51,3.02,319.59,0,1
2026-06-16 17:32:04.301,83593,L_Hip,0.1161,-0.0715,0.988,31.49,-12.81,-1.56,0.0,0.0,0.0,0.99469,-0.023133,-0.07007,0.071383,-8.52,3.02,319.59,0,1
2026-06-16 17:32:04.304,83613,L_Hip,0.1171,-0.0666,0.9929,31.5,-12.8,-1.58,-41.91,0.6,-17.26,0.99469,-0.023133,-0.070101,0.071383,-8.52,3.01,319.59,0,1
2026-06-16 17:32:04.306,83633,L_Hip,0.1102,-0.0779,0.9817,31.48,-12.8,-1.56,-41.61,-0.68,-16.97,0.99469,-0.023133,-0.070101,0.071383,-8.52,3.01,319.59,0,1
2026-06-16 17:32:04.323,83598,L_Hip,0.1166,-0.0612,0.9725,31.48,-12.8,-1.54,-41.42,0.12,-16.83,0.99469,-0.023164,-0.07007,0.071383,-8.52,3.02,319.59,0,1
2026-06-16 17:32:04.326,83618,L_Hip,0.1176,-0.0744,0.987,31.49,-12.8,-1.55,-41.41,-0.19,-17.99,0.99469,-0.023164,-0.070101,0.071383,-8.52,3.01,319.59,0,1
2026-06-16 17:32:04.328,83638,L_Hip,0.12,-0.0769,0.9938,31.5,-12.8,-1.55,0.0,0.0,0.0,0.99469,-0.023164,-0.070101,0.071383,-8.52,3.01,319.59,0,1
2026-06-16 17:32:04.330,83658,L_Hip,0.1166,-0.0685,0.9841,31.5,-12.8,-1.56,-40.27,-1.3,-16.99,0.99469,-0.023164,-0.070101,0.071383,-8.52,3.01,319.59,0,1
2026-06-16 17:32:04.374,83648,L_Hip,0.118,-0.072,0.9948,31.48,-12.8,-1.54,-40.42,-0.17,-16.84,0.99469,-0.023133,-0.070132,0.071383,-8.52,3.01,319.59,0,1
2026-06-16 17:32:04.376,83668,L_Hip,0.1176,-0.0759,0.9866,31.5,-12.81,-1.54,-41.08,-0.18,-17.42,0.99469,-0.023133,-0.070162,0.071413,-8.52,3.01,319.59,0,1
2026-06-16 17:32:04.378,83688,L_Hip,0.1102,-0.0661,0.9851,31.5,-12.8,-1.54,0.0,0.0,0.0,0.99469,-0.023133,-0.070132,0.071383,-8.52,3.01,319.59,0,1
2026-06-16 17:32:04.380,83708,L_Hip,0.1014,-0.072,0.9909,31.5,-12.81,-1.54,-41.62,-1.32,-16.68,0.99469,-0.023133,-0.070132,0.071383,-8.52,3.01,319.59,0,1
2026-06-16 17:32:04.399,83673,L_Hip,0.1151,-0.07,0.9875,31.5,-12.82,-1.55,-42.13,-1.82,-17.1,0.99469,-0.023133,-0.070132,0.071383,-8.52,3.01,319.59,0,1
2026-06-16 17:32:04.401,83693,L_Hip,0.1136,-0.0676,0.988,31.5,-12.8,-1.54,-42.25,0.91,-16.97,0.99469,-0.023133,-0.070101,0.071383,-8.52,3.01,319.59,0,1
2026-06-16 17:32:04.403,83713,L_Hip,0.1141,-0.0779,0.9822,31.49,-12.81,-1.54,0.0,0.0,0.0,0.99469,-0.023103,-0.070101,0.071383,-8.52,3.01,319.59,0,1
2026-06-16 17:32:04.406,83733,L_Hip,0.1156,-0.0789,0.989,31.48,-12.8,-1.54,-41.76,-0.2,-17.11,0.99469,-0.023103,-0.070132,0.071383,-8.52,3.01,319.59,0,1
2026-06-16 17:32:04.474,83748,L_Hip,0.1161,-0.0774,0.9904,31.49,-12.81,-1.54,-40.07,-0.17,-17.14,0.99469,-0.023103,-0.070132,0.071383,-8.52,3.01,319.59,0,1
2026-06-16 17:32:04.476,83768,L_Hip,0.1171,-0.0759,0.9909,31.5,-12.81,-1.54,-40.9,0.3,-17.86,0.99469,-0.023133,-0.070132,0.071383,-8.52,3.01,319.59,0,1
2026-06-16 17:32:04.478,83788,L_Hip,0.1176,-0.0793,0.9953,31.48,-12.8,-1.55,0.0,0.0,0.0,0.99469,-0.023133,-0.070162,0.071383,-8.52,3.01,319.59,0,1
2026-06-16 17:32:04.481,83808,L_Hip,0.1122,-0.072,0.988,31.49,-12.81,-1.55,-40.25,-0.33,-16.99,0.99469,-0.023133,-0.070132,0.071383,-8.52,3.01,319.59,0,1
2026-06-16 17:32:04.499,83773,L_Hip,0.1146,-0.07,0.9967,31.48,-12.79,-1.55,-40.74,0.46,-17.13,0.99469,-0.023103,-0.070132,0.071383,-8.52,3.01,319.59,0,1
2026-06-16 17:32:04.501,83793,L_Hip,0.1112,-0.0749,0.9919,31.48,-12.8,-1.54,-40.24,-0.01,-17.28,0.99469,-0.023103,-0.070132,0.071383,-8.52,3.01,319.59,0,1
2026-06-16 17:32:04.503,83813,L_Hip,0.1195,-0.0769,0.9769,31.49,-12.81,-1.54,-42.95,-0.06,-16.37,0.99469,-0.023072,-0.070132,0.071383,-8.51,3.01,319.59,0,1
2026-06-16 17:32:04.505,83833,L_Hip,0.1215,-0.0764,0.9778,31.49,-12.82,-1.55,0.0,0.0,0.0,0.99469,-0.023103,-0.070132,0.071383,-8.52,3.01,319.59,0,1
2026-06-16 17:32:04.524,83798,L_Hip,0.1156,-0.0695,0.9987,31.51,-12.8,-1.55,-42.93,0.58,-17.24,0.99469,-0.023103,-0.070132,0.071383,-8.52,3.01,319.59,0,1
2026-06-16 17:32:04.526,83818,L_Hip,0.1185,-0.0789,0.9851,31.5,-12.81,-1.55,-40.91,0.62,-16.99,0.99469,-0.023103,-0.070132,0.071383,-8.52,3.01,319.59,0,1
2026-06-16 17:32:04.528,83838,L_Hip,0.1161,-0.071,0.9837,31.5,-12.8,-1.54,-42.45,0.1,-15.94,0.99469,-0.023133,-0.070132,0.071413,-8.52,3.01,319.59,0,1
2026-06-16 17:32:04.530,83858,L_Hip,0.1102,-0.0749,0.9808,31.5,-12.8,-1.56,0.0,0.0,0.0,0.99469,-0.023133,-0.070132,0.071413,-8.52,3.01,319.59,0,1
2026-06-16 17:32:04.574,83848,L_Hip,0.1087,-0.0739,0.9866,31.5,-12.79,-1.55,-41.75,0.12,-17.7,0.99469,-0.023133,-0.070132,0.071413,-8.52,3.01,319.59,0,1
2026-06-16 17:32:04.576,83868,L_Hip,0.1151,-0.0759,0.9851,31.48,-12.8,-1.54,-41.59,-1.0,-18.42,0.99469,-0.023133,-0.070132,0.071413,-8.52,3.01,319.59,0,1
2026-06-16 17:32:04.578,83888,L_Hip,0.1176,-0.073,0.9764,31.48,-12.8,-1.54,-41.38,1.09,-18.0,0.99469,-0.023133,-0.070132,0.071413,-8.52,3.01,319.59,0,1
2026-06-16 17:32:04.581,83908,L_Hip,0.1205,-0.0725,0.9793,31.48,-12.81,-1.54,-40.39,0.47,-17.43,0.99469,-0.023133,-0.070132,0.071413,-8.52,3.01,319.59,0,1
2026-06-16 17:32:04.599,83873,L_Hip,0.1146,-0.0725,0.9948,31.49,-12.81,-1.55,-41.94,-0.36,-16.97,0.99469,-0.023164,-0.070162,0.071413,-8.52,3.01,319.59,0,1
2026-06-16 17:32:04.601,83893,L_Hip,0.1141,-0.0676,0.9837,31.49,-12.8,-1.56,0.0,0.0,0.0,0.99469,-0.023133,-0.070162,0.071413,-8.52,3.01,319.59,0,1
2026-06-16 17:32:04.603,83913,L_Hip,0.1185,-0.0769,0.9788,31.48,-12.79,-1.56,-42.27,-0.69,-17.54,0.99469,-0.023133,-0.070132,0.071413,-8.52,3.01,319.59,0,1
2026-06-16 17:32:04.606,83933,L_Hip,0.1122,-0.0739,0.9924,31.48,-12.8,-1.55,-42.44,0.42,-16.23,0.99469,-0.023133,-0.070162,0.071413,-8.52,3.01,319.59,0,1
2026-06-16 17:32:04.649,83923,L_Hip,0.1126,-0.0833,0.9904,31.48,-12.8,-1.55,-43.27,-0.06,-17.53,0.99469,-0.023133,-0.070132,0.071413,-8.52,3.01,319.59,0,1
2026-06-16 17:32:04.651,83943,L_Hip,0.1166,-0.0749,0.9856,31.49,-12.81,-1.55,0.0,0.0,0.0,0.99469,-0.023133,-0.070132,0.071413,-8.52,3.01,319.59,0,1
2026-06-16 17:32:04.653,83963,L_Hip,0.121,-0.0715,0.9788,31.51,-12.8,-1.55,-41.44,-0.52,-16.54,0.99469,-0.023133,-0.070101,0.071413,-8.52,3.01,319.59,0,1
2026-06-16 17:32:04.655,83983,L_Hip,0.1171,-0.0676,0.9914,31.5,-12.8,-1.56,-41.08,0.45,-16.84,0.99469,-0.023133,-0.070132,0.071413,-8.52,3.01,319.59,0,1
2026-06-16 17:32:04.699,83973,L_Hip,0.1156,-0.07,0.9866,31.51,-12.81,-1.55,-41.44,0.12,-15.67,0.99469,-0.023133,-0.070132,0.071413,-8.52,3.01,319.59,0,1
2026-06-16 17:32:04.701,83993,L_Hip,0.1195,-0.0695,0.9875,31.51,-12.81,-1.54,0.0,0.0,0.0,0.99469,-0.023164,-0.070132,0.071413,-8.52,3.01,319.59,0,1
2026-06-16 17:32:04.703,84013,L_Hip,0.122,-0.0774,0.9837,31.5,-12.8,-1.55,-41.22,0.29,-18.43,0.99469,-0.023133,-0.070162,0.071413,-8.52,3.01,319.59,0,1
2026-06-16 17:32:04.705,84033,L_Hip,0.1215,-0.0705,0.9904,31.48,-12.81,-1.56,-41.42,0.12,-16.83,0.99469,-0.023133,-0.070162,0.071413,-8.52,3.01,319.59,0,1
2026-06-16 17:32:04.723,83998,L_Hip,0.1122,-0.0779,0.9909,31.48,-12.81,-1.56,-41.25,-0.03,-17.27,0.99469,-0.023133,-0.070162,0.071413,-8.52,3.01,319.59,0,1
2026-06-16 17:32:04.726,84018,L_Hip,0.118,-0.0749,0.9764,31.49,-12.8,-1.55,0.0,0.0,0.0,0.99469,-0.023164,-0.070162,0.071413,-8.52,3.01,319.59,0,1
2026-06-16 17:32:04.728,84038,L_Hip,0.1117,-0.0666,0.9895,31.49,-12.8,-1.54,-41.93,-0.36,-17.55,0.99469,-0.023164,-0.070132,0.071413,-8.52,3.01,319.59,0,1
2026-06-16 17:32:04.731,84058,L_Hip,0.1176,-0.0681,0.987,31.49,-12.81,-1.54,-41.96,-1.65,-16.96,0.99469,-0.023164,-0.070162,0.071413,-8.52,3.01,319.59,0,1
2026-06-16 17:32:04.773,84048,L_Hip,0.118,-0.0818,0.9851,31.48,-12.8,-1.55,-41.24,-0.02,-18.14,0.99469,-0.023164,-0.070162,0.071413,-8.52,3.01,319.59,0,1
2026-06-16 17:32:04.776,84068,L_Hip,0.1122,-0.0759,0.9933,31.48,-12.81,-1.54,0.0,0.0,0.0,0.99469,-0.023133,-0.070162,0.071413,-8.52,3.01,319.59,0,1
2026-06-16 17:32:04.778,84088,L_Hip,0.121,-0.0789,0.9783,31.48,-12.8,-1.55,-41.76,0.11,-16.83,0.99469,-0.023103,-0.070162,0.071413,-8.52,3.01,319.59,0,1
2026-06-16 17:32:04.780,84108,L_Hip,0.1107,-0.0695,0.987,31.5,-12.81,-1.54,-41.92,-0.68,-18.13,0.99469,-0.023103,-0.070193,0.071413,-8.52,3.0,319.59,0,1
2026-06-16 17:32:04.799,84073,L_Hip,0.1102,-0.0749,0.9929,31.48,-12.8,-1.54,-41.24,0.61,-16.98,0.99469,-0.023103,-0.070223,0.071413,-8.52,3.0,319.59,0,1
2026-06-16 17:32:04.801,84093,L_Hip,0.1146,-0.0833,1.0059,31.5,-12.81,-1.55,-41.75,0.12,-17.7,0.99469,-0.023103,-0.070193,0.071413,-8.52,3.0,319.59,0,1
2026-06-16 17:32:04.803,84113,L_Hip,0.1126,-0.0725,0.9774,31.49,-12.81,-1.54,0.0,0.0,0.0,0.99469,-0.023103,-0.070193,0.071413,-8.52,3.0,319.59,0,1
2026-06-16 17:32:04.805,84133,L_Hip,0.1171,-0.071,0.9909,31.5,-12.81,-1.55,-41.75,0.12,-17.41,0.99469,-0.023103,-0.070193,0.071413,-8.52,3.0,319.59,0,1
2026-06-16 17:32:04.849,84123,L_Hip,0.1107,-0.0808,0.9919,31.5,-12.8,-1.55,-41.93,-0.04,-17.26,0.99469,-0.023103,-0.070193,0.071413,-8.52,3.0,319.59,0,1
2026-06-16 17:32:04.851,84143,L_Hip,0.1151,-0.0646,0.9909,31.5,-12.81,-1.57,-41.6,-0.36,-16.97,0.99469,-0.023072,-0.070223,0.071413,-8.51,3.0,319.59,0,1
2026-06-16 17:32:04.853,84163,L_Hip,0.1073,-0.0735,0.9948,31.51,-12.8,-1.56,0.0,0.0,0.0,0.99469,-0.023133,-0.070193,0.071413,-8.52,3.0,319.59,0,1
2026-06-16 17:32:04.856,84183,L_Hip,0.1038,-0.0749,0.9716,31.5,-12.8,-1.55,-41.93,-0.36,-17.55,0.99469,-0.023133,-0.070223,0.071413,-8.52,3.0,319.59,0,1
2026-06-16 17:32:04.924,84198,L_Hip,0.1166,-0.0813,0.9943,31.5,-12.8,-1.54,-40.59,-0.02,-16.7,0.99469,-0.023133,-0.070193,0.071444,-8.52,3.0,319.6,0,1
2026-06-16 17:32:04.926,84218,L_Hip,0.1107,-0.0749,0.99,31.48,-12.8,-1.55,-42.23,0.92,-17.84,0.99469,-0.023133,-0.070193,0.071444,-8.52,3.0,319.6,0,1
2026-06-16 17:32:04.928,84238,L_Hip,0.1097,-0.0754,0.9861,31.49,-12.79,-1.54,0.0,0.0,0.0,0.99469,-0.023103,-0.070193,0.071444,-8.52,3.0,319.6,0,1
2026-06-16 17:32:04.930,84258,L_Hip,0.1151,-0.0843,0.9841,31.49,-12.8,-1.55,-40.89,1.26,-17.28,0.99469,-0.023133,-0.070193,0.071444,-8.52,3.0,319.6,0,1
2026-06-16 17:32:04.948,84223,L_Hip,0.1156,-0.07,0.99,31.49,-12.8,-1.54,-41.94,-0.36,-16.68,0.99469,-0.023133,-0.070193,0.071444,-8.52,3.0,319.6,0,1
2026-06-16 17:32:04.951,84243,L_Hip,0.1136,-0.0735,0.9837,31.49,-12.81,-1.54,-42.44,-0.21,-16.81,0.99469,-0.023103,-0.070223,0.071444,-8.52,3.0,319.6,0,1
2026-06-16 17:32:04.953,84263,L_Hip,0.1097,-0.0808,0.9967,31.49,-12.82,-1.56,0.0,0.0,0.0,0.99469,-0.023133,-0.070193,0.071444,-8.52,3.0,319.6,0,1
2026-06-16 17:32:04.956,84283,L_Hip,0.1151,-0.0779,0.9808,31.5,-12.81,-1.56,-41.22,1.58,-17.27,0.99469,-0.023103,-0.070193,0.071444,-8.52,3.0,319.6,0,1
2026-06-16 17:32:04.974,84248,L_Hip,0.1092,-0.0671,0.9745,31.5,-12.78,-1.54,-40.73,0.78,-17.42,0.99469,-0.023103,-0.070162,0.071444,-8.52,3.01,319.6,0,1
2026-06-16 17:32:04.976,84268,L_Hip,0.1185,-0.0744,0.9851,31.5,-12.81,-1.57,-41.74,0.76,-17.12,0.99469,-0.023103,-0.070162,0.071444,-8.52,3.01,319.6,0,1
2026-06-16 17:32:04.978,84288,L_Hip,0.118,-0.0754,0.9933,31.51,-12.81,-1.57,-41.57,-0.03,-18.14,0.99469,-0.023133,-0.070162,0.071444,-8.52,3.01,319.6,0,1
2026-06-16 17:32:04.980,84308,L_Hip,0.1122,-0.0744,0.9904,31.5,-12.81,-1.55,0.0,0.0,0.0,0.99469,-0.023164,-0.070132,0.071444,-8.52,3.01,319.6,0,1
2026-06-16 17:32:04.999,84273,L_Hip,0.1176,-0.0739,0.9827,31.49,-12.8,-1.54,-41.74,-0.51,-18.57,0.99469,-0.023164,-0.070162,0.071444,-8.52,3.01,319.6,0,1
2026-06-16 17:32:05.001,84293,L_Hip,0.1107,-0.0715,0.9938,31.5,-12.8,-1.55,-41.06,-0.18,-18.87,0.99469,-0.023164,-0.070162,0.071444,-8.52,3.01,319.6,0,1
2026-06-16 17:32:05.003,84313,L_Hip,0.1107,-0.07,0.9822,31.49,-12.81,-1.54,-41.42,-0.19,-17.12,0.99469,-0.023164,-0.070162,0.071474,-8.52,3.01,319.6,0,1
2026-06-16 17:32:05.005,84333,L_Hip,0.1112,-0.0759,0.9958,31.51,-12.8,-1.53,0.0,0.0,0.0,0.99469,-0.023194,-0.070162,0.071474,-8.53,3.01,319.6,0,1
2026-06-16 17:32:05.049,84323,L_Hip,0.1077,-0.0735,0.9885,31.48,-12.79,-1.53,-41.81,-1.49,-15.95,0.99469,-0.023194,-0.070162,0.071444,-8.53,3.01,319.6,0,1
2026-06-16 17:32:05.051,84343,L_Hip,0.121,-0.07,0.9943,31.48,-12.8,-1.53,-41.42,0.12,-16.83,0.99469,-0.023194,-0.070132,0.071474,-8.53,3.01,319.6,0,1
2026-06-16 17:32:05.053,84363,L_Hip,0.1092,-0.0646,0.9938,31.49,-12.8,-1.53,-41.57,-0.35,-18.42,0.99469,-0.023164,-0.070132,0.071474,-8.52,3.01,319.6,0,1
2026-06-16 17:32:05.056,84383,L_Hip,0.12,-0.0769,0.9948,31.49,-12.8,-1.54,-41.11,-0.51,-16.25,0.99469,-0.023164,-0.070132,0.071444,-8.52,3.01,319.6,0,1
2026-06-16 17:32:05.098,84372,L_Hip,0.1146,-0.0833,0.9996,31.5,-12.81,-1.54,-40.59,-0.02,-16.7,0.99469,-0.023164,-0.070162,0.071444,-8.52,3.01,319.6,0,1
2026-06-16 17:32:05.100,84392,L_Hip,0.1146,-0.0749,0.9749,31.5,-12.8,-1.56,0.0,0.0,0.0,0.99469,-0.023164,-0.070162,0.071444,-8.52,3.01,319.6,0,1
2026-06-16 17:32:05.102,84412,L_Hip,0.1117,-0.0754,0.9948,31.49,-12.81,-1.55,-42.09,-0.52,-17.98,0.99469,-0.023164,-0.070162,0.071444,-8.52,3.01,319.6,0,1
2026-06-16 17:32:05.105,84432,L_Hip,0.1195,-0.0789,0.9827,31.51,-12.8,-1.54,-41.6,0.28,-16.39,0.99469,-0.023164,-0.070162,0.071444,-8.52,3.01,319.6,0,1
2026-06-16 17:32:05.124,84398,L_Hip,0.1136,-0.073,0.9909,31.49,-12.81,-1.54,-41.6,-0.36,-16.97,0.99469,-0.023133,-0.070162,0.071474,-8.52,3.01,319.6,0,1
2026-06-16 17:32:05.126,84418,L_Hip,0.1298,-0.0715,0.9822,31.5,-12.8,-1.54,0.0,0.0,0.0,0.99469,-0.023133,-0.070132,0.071474,-8.52,3.01,319.6,0,1
2026-06-16 17:32:05.128,84438,L_Hip,0.1166,-0.071,0.988,31.5,-12.8,-1.54,-41.57,0.93,-17.27,0.99469,-0.023133,-0.070101,0.071474,-8.52,3.01,319.6,0,1
2026-06-16 17:32:05.130,84458,L_Hip,0.1126,-0.0636,0.9909,31.49,-12.8,-1.54,-41.76,0.44,-16.54,0.99469,-0.023103,-0.070101,0.071505,-8.52,3.01,319.6,0,1
2026-06-16 17:32:05.173,84448,L_Hip,0.1141,-0.0789,0.974,31.49,-12.81,-1.56,-41.6,0.28,-16.1,0.99469,-0.023133,-0.070101,0.071505,-8.52,3.01,319.6,0,1
2026-06-16 17:32:05.176,84468,L_Hip,0.1141,-0.0779,0.9924,31.49,-12.81,-1.55,0.0,0.0,0.0,0.99469,-0.023133,-0.070101,0.071505,-8.52,3.01,319.6,0,1
2026-06-16 17:32:05.178,84488,L_Hip,0.1146,-0.071,0.9948,31.48,-12.8,-1.55,-42.24,1.56,-16.68,0.99469,-0.023133,-0.070101,0.071505,-8.52,3.01,319.6,0,1
2026-06-16 17:32:05.180,84508,L_Hip,0.1171,-0.0852,0.989,31.5,-12.8,-1.55,-39.9,0.31,-16.71,0.99469,-0.023133,-0.070101,0.071505,-8.52,3.01,319.6,0,1
2026-06-16 17:32:05.198,84473,L_Hip,0.1053,-0.073,0.9856,31.5,-12.8,-1.55,-41.09,0.13,-16.84,0.99469,-0.023133,-0.070132,0.071505,-8.52,3.01,319.6,0,1
2026-06-16 17:32:05.201,84493,L_Hip,0.1141,-0.0754,0.9832,31.49,-12.81,-1.54,0.0,0.0,0.0,0.99469,-0.023164,-0.070132,0.071505,-8.52,3.01,319.6,0,1
2026-06-16 17:32:05.203,84513,L_Hip,0.1156,-0.0769,0.9812,31.5,-12.79,-1.56,-40.59,-0.02,-16.41,0.99469,-0.023133,-0.070132,0.071535,-8.52,3.01,319.61,0,1
2026-06-16 17:32:05.205,84533,L_Hip,0.1087,-0.0779,0.9735,31.51,-12.82,-1.54,-43.3,-0.71,-16.65,0.99469,-0.023133,-0.070162,0.071535,-8.52,3.01,319.61,0,1
2026-06-16 17:32:05.249,84523,L_Hip,0.1136,-0.0769,0.988,31.48,-12.81,-1.55,-41.43,0.44,-15.96,0.99469,-0.023103,-0.070132,0.071535,-8.52,3.01,319.61,0,1
2026-06-16 17:32:05.251,84543,L_Hip,0.1092,-0.0823,0.9788,31.47,-12.8,-1.55,0.0,0.0,0.0,0.99469,-0.023072,-0.070132,0.071535,-8.51,3.01,319.61,0,1
2026-06-16 17:32:05.253,84563,L_Hip,0.1176,-0.0744,0.9837,31.5,-12.8,-1.53,-41.96,-1.01,-16.38,0.99469,-0.023072,-0.070132,0.071535,-8.51,3.01,319.61,0,1
2026-06-16 17:32:05.256,84583,L_Hip,0.1122,-0.0779,0.9856,31.51,-12.8,-1.55,-40.91,-0.34,-17.56,0.99469,-0.023072,-0.070132,0.071535,-8.51,3.01,319.61,0,1
2026-06-16 17:32:05.274,84548,L_Hip,0.1122,-0.0646,0.9841,31.48,-12.8,-1.56,-40.9,0.94,-16.99,0.99469,-0.023103,-0.070132,0.071535,-8.52,3.01,319.61,0,1
2026-06-16 17:32:05.276,84568,L_Hip,0.1048,-0.0764,0.9885,31.49,-12.81,-1.55,-41.26,-0.67,-17.27,0.99469,-0.023072,-0.070132,0.071535,-8.51,3.01,319.61,0,1
2026-06-16 17:32:05.278,84588,L_Hip,0.1097,-0.0671,0.9919,31.49,-12.81,-1.56,0.0,0.0,0.0,0.99469,-0.023072,-0.070132,0.071535,-8.51,3.01,319.61,0,1
2026-06-16 17:32:05.281,84608,L_Hip,0.1244,-0.0744,0.9793,31.48,-12.81,-1.55,-40.72,1.1,-17.13,0.99469,-0.023072,-0.070132,0.071535,-8.51,3.01,319.61,0,1
2026-06-16 17:32:05.349,84623,L_Hip,0.1176,-0.07,0.9725,31.5,-12.81,-1.54,-42.08,0.75,-17.11,0.99469,-0.023103,-0.070132,0.071535,-8.52,3.01,319.61,0,1
2026-06-16 17:32:05.351,84643,L_Hip,0.1122,-0.0681,0.9924,31.48,-12.79,-1.54,-40.27,-0.33,-15.83,0.99469,-0.023133,-0.070132,0.071535,-8.52,3.01,319.61,0,1
2026-06-16 17:32:05.353,84663,L_Hip,0.1146,-0.0681,0.9827,31.49,-12.8,-1.54,0.0,0.0,0.0,0.99469,-0.023133,-0.070132,0.071535,-8.52,3.01,319.61,0,1
2026-06-16 17:32:05.355,84683,L_Hip,0.1073,-0.0769,0.9817,31.5,-12.8,-1.54,-40.42,0.14,-16.55,0.99469,-0.023164,-0.070132,0.071566,-8.52,3.01,319.61,0,1
2026-06-16 17:32:05.373,84648,L_Hip,0.1156,-0.0744,0.9798,31.48,-12.79,-1.55,-40.93,-0.67,-16.98,0.99469,-0.023164,-0.070132,0.071566,-8.52,3.01,319.61,0,1
2026-06-16 17:32:05.376,84668,L_Hip,0.1151,-0.0685,0.9856,31.49,-12.8,-1.55,-41.04,1.1,-18.29,0.99469,-0.023164,-0.070132,0.071566,-8.52,3.01,319.61,0,1
2026-06-16 17:32:05.378,84688,L_Hip,0.1009,-0.0818,0.9924,31.5,-12.82,-1.54,0.0,0.0,0.0,0.99469,-0.023164,-0.070132,0.071566,-8.52,3.01,319.61,0,1
2026-06-16 17:32:05.380,84708,L_Hip,0.1176,-0.0739,1.0064,31.49,-12.81,-1.55,-42.77,0.42,-16.81,0.99469,-0.023164,-0.070101,0.071566,-8.52,3.01,319.61,0,1
2026-06-16 17:32:05.399,84673,L_Hip,0.1122,-0.0735,0.9924,31.48,-12.8,-1.55,-41.77,-0.52,-16.82,0.99469,-0.023133,-0.070132,0.071566,-8.52,3.01,319.61,0,1
2026-06-16 17:32:05.401,84693,L_Hip,0.1151,-0.0813,0.9929,31.49,-12.8,-1.55,-42.26,0.59,-16.67,0.99469,-0.023133,-0.070132,0.071535,-8.52,3.01,319.61,0,1
2026-06-16 17:32:05.403,84713,L_Hip,0.1205,-0.0789,0.988,31.48,-12.81,-1.56,0.0,0.0,0.0,0.99469,-0.023103,-0.070162,0.071566,-8.52,3.01,319.61,0,1
2026-06-16 17:32:05.405,84733,L_Hip,0.1122,-0.0666,0.9769,31.49,-12.81,-1.56,-41.75,0.12,-17.7,0.99469,-0.023103,-0.070162,0.071566,-8.52,3.01,319.61,0,1
2026-06-16 17:32:05.449,84723,L_Hip,0.12,-0.071,0.9861,31.5,-12.81,-1.54,-40.38,0.47,-18.3,0.99469,-0.023103,-0.070162,0.071566,-8.52,3.01,319.61,0,1
2026-06-16 17:32:05.451,84743,L_Hip,0.1229,-0.0685,0.9808,31.48,-12.81,-1.55,-40.78,-1.15,-16.25,0.99469,-0.023103,-0.070162,0.071566,-8.52,3.01,319.61,0,1
2026-06-16 17:32:05.453,84763,L_Hip,0.1166,-0.0852,0.9759,31.51,-12.8,-1.55,-41.77,-0.52,-16.82,0.99469,-0.023103,-0.070162,0.071566,-8.52,3.01,319.61,0,1
2026-06-16 17:32:05.456,84783,L_Hip,0.121,-0.0666,0.9817,31.51,-12.79,-1.54,0.0,0.0,0.0,0.99469,-0.023103,-0.070162,0.071566,-8.52,3.01,319.61,0,1
2026-06-16 17:32:05.473,84748,L_Hip,0.1117,-0.0725,0.987,31.49,-12.8,-1.56,-41.92,0.59,-16.68,0.99469,-0.023103,-0.070162,0.071566,-8.52,3.01,319.61,0,1
2026-06-16 17:32:05.476,84768,L_Hip,0.1136,-0.0715,0.974,31.49,-12.81,-1.55,-41.4,0.13,-17.99,0.99469,-0.023103,-0.070132,0.071566,-8.52,3.01,319.61,0,1
2026-06-16 17:32:05.478,84788,L_Hip,0.1141,-0.073,0.9904,31.49,-12.82,-1.55,-42.1,0.11,-16.53,0.99469,-0.023133,-0.070132,0.071566,-8.52,3.01,319.61,0,1
2026-06-16 17:32:05.480,84808,L_Hip,0.1112,-0.0671,0.9808,31.49,-12.8,-1.54,0.0,0.0,0.0,0.99469,-0.023133,-0.070101,0.071566,-8.52,3.01,319.61,0,1
2026-06-16 17:32:05.548,84823,L_Hip,0.1073,-0.0695,0.9861,31.49,-12.8,-1.54,-41.74,0.12,-17.99,0.99469,-0.023133,-0.070132,0.071566,-8.52,3.01,319.61,0,1
2026-06-16 17:32:05.551,84843,L_Hip,0.119,-0.0759,0.988,31.5,-12.81,-1.55,-41.38,1.09,-18.0,0.99469,-0.023133,-0.070132,0.071566,-8.52,3.01,319.61,0,1
2026-06-16 17:32:05.553,84863,L_Hip,0.1141,-0.0774,0.9856,31.48,-12.8,-1.54,-41.27,-0.99,-16.97,0.99469,-0.023133,-0.070162,0.071566,-8.52,3.01,319.61,0,1
2026-06-16 17:32:05.555,84883,L_Hip,0.1102,-0.0735,0.9948,31.49,-12.82,-1.54,-42.44,-0.53,-17.39,0.99469,-0.023133,-0.070162,0.071566,-8.52,3.01,319.61,0,1
2026-06-16 17:32:05.574,84848,L_Hip,0.1092,-0.0715,0.99,31.48,-12.8,-1.56,-41.24,0.29,-17.27,0.99469,-0.023133,-0.070193,0.071566,-8.52,3.0,319.61,0,1
2026-06-16 17:32:05.576,84868,L_Hip,0.1122,-0.073,0.9914,31.49,-12.8,-1.54,0.0,0.0,0.0,0.99469,-0.023133,-0.070162,0.071566,-8.52,3.01,319.61,0,1
2026-06-16 17:32:05.578,84888,L_Hip,0.1151,-0.0759,0.99,31.48,-12.82,-1.55,-41.58,-0.03,-17.55,0.99469,-0.023133,-0.070162,0.071566,-8.52,3.01,319.61,0,1
2026-06-16 17:32:05.580,84908,L_Hip,0.1077,-0.0636,0.9953,31.49,-12.82,-1.55,-40.42,-0.17,-16.84,0.99469,-0.023103,-0.070162,0.071566,-8.52,3.01,319.61,0,1
2026-06-16 17:32:05.599,84873,L_Hip,0.1092,-0.0798,0.9866,31.48,-12.8,-1.56,-40.9,0.62,-17.57,0.99469,-0.023103,-0.070193,0.071566,-8.52,3.0,319.61,0,1
2026-06-16 17:32:05.601,84893,L_Hip,0.1038,-0.0676,0.9982,31.48,-12.8,-1.55,0.0,0.0,0.0,0.99469,-0.023103,-0.070193,0.071566,-8.52,3.0,319.61,0,1
2026-06-16 17:32:05.604,84913,L_Hip,0.1161,-0.0705,0.9895,31.48,-12.8,-1.54,-42.44,-0.53,-17.39,0.99469,-0.023103,-0.070193,0.071566,-8.52,3.0,319.61,0,1
2026-06-16 17:32:05.606,84933,L_Hip,0.1279,-0.0715,0.9716,31.49,-12.8,-1.55,-40.07,0.15,-17.14,0.99469,-0.023133,-0.070193,0.071566,-8.52,3.0,319.61,0,1
2026-06-16 17:32:05.649,84923,L_Hip,0.1239,-0.071,0.9832,31.49,-12.8,-1.55,-41.27,-0.03,-16.4,0.994659,-0.023133,-0.070193,0.071596,-8.52,3.0,319.61,0,1
2026-06-16 17:32:05.651,84943,L_Hip,0.1053,-0.073,0.9958,31.49,-12.8,-1.56,0.0,0.0,0.0,0.994659,-0.023164,-0.070223,0.071596,-8.52,3.0,319.61,0,1
2026-06-16 17:32:05.653,84963,L_Hip,0.1176,-0.0818,0.9808,31.48,-12.82,-1.55,-41.09,-0.19,-16.83,0.994659,-0.023164,-0.070223,0.071596,-8.52,3.0,319.61,0,1
2026-06-16 17:32:05.656,84983,L_Hip,0.121,-0.0833,0.9851,31.49,-12.81,-1.55,-41.27,-0.67,-16.68,0.994659,-0.023164,-0.070223,0.071596,-8.52,3.0,319.61,0,1
2026-06-16 17:32:05.674,84948,L_Hip,0.1068,-0.0735,0.9895,31.48,-12.81,-1.56,-41.6,-0.36,-16.68,0.994659,-0.023164,-0.070223,0.071596,-8.52,3.0,319.61,0,1
2026-06-16 17:32:05.676,84968,L_Hip,0.1151,-0.07,0.9783,31.49,-12.81,-1.55,0.0,0.0,0.0,0.994659,-0.023133,-0.070193,0.071596,-8.52,3.0,319.61,0,1
2026-06-16 17:32:05.678,84988,L_Hip,0.1117,-0.0774,0.9958,31.49,-12.8,-1.55,-41.26,-0.03,-16.98,0.994659,-0.023164,-0.070193,0.071596,-8.52,3.0,319.61,0,1
2026-06-16 17:32:05.681,85008,L_Hip,0.1156,-0.0749,0.9846,31.49,-12.8,-1.54,-41.24,0.61,-17.27,0.99469,-0.023133,-0.070193,0.071596,-8.52,3.0,319.61,0,1
2026-06-16 17:32:05.748,85022,L_Hip,0.1146,-0.0695,0.988,31.5,-12.81,-1.55,-41.76,-0.2,-17.11,0.994659,-0.023133,-0.070223,0.071596,-8.52,3.0,319.61,0,1
2026-06-16 17:32:05.750,85042,L_Hip,0.1117,-0.0715,0.9924,31.5,-12.8,-1.56,0.0,0.0,0.0,0.994659,-0.023133,-0.070223,0.071596,-8.52,3.0,319.61,0,1
2026-06-16 17:32:05.752,85062,L_Hip,0.1112,-0.0744,0.99,31.49,-12.8,-1.56,-41.07,1.1,-16.84,0.994659,-0.023133,-0.070223,0.071596,-8.52,3.0,319.61,0,1
2026-06-16 17:32:05.755,85082,L_Hip,0.1136,-0.0769,0.9832,31.49,-12.8,-1.54,-40.94,-0.67,-16.4,0.994659,-0.023164,-0.070223,0.071596,-8.52,3.0,319.61,0,1
2026-06-16 17:32:05.774,85048,L_Hip,0.1097,-0.0754,0.9851,31.49,-12.81,-1.54,-41.76,-0.52,-17.69,0.994659,-0.023194,-0.070254,0.071596,-8.53,3.0,319.62,0,1
2026-06-16 17:32:05.776,85068,L_Hip,0.1176,-0.0695,0.987,31.48,-12.8,-1.55,-42.98,-1.03,-16.08,0.994659,-0.023164,-0.070254,0.071596,-8.53,3.0,319.62,0,1
2026-06-16 17:32:05.778,85088,L_Hip,0.1097,-0.0695,0.9929,31.49,-12.8,-1.55,0.0,0.0,0.0,0.994659,-0.023194,-0.070254,0.071596,-8.53,3.0,319.62,0,1
2026-06-16 17:32:05.780,85108,L_Hip,0.1151,-0.0739,0.99,31.51,-12.79,-1.55,-41.25,1.25,-15.82,0.994659,-0.023194,-0.070254,0.071596,-8.53,3.0,319.62,0,1
2026-06-16 17:32:05.799,85073,L_Hip,0.1141,-0.071,0.99,31.48,-12.81,-1.55,-40.76,-0.82,-17.42,0.994659,-0.023194,-0.070254,0.071596,-8.53,3.0,319.62,0,1
2026-06-16 17:32:05.801,85093,L_Hip,0.1215,-0.072,0.9803,31.49,-12.81,-1.55,-40.07,-0.17,-17.14,0.994659,-0.023194,-0.070254,0.071596,-8.53,3.0,319.62,0,1
2026-06-16 17:32:05.803,85113,L_Hip,0.1102,-0.0754,0.9904,31.51,-12.8,-1.56,0.0,0.0,0.0,0.994659,-0.023194,-0.070254,0.071596,-8.53,3.0,319.62,0,1
2026-06-16 17:32:05.805,85133,L_Hip,0.1102,-0.0749,0.9841,31.5,-12.8,-1.57,-41.1,-0.51,-16.54,0.994659,-0.023194,-0.070254,0.071596,-8.53,3.0,319.62,0,1
2026-06-16 17:32:05.848,85123,L_Hip,0.1141,-0.0759,0.9793,31.5,-12.81,-1.56,-41.93,-0.68,-17.55,0.994659,-0.023194,-0.070254,0.071596,-8.53,3.0,319.62,0,1
2026-06-16 17:32:05.851,85143,L_Hip,0.1225,-0.0779,0.9754,31.49,-12.81,-1.55,-40.92,0.61,-16.11,0.994659,-0.023194,-0.070254,0.071596,-8.53,3.0,319.62,0,1
2026-06-16 17:32:05.853,85163,L_Hip,0.121,-0.071,0.9938,31.49,-12.8,-1.54,0.0,0.0,0.0,0.994659,-0.023194,-0.070254,0.071596,-8.53,3.0,319.62,0,1
2026-06-16 17:32:05.855,85183,L_Hip,0.1117,-0.0685,0.9909,31.5,-12.8,-1.55,-40.73,-0.17,-18.0,0.994659,-0.023164,-0.070254,0.071596,-8.53,3.0,319.62,0,1
2026-06-16 17:32:05.899,85173,L_Hip,0.118,-0.0695,0.9856,31.48,-12.8,-1.56,-42.29,-0.69,-16.38,0.994659,-0.023164,-0.070254,0.071596,-8.53,3.0,319.62,0,1
2026-06-16 17:32:05.901,85193,L_Hip,0.1097,-0.0744,0.9822,31.49,-12.8,-1.56,-42.1,-0.52,-17.4,0.994659,-0.023133,-0.070254,0.071627,-8.52,3.0,319.62,0,1
2026-06-16 17:32:05.903,85213,L_Hip,0.1176,-0.0739,0.9846,31.51,-12.8,-1.56,0.0,0.0,0.0,0.994659,-0.023164,-0.070223,0.071627,-8.53,3.0,319.62,0,1
2026-06-16 17:32:05.905,85233,L_Hip,0.1082,-0.073,0.9919,31.49,-12.8,-1.55,-40.22,0.95,-17.29,0.994659,-0.023133,-0.070254,0.071596,-8.52,3.0,319.61,0,1
2026-06-16 17:32:05.924,85198,L_Hip,0.1166,-0.0715,0.9909,31.48,-12.81,-1.54,-40.09,-0.49,-16.85,0.994659,-0.023164,-0.070254,0.071596,-8.53,3.0,319.62,0,1
2026-06-16 17:32:05.926,85218,L_Hip,0.1102,-0.07,0.9909,31.48,-12.8,-1.54,-42.11,0.11,-16.24,0.994659,-0.023133,-0.070254,0.071596,-8.52,3.0,319.61,0,1
2026-06-16 17:32:05.928,85238,L_Hip,0.1161,-0.0651,0.9866,31.48,-12.81,-1.55,-42.1,-0.52,-17.69,0.994659,-0.023164,-0.070254,0.071596,-8.53,3.0,319.62,0,1
2026-06-16 17:32:05.930,85258,L_Hip,0.1151,-0.0739,0.9846,31.48,-12.8,-1.54,0.0,0.0,0.0,0.994659,-0.023164,-0.070284,0.071627,-8.53,2.99,319.62,0,1
2026-06-16 17:32:05.974,85248,L_Hip,0.1117,-0.0735,0.989,31.49,-12.8,-1.55,-41.27,0.28,-15.82,0.994659,-0.023133,-0.070284,0.071596,-8.52,2.99,319.62,0,1
2026-06-16 17:32:05.976,85268,L_Hip,0.1185,-0.0715,0.99,31.48,-12.81,-1.55,-41.78,-1.16,-17.4,0.994659,-0.023133,-0.070315,0.071627,-8.52,2.99,319.62,0,1
2026-06-16 17:32:05.979,85288,L_Hip,0.1112,-0.0744,0.9817,31.49,-12.81,-1.54,-40.09,-0.49,-16.56,0.994659,-0.023164,-0.070315,0.071596,-8.53,2.99,319.62,0,1
2026-06-16 17:32:05.981,85308,L_Hip,0.1229,-0.0681,0.9895,31.48,-12.82,-1.56,0.0,0.0,0.0,0.994659,-0.023164,-0.070284,0.071596,-8.53,2.99,319.62,0,1
2026-06-16 17:32:05.999,85273,L_Hip,0.1146,-0.0725,0.9861,31.5,-12.79,-1.55,-42.43,0.42,-16.82,0.994659,-0.023164,-0.070284,0.071596,-8.53,2.99,319.62,0,1
2026-06-16 17:32:06.001,85293,L_Hip,0.1151,-0.0636,0.988,31.48,-12.8,-1.54,-40.22,1.27,-17.0,0.994659,-0.023164,-0.070284,0.071596,-8.53,2.99,319.62,0,1
2026-06-16 17:32:06.003,85313,L_Hip,0.1058,-0.0749,0.9774,31.51,-12.8,-1.55,-41.95,-1.01,-16.96,0.994659,-0.023164,-0.070284,0.071596,-8.53,2.99,319.62,0,1
2026-06-16 17:32:06.006,85333,L_Hip,0.1141,-0.0749,0.9774,31.49,-12.8,-1.55,-42.62,-1.02,-16.95,0.994659,-0.023164,-0.070284,0.071596,-8.53,2.99,319.62,0,1
2026-06-16 17:32:06.049,85323,L_Hip,0.1176,-0.0744,0.9774,31.49,-12.81,-1.57,-41.75,-0.51,-18.28,0.994659,-0.023164,-0.070284,0.071596,-8.53,2.99,319.62,0,1
2026-06-16 17:32:06.051,85343,L_Hip,0.1122,-0.0636,0.9895,31.49,-12.8,-1.58,0.0,0.0,0.0,0.994659,-0.023164,-0.070284,0.071627,-8.53,2.99,319.62,0,1
2026-06-16 17:32:06.054,85363,L_Hip,0.1122,-0.0685,0.9943,31.49,-12.81,-1.57,-40.25,-0.33,-16.7,0.994659,-0.023164,-0.070284,0.071627,-8.53,2.99,319.62,0,1
2026-06-16 17:32:06.056,85383,L_Hip,0.1151,-0.0676,0.99,31.5,-12.79,-1.54,-40.61,-0.66,-16.11,0.994659,-0.023164,-0.070284,0.071627,-8.53,2.99,319.62,0,1
2026-06-16 17:32:06.074,85348,L_Hip,0.1107,-0.0695,0.9803,31.49,-12.81,-1.54,-41.25,0.28,-16.69,0.994659,-0.023164,-0.070284,0.071627,-8.53,2.99,319.62,0,1
2026-06-16 17:32:06.076,85368,L_Hip,0.1195,-0.07,0.988,31.5,-12.79,-1.54,0.0,0.0,0.0,0.994659,-0.023133,-0.070284,0.071627,-8.52,2.99,319.62,0,1
2026-06-16 17:32:06.078,85388,L_Hip,0.1077,-0.0622,0.9827,31.49,-12.8,-1.54,-41.44,-0.19,-16.25,0.994659,-0.023164,-0.070284,0.071627,-8.53,2.99,319.62,0,1
2026-06-16 17:32:06.080,85408,L_Hip,0.118,-0.0705,0.9793,31.48,-12.8,-1.56,-42.61,0.26,-16.09,0.994659,-0.023133,-0.070284,0.071627,-8.52,2.99,319.62,0,1
2026-06-16 17:32:06.124,85398,L_Hip,0.1151,-0.0646,0.9895,31.5,-12.81,-1.57,-40.73,1.1,-16.55,0.994659,-0.023133,-0.070284,0.071627,-8.52,2.99,319.62,0,1
2026-06-16 17:32:06.126,85418,L_Hip,0.1107,-0.0661,0.9817,31.48,-12.8,-1.54,0.0,0.0,0.0,0.994659,-0.023103,-0.070284,0.071627,-8.52,2.99,319.62,0,1
2026-06-16 17:32:06.128,85438,L_Hip,0.1185,-0.07,0.9788,31.5,-12.8,-1.54,-41.24,0.93,-16.69,0.994659,-0.023103,-0.070284,0.071627,-8.52,2.99,319.62,0,1
2026-06-16 17:32:06.130,85458,L_Hip,0.1141,-0.0769,0.9914,31.5,-12.81,-1.56,-42.1,0.11,-16.53,0.994659,-0.023072,-0.070284,0.071596,-8.51,2.99,319.61,0,1
2026-06-16 17:32:06.199,85473,L_Hip,0.1107,-0.0651,0.9875,31.49,-12.8,-1.54,-41.08,-0.18,-17.71,0.994659,-0.023072,-0.070254,0.071596,-8.51,3.0,319.61,0,1
2026-06-16 17:32:06.201,85493,L_Hip,0.1166,-0.0764,0.9904,31.51,-12.82,-1.54,0.0,0.0,0.0,0.994659,-0.023041,-0.070284,0.071596,-8.51,2.99,319.61,0,1
2026-06-16 17:32:06.203,85513,L_Hip,0.1117,-0.0833,0.9933,31.5,-12.83,-1.55,-41.92,0.92,-16.68,0.994659,-0.023041,-0.070254,0.071596,-8.51,3.0,319.61,0,1
2026-06-16 17:32:06.205,85533,L_Hip,0.1166,-0.0695,0.9793,31.49,-12.8,-1.56,-41.08,0.13,-17.42,0.994659,-0.023072,-0.070284,0.071627,-8.52,2.99,319.62,0,1
2026-06-16 17:32:06.224,85498,L_Hip,0.1092,-0.0784,0.9967,31.48,-12.8,-1.56,-41.41,0.77,-17.12,0.994659,-0.023041,-0.070284,0.071596,-8.51,2.99,319.61,0,1
2026-06-16 17:32:06.226,85518,L_Hip,0.1112,-0.0749,0.9856,31.49,-12.8,-1.55,0.0,0.0,0.0,0.994659,-0.023041,-0.070284,0.071596,-8.51,2.99,319.61,0,1
2026-06-16 17:32:06.228,85538,L_Hip,0.1126,-0.072,0.9793,31.49,-12.81,-1.55,-42.09,0.75,-16.82,0.994659,-0.023041,-0.070284,0.071596,-8.51,2.99,319.61,0,1
2026-06-16 17:32:06.231,85558,L_Hip,0.1126,-0.0793,1.0079,31.5,-12.8,-1.54,-42.08,0.75,-17.11,0.994659,-0.023011,-0.070254,0.071596,-8.51,3.0,319.61,0,1
2026-06-16 17:32:06.274,85548,L_Hip,0.1082,-0.0769,0.9803,31.48,-12.81,-1.55,-42.27,-0.05,-16.67,0.994659,-0.023011,-0.070284,0.071596,-8.51,2.99,319.61,0,1
2026-06-16 17:32:06.277,85568,L_Hip,0.12,-0.0705,0.9774,31.48,-12.8,-1.54,-40.58,0.62,-16.12,0.994659,-0.023011,-0.070254,0.071596,-8.51,3.0,319.61,0,1
2026-06-16 17:32:06.280,85588,L_Hip,0.12,-0.0759,0.9841,31.49,-12.8,-1.55,-41.25,0.28,-16.69,0.994659,-0.02298,-0.070254,0.071596,-8.5,2.99,319.61,0,1
2026-06-16 17:32:06.282,85608,L_Hip,0.1117,-0.0754,0.9919,31.48,-12.8,-1.57,0.0,0.0,0.0,0.994659,-0.02298,-0.070284,0.071627,-8.5,2.99,319.62,0,1
2026-06-16 17:32:06.299,85573,L_Hip,0.1117,-0.0705,0.9987,31.51,-12.8,-1.54,-41.29,-0.68,-15.81,0.994659,-0.023011,-0.070284,0.071596,-8.51,2.99,319.61,0,1
2026-06-16 17:32:06.301,85593,L_Hip,0.118,-0.073,0.9885,31.5,-12.8,-1.54,-42.11,-0.53,-16.82,0.994659,-0.023011,-0.070284,0.071596,-8.51,2.99,319.61,0,1
2026-06-16 17:32:06.303,85613,L_Hip,0.1122,-0.0749,0.9933,31.5,-12.8,-1.56,0.0,0.0,0.0,0.994659,-0.023011,-0.070254,0.071596,-8.51,3.0,319.61,0,1
2026-06-16 17:32:06.305,85633,L_Hip,0.1136,-0.0725,0.9967,31.49,-12.8,-1.55,-40.58,-0.01,-17.28,0.994659,-0.023011,-0.070254,0.071596,-8.51,3.0,319.61,0,1
2026-06-16 17:32:06.324,85598,L_Hip,0.1141,-0.0681,0.99,31.51,-12.81,-1.57,-41.11,-0.51,-16.25,0.994659,-0.023041,-0.070223,0.071596,-8.51,3.0,319.61,0,1
2026-06-16 17:32:06.326,85618,L_Hip,0.1166,-0.0754,0.9837,31.48,-12.8,-1.55,-40.92,-0.34,-16.98,0.994659,-0.023041,-0.070254,0.071596,-8.51,3.0,319.61,0,1
2026-06-16 17:32:06.328,85638,L_Hip,0.122,-0.0744,0.9938,31.49,-12.8,-1.54,0.0,0.0,0.0,0.994659,-0.023041,-0.070254,0.071596,-8.51,3.0,319.61,0,1
2026-06-16 17:32:06.330,85658,L_Hip,0.1112,-0.0739,0.9904,31.48,-12.82,-1.54,-40.91,0.29,-17.27,0.994659,-0.023072,-0.070254,0.071627,-8.51,3.0,319.62,0,1
2026-06-16 17:32:06.399,85673,L_Hip,0.1048,-0.073,0.9972,31.48,-12.81,-1.55,-40.22,1.92,-16.13,0.994659,-0.023072,-0.070254,0.071596,-8.51,3.0,319.61,0,1
2026-06-16 17:32:06.401,85693,L_Hip,0.118,-0.0739,0.9861,31.48,-12.82,-1.54,-42.1,-0.85,-17.98,0.994659,-0.023072,-0.070223,0.071627,-8.51,3.0,319.62,0,1
2026-06-16 17:32:06.403,85713,L_Hip,0.1073,-0.0651,0.9841,31.48,-12.81,-1.55,0.0,0.0,0.0,0.994659,-0.023041,-0.070223,0.071627,-8.51,3.0,319.62,0,1
2026-06-16 17:32:06.406,85733,L_Hip,0.118,-0.0754,0.9943,31.49,-12.79,-1.56,-41.09,-0.18,-17.12,0.994659,-0.023072,-0.070223,0.071627,-8.51,3.0,319.62,0,1
2026-06-16 17:32:06.424,85698,L_Hip,0.1136,-0.0739,0.9948,31.49,-12.8,-1.55,-41.09,0.13,-16.54,0.994659,-0.023041,-0.070193,0.071627,-8.51,3.0,319.62,0,1
2026-06-16 17:32:06.426,85718,L_Hip,0.1028,-0.071,0.9812,31.5,-12.81,-1.55,-40.61,-0.99,-16.11,0.994659,-0.023041,-0.070193,0.071627,-8.51,3.0,319.62,0,1
2026-06-16 17:32:06.428,85738,L_Hip,0.1141,-0.0671,0.9958,31.5,-12.8,-1.55,-41.61,-0.36,-16.39,0.99469,-0.023041,-0.070193,0.071596,-8.51,3.0,319.61,0,1
2026-06-16 17:32:06.431,85758,L_Hip,0.1107,-0.073,0.9919,31.48,-12.8,-1.57,0.0,0.0,0.0,0.994659,-0.023072,-0.070193,0.071627,-8.51,3.0,319.62,0,1
2026-06-16 17:32:06.449,85723,L_Hip,0.1009,-0.0666,0.9783,31.49,-12.81,-1.55,-42.78,-0.54,-17.1,0.994659,-0.023072,-0.070193,0.071627,-8.51,3.0,319.62,0,1
2026-06-16 17:32:06.451,85743,L_Hip,0.1019,-0.0705,0.9841,31.48,-12.8,-1.54,-41.76,0.11,-16.83,0.994659,-0.023072,-0.070223,0.071627,-8.51,3.0,319.62,0,1
2026-06-16 17:32:06.453,85763,L_Hip,0.1185,-0.07,0.9924,31.48,-12.8,-1.55,0.0,0.0,0.0,0.994659,-0.023103,-0.070193,0.071627,-8.52,3.0,319.62,0,1
2026-06-16 17:32:06.455,85783,L_Hip,0.1126,-0.0789,0.989,31.48,-12.8,-1.54,-41.76,0.12,-17.12,0.994659,-0.023103,-0.070223,0.071627,-8.52,3.0,319.62,0,1
2026-06-16 17:32:06.498,85773,L_Hip,0.1107,-0.0744,0.9861,31.51,-12.8,-1.55,-40.41,0.14,-17.14,0.994659,-0.023103,-0.070193,0.071596,-8.52,3.0,319.61,0,1
2026-06-16 17:32:06.501,85793,L_Hip,0.1102,-0.0656,0.9817,31.51,-12.8,-1.55,-42.09,0.43,-16.82,0.994659,-0.023103,-0.070193,0.071627,-8.52,3.0,319.62,0,1
2026-06-16 17:32:06.503,85813,L_Hip,0.1195,-0.0735,0.99,31.49,-12.8,-1.54,-40.92,0.29,-16.69,0.99469,-0.023103,-0.070162,0.071627,-8.52,3.01,319.62,0,1
2026-06-16 17:32:06.505,85833,L_Hip,0.094,-0.0867,0.9793,31.51,-12.81,-1.57,-42.26,0.59,-16.96,0.99469,-0.023103,-0.070162,0.071627,-8.52,3.01,319.62,0,1
2026-06-16 17:32:06.524,85798,L_Hip,0.1195,-0.0572,0.9808,31.51,-12.82,-1.54,-40.42,-0.17,-16.84,0.99469,-0.023072,-0.070162,0.071596,-8.51,3.01,319.61,0,1
2026-06-16 17:32:06.526,85818,L_Hip,0.1171,-0.0843,0.9904,31.48,-12.8,-1.54,-41.9,0.28,-18.42,0.99469,-0.023072,-0.070132,0.071627,-8.51,3.01,319.62,0,1
2026-06-16 17:32:06.528,85838,L_Hip,0.1117,-0.071,0.9967,31.48,-12.8,-1.56,-41.27,-0.67,-16.98,0.99469,-0.023072,-0.070101,0.071627,-8.51,3.01,319.62,0,1
2026-06-16 17:32:06.530,85858,L_Hip,0.1117,-0.0735,0.989,31.48,-12.8,-1.55,-40.71,1.11,-17.72,0.99469,-0.023103,-0.070101,0.071627,-8.52,3.01,319.62,0,1
2026-06-16 17:32:06.624,85898,L_Hip,0.1146,-0.0759,1.0001,31.48,-12.82,-1.55,-42.44,0.1,-16.52,0.99469,-0.023103,-0.070101,0.071627,-8.52,3.01,319.62,0,1
2026-06-16 17:32:06.626,85918,L_Hip,0.1166,-0.0818,0.9929,31.5,-12.82,-1.54,0.0,0.0,0.0,0.99469,-0.023103,-0.070101,0.071627,-8.52,3.01,319.62,0,1
2026-06-16 17:32:06.628,85938,L_Hip,0.1077,-0.0651,0.9803,31.48,-12.82,-1.55,-42.11,-0.2,-16.82,0.99469,-0.023133,-0.070101,0.071627,-8.52,3.01,319.62,0,1
2026-06-16 17:32:06.631,85958,L_Hip,0.12,-0.0798,1.0011,31.49,-12.8,-1.54,-41.76,0.44,-16.24,0.99469,-0.023072,-0.07007,0.071627,-8.51,3.02,319.62,0,1
2026-06-16 17:32:06.649,85923,L_Hip,0.1249,-0.0685,0.9841,31.48,-12.8,-1.56,-40.57,-0.01,-17.86,0.99469,-0.023103,-0.07007,0.071627,-8.52,3.02,319.62,0,1
2026-06-16 17:32:06.651,85943,L_Hip,0.12,-0.0872,0.987,31.49,-12.8,-1.56,0.0,0.0,0.0,0.99469,-0.023041,-0.070009,0.071627,-8.51,3.02,319.62,0,1
2026-06-16 17:32:06.653,85963,L_Hip,0.1102,-0.0749,0.9895,31.49,-12.81,-1.55,-41.43,-0.19,-16.54,0.99469,-0.023041,-0.07004,0.071627,-8.51,3.02,319.62,0,1
2026-06-16 17:32:06.656,85983,L_Hip,0.1073,-0.0759,0.9933,31.48,-12.82,-1.56,-40.59,-0.02,-16.7,0.99469,-0.023072,-0.07007,0.071627,-8.51,3.02,319.62,0,1
2026-06-16 17:32:06.674,85948,L_Hip,0.118,-0.0725,1.0016,31.48,-12.8,-1.56,-41.91,0.28,-17.84,0.99469,-0.023072,-0.07004,0.071627,-8.51,3.02,319.62,0,1
2026-06-16 17:32:06.676,85968,L_Hip,0.1151,-0.072,0.9822,31.5,-12.81,-1.55,0.0,0.0,0.0,0.99469,-0.023072,-0.07007,0.071627,-8.51,3.02,319.62,0,1
2026-06-16 17:32:06.678,85988,L_Hip,0.1166,-0.0749,0.987,31.49,-12.81,-1.55,-40.74,0.46,-17.13,0.99469,-0.023103,-0.07007,0.071627,-8.52,3.02,319.62,0,1
2026-06-16 17:32:06.681,86008,L_Hip,0.1151,-0.072,0.99,31.48,-12.8,-1.57,-42.41,0.75,-17.4,0.99469,-0.023133,-0.07007,0.071627,-8.52,3.02,319.62,0,1
2026-06-16 17:32:06.699,85973,L_Hip,0.1112,-0.0676,0.9904,31.49,-12.8,-1.55,-41.79,-0.85,-16.24,0.99469,-0.023133,-0.07007,0.071627,-8.52,3.02,319.62,0,1
2026-06-16 17:32:06.701,85993,L_Hip,0.1136,-0.073,0.9895,31.49,-12.81,-1.55,0.0,0.0,0.0,0.99469,-0.023164,-0.070101,0.071627,-8.52,3.01,319.62,0,1
2026-06-16 17:32:06.703,86013,L_Hip,0.1097,-0.0735,0.9822,31.5,-12.81,-1.56,-42.27,-0.05,-16.96,0.99469,-0.023133,-0.070132,0.071627,-8.52,3.01,319.62,0,1
2026-06-16 17:32:06.705,86033,L_Hip,0.12,-0.0676,0.9885,31.48,-12.81,-1.54,-41.94,-0.36,-16.97,0.994659,-0.023133,-0.070162,0.071627,-8.52,3.01,319.62,0,1
2026-06-16 17:32:06.724,85998,L_Hip,0.1205,-0.0754,0.9919,31.48,-12.78,-1.55,-41.41,0.12,-17.41,0.994659,-0.023164,-0.070162,0.071627,-8.52,3.01,319.62,0,1
2026-06-16 17:32:06.726,86018,L_Hip,0.118,-0.0651,0.9924,31.49,-12.8,-1.55,0.0,0.0,0.0,0.99469,-0.023164,-0.070132,0.071627,-8.52,3.01,319.62,0,1
2026-06-16 17:32:06.728,86038,L_Hip,0.1102,-0.0808,0.9841,31.49,-12.81,-1.54,-42.07,1.08,-17.11,0.994659,-0.023194,-0.070162,0.071627,-8.53,3.01,319.62,0,1
2026-06-16 17:32:06.730,86058,L_Hip,0.121,-0.0715,0.9953,31.48,-12.8,-1.54,-40.78,-0.83,-16.26,0.994659,-0.023164,-0.070193,0.071627,-8.52,3.0,319.62,0,1
2026-06-16 17:32:06.774,86048,L_Hip,0.1097,-0.0754,0.9861,31.5,-12.82,-1.55,-40.91,-0.34,-17.56,0.994659,-0.023194,-0.070162,0.071596,-8.53,3.01,319.61,0,1
2026-06-16 17:32:06.776,86068,L_Hip,0.1136,-0.072,0.9866,31.49,-12.81,-1.56,-42.26,0.59,-16.96,0.994659,-0.023164,-0.070193,0.071596,-8.52,3.0,319.61,0,1
2026-06-16 17:32:06.778,86088,L_Hip,0.1146,-0.0769,0.974,31.5,-12.81,-1.55,0.0,0.0,0.0,0.994659,-0.023194,-0.070193,0.071596,-8.53,3.0,319.62,0,1
2026-06-16 17:32:06.780,86108,L_Hip,0.1166,-0.0779,0.9803,31.49,-12.81,-1.55,-41.09,-0.83,-17.7,0.994659,-0.023194,-0.070193,0.071596,-8.53,3.0,319.62,0,1
