python_time,esp32_hw_time,sensor_name,ax,ay,az,gx,gy,gz,mx,my,mz,q0,q1,q2,q3,quat_roll,quat_pitch,quat_yaw,is_paused_flag,t_pose_flag
2026-06-16 15:57:49.615,1482896,L_Shank,-0.6964,0.7065,0.0616,4.14,-3.46,-2.87,6.95,-43.46,-17.82,0.637288,0.664083,0.051393,-0.387524,0.0,0.0,0.0,0,0
2026-06-16 15:57:49.618,1482916,L_Shank,-0.7038,0.708,0.0275,4.12,-3.41,-2.8,0.0,0.0,0.0,0.634449,0.665395,0.057009,-0.389111,0.0,0.0,0.0,0,0
2026-06-16 15:57:49.619,1482936,L_Shank,-0.5879,0.6737,-0.1274,3.33,-3.04,-2.76,5.71,-43.3,-16.72,0.631489,0.666433,0.061953,-0.39143,0.0,0.0,0.0,0,0
2026-06-16 15:57:49.631,1482909,L_Ankle,0.1109,0.0192,0.988,5.4,-0.85,-10.3,-20.31,2.87,-44.12,0.997223,0.025147,-0.068636,0.013184,0.0,0.0,0.0,0,0
2026-06-16 15:57:49.632,1482775,R_Shank,0.036,-0.8432,1.0052,-0.09,-1.46,-8.43,-11.9,27.18,-22.48,0.903836,0.035798,-0.01764,0.425947,0.0,0.0,0.0,0,0
2026-06-16 15:57:49.634,1482929,L_Ankle,0.1138,0.03,0.9866,5.41,-0.83,-10.29,0.0,0.0,0.0,0.997223,0.025117,-0.068636,0.013184,0.0,0.0,0.0,0,0
2026-06-16 15:57:49.634,1482795,R_Shank,0.0384,0.698,1.0128,-0.09,-1.48,-8.43,0.0,0.0,0.0,0.903836,0.035768,-0.01764,0.425947,0.0,0.0,0.0,0,0
2026-06-16 15:57:49.638,1482949,L_Ankle,0.1168,0.0168,0.9904,5.4,-0.85,-10.28,-18.52,1.07,-43.42,0.997223,0.025117,-0.068636,0.013184,0.0,0.0,0.0,0,0
2026-06-16 15:57:49.639,1482815,R_Shank,0.0399,-0.9728,1.0066,-0.08,-1.47,-8.42,-11.37,26.01,-22.94,0.903836,0.035768,-0.01764,0.425947,0.0,0.0,0.0,0,0
2026-06-16 15:57:49.641,1482969,L_Ankle,0.1104,0.0158,0.9976,5.38,-0.85,-10.29,-19.57,1.8,-42.75,0.997223,0.025117,-0.068636,0.013215,0.0,0.0,0.0,0,0
2026-06-16 15:57:49.643,1482835,R_Shank,0.0434,-1.7432,1.0071,-0.09,-1.46,-8.43,-12.22,26.19,-22.48,0.903836,0.035768,-0.01767,0.425947,0.0,0.0,0.0,0,0
2026-06-16 15:57:49.646,1482919,L_Hip,0.1097,-0.1236,0.9875,-4.39,4.6,2.92,4.39,32.14,-26.2,0.992859,-0.025544,-0.073031,0.090457,0.0,0.0,0.0,0,0
2026-06-16 15:57:49.647,1482779,R_Ankle,0.0111,-0.0101,1.0019,0.75,-1.73,-0.49,-13.58,34.3,-25.92,0.101993,0.085849,0.029267,0.990631,0.0,0.0,0.0,0,0
2026-06-16 15:57:49.649,1482939,L_Hip,0.1087,-0.097,0.9904,-4.28,4.56,2.77,4.02,30.84,-25.9,0.992889,-0.025513,-0.072909,0.090457,0.0,0.0,0.0,0,0
2026-06-16 15:57:49.651,1482799,R_Ankle,0.017,-0.0111,0.9933,0.76,-1.71,-0.51,0.0,0.0,0.0,0.101993,0.085818,0.029267,0.990631,0.0,0.0,0.0,0,0
2026-06-16 15:57:49.653,1482959,L_Hip,0.1347,-0.0371,0.9536,-3.88,4.4,2.8,0.0,0.0,0.0,0.992859,-0.025575,-0.073,0.090457,0.0,0.0,0.0,0,0
2026-06-16 15:57:49.654,1482819,R_Ankle,0.0219,-0.0047,1.0254,0.77,-1.71,-0.49,-13.07,33.82,-25.75,0.102023,0.085818,0.029267,0.990631,0.0,0.0,0.0,0,0
2026-06-16 15:57:49.656,1482979,L_Hip,0.1122,-0.0617,0.9808,-4.12,4.48,2.8,3.37,32.12,-25.61,0.992889,-0.025544,-0.07297,0.090457,0.0,0.0,0.0,0,0
2026-06-16 15:57:49.658,1482839,R_Ankle,0.0214,-0.0111,1.0096,0.77,-1.72,-0.5,-13.08,34.15,-26.37,0.102023,0.085818,0.029298,0.990631,0.0,0.0,0.0,0,0
2026-06-16 15:57:49.660,1482931,L_Ankle,0.1138,0.03,0.9875,5.4,-0.85,-10.28,-20.4,1.29,-40.56,0.997223,0.025056,-0.068667,0.013215,0.0,0.0,0.0,0,0
2026-06-16 15:57:49.662,1482797,R_Shank,0.0355,-0.8432,1.0008,-0.09,-1.47,-8.41,-12.42,27.03,-21.42,0.903836,0.035737,-0.01767,0.425947,0.0,0.0,0.0,0,0
2026-06-16 15:57:49.663,1482951,L_Ankle,0.1109,0.0158,0.9866,5.41,-0.84,-10.29,-19.55,1.45,-41.73,0.997223,0.025025,-0.068697,0.013215,0.0,0.0,0.0,0,0
2026-06-16 15:57:49.664,1482817,R_Shank,0.0389,1.2096,1.0095,-0.09,-1.46,-8.43,0.0,0.0,0.0,0.903836,0.035737,-0.01764,0.425977,0.0,0.0,0.0,0,0
2026-06-16 15:57:49.666,1482971,L_Ankle,0.1168,0.0188,0.988,5.38,-0.84,-10.3,0.0,0.0,0.0,0.997223,0.025056,-0.068697,0.013245,0.0,0.0,0.0,0,0
2026-06-16 15:57:49.667,1482837,R_Shank,0.0365,2.3688,1.01,-0.09,-1.46,-8.41,-12.07,27.02,-21.72,0.903836,0.035737,-0.01764,0.425977,0.0,0.0,0.0,0,0
2026-06-16 15:57:49.668,1482932,L_Ankle,0.1168,0.0129,0.9928,5.39,-0.84,-10.29,-20.09,1.63,-42.59,0.997223,0.024995,-0.068728,0.013245,0.0,0.0,0.0,0,0
2026-06-16 15:57:49.670,1482936,L_Shank,-0.8489,0.5563,0.0544,2.07,-0.62,-2.51,8.15,-43.31,-16.43,0.628101,0.66744,0.066073,-0.394421,0.0,0.0,0.0,0,0
2026-06-16 15:57:49.671,1482857,R_Shank,0.0404,-0.7136,0.996,-0.09,-1.47,-8.41,-12.92,26.55,-20.66,0.903836,0.035737,-0.01767,0.425977,0.0,0.0,0.0,0,0
2026-06-16 15:57:49.672,1482956,L_Shank,-0.7688,0.6982,0.0755,4.39,-1.88,-1.54,7.28,-43.14,-16.27,0.624958,0.668172,0.068667,-0.397778,0.0,0.0,0.0,0,0
2026-06-16 15:57:49.674,1482802,R_Ankle,0.014,-0.0126,0.9952,0.76,-1.74,-0.5,-14.79,33.19,-26.69,0.102023,0.085818,0.029298,0.990631,0.0,0.0,0.0,0,0
2026-06-16 15:57:49.675,1482976,L_Shank,-0.6695,0.7036,0.0717,4.31,-3.0,-0.85,7.46,-42.96,-16.74,0.622059,0.6686,0.069765,-0.401379,0.0,0.0,0.0,0,0
2026-06-16 15:57:49.676,1482822,R_Ankle,0.0165,-0.0141,0.9899,0.77,-1.72,-0.48,0.0,0.0,0.0,0.102023,0.085849,0.029267,0.990631,0.0,0.0,0.0,0,0
2026-06-16 15:57:49.678,1482996,L_Shank,-0.628,0.5445,0.135,3.61,-3.0,-1.08,7.98,-43.47,-16.9,0.619098,0.66921,0.070223,-0.404859,0.0,0.0,0.0,0,0
2026-06-16 15:57:49.678,1482842,R_Ankle,0.0194,-0.0156,1.0192,0.76,-1.73,-0.48,-15.45,32.52,-24.53,0.101993,0.085849,0.029267,0.990631,0.0,0.0,0.0,0,0
2026-06-16 15:57:49.680,1482941,L_Hip,0.1205,-0.0867,0.9948,-4.25,4.53,2.1,4.21,31.33,-26.63,0.992859,-0.025605,-0.073,0.090457,0.0,0.0,0.0,0,0
2026-06-16 15:57:49.681,1482862,R_Ankle,0.0179,-0.0166,0.9919,0.77,-1.71,-0.5,-12.22,34.31,-26.21,0.101993,0.085849,0.029267,0.990631,0.0,0.0,0.0,0,0
2026-06-16 15:57:49.683,1482961,L_Hip,0.1239,-0.0887,0.9914,-4.25,4.55,1.79,2.7,31.15,-27.05,0.992859,-0.025513,-0.073031,0.090457,0.0,0.0,0.0,0,0
2026-06-16 15:57:49.683,1482812,R_Hip,0.0476,0.0089,0.9866,0.27,-1.57,1.78,-18.69,30.37,-34.37,0.943571,-0.00354,-0.041566,-0.328471,0.0,0.0,0.0,0,0
2026-06-16 15:57:49.685,1482981,L_Hip,0.1073,-0.0798,0.9866,-4.4,4.64,1.07,0.0,0.0,0.0,0.992859,-0.025788,-0.073061,0.090457,0.0,0.0,0.0,0,0
2026-06-16 15:57:49.686,1482832,R_Hip,0.053,-0.0003,0.9881,0.26,-1.58,1.77,0.0,0.0,0.0,0.943571,-0.00354,-0.041627,-0.32844,0.0,0.0,0.0,0,0
2026-06-16 15:57:49.689,1482852,R_Hip,0.0436,-0.0003,0.9885,0.29,-1.56,1.77,-19.78,28.53,-30.6,0.943571,-0.00354,-0.041627,-0.328471,0.0,0.0,0.0,0,0
2026-06-16 15:57:49.690,1483001,L_Hip,0.1146,-0.0789,0.9841,-4.52,4.7,0.68,3.16,30.66,-24.87,0.992889,-0.025758,-0.072878,0.090457,0.0,0.0,0.0,0,0
2026-06-16 15:57:49.694,1482961,L_Shank,-0.652,0.6889,0.0573,3.32,-2.09,-1.87,6.94,-42.79,-16.89,0.616474,0.669576,0.070894,-0.408155,0.0,0.0,0.0,0,0
2026-06-16 15:57:49.694,1482872,R_Hip,0.0407,0.0045,1.001,0.28,-1.58,1.78,-19.96,29.45,-32.48,0.943571,-0.00354,-0.041627,-0.32844,0.0,0.0,0.0,0,0
2026-06-16 15:57:49.699,1482981,L_Shank,-0.6681,0.7021,0.0702,3.43,-1.7,-1.83,0.0,0.0,0.0,0.614154,0.669576,0.072359,-0.411298,0.0,0.0,0.0,0,0
2026-06-16 15:57:49.700,1482837,R_Hip,0.0491,0.0069,1.0006,0.27,-1.57,1.77,-20.51,27.8,-31.63,0.943571,-0.00354,-0.041627,-0.32844,0.0,0.0,0.0,0,0
2026-06-16 15:57:49.702,1483001,L_Shank,-0.6798,0.7124,0.028,3.07,-1.06,-1.85,6.93,-43.48,-16.57,0.611896,0.669729,0.07416,-0.414136,0.0,0.0,0.0,0,0
2026-06-16 15:57:49.705,1482857,R_Hip,0.0486,0.0093,0.9818,0.28,-1.58,1.78,0.0,0.0,0.0,0.943571,-0.00354,-0.041658,-0.32844,0.0,0.0,0.0,0,0
2026-06-16 15:57:49.706,1483021,L_Shank,-0.6598,0.6884,0.0016,2.86,-1.01,-2.12,0.0,0.0,0.0,0.60976,0.66979,0.075137,-0.416974,0.0,0.0,0.0,0,0
2026-06-16 15:57:49.708,1482877,R_Hip,0.0456,0.0128,0.9986,0.26,-1.58,1.77,-19.6,29.08,-32.14,0.943571,-0.00354,-0.041688,-0.32844,0.0,0.0,0.0,0,0
2026-06-16 15:57:49.710,1482897,R_Hip,0.0451,0.0015,0.9861,0.26,-1.58,1.77,-18.69,29.27,-31.97,0.943571,-0.00354,-0.041688,-0.32844,0.0,0.0,0.0,0,0
2026-06-16 15:57:49.713,1482842,R_Shank,0.0404,1.4688,0.9946,-0.09,-1.45,-8.42,-13.91,26.56,-22.16,0.903836,0.035737,-0.01767,0.425977,0.0,0.0,0.0,0,0
2026-06-16 15:57:49.715,1482862,R_Shank,0.0419,1.4688,1.0152,-0.09,-1.45,-8.43,0.0,0.0,0.0,0.903836,0.035737,-0.01767,0.425977,0.0,0.0,0.0,0,0
2026-06-16 15:57:49.718,1482998,L_Ankle,0.1168,0.0329,0.9966,5.4,-0.84,-10.29,-19.75,1.62,-43.27,0.997223,0.024995,-0.068697,0.013245,0.0,0.0,0.0,0,0
2026-06-16 15:57:49.720,1482882,R_Shank,0.036,-0.3316,1.0032,-0.09,-1.47,-8.43,-13.09,27.04,-21.71,0.903836,0.035768,-0.017701,0.425977,0.0,0.0,0.0,0,0
2026-06-16 15:57:49.721,1483018,L_Ankle,0.1114,0.0153,0.9827,5.4,-0.85,-10.3,-18.85,1.08,-42.06,0.997223,0.024964,-0.068728,0.013276,0.0,0.0,0.0,0,0
2026-06-16 15:57:49.722,1482902,R_Shank,0.0409,-2.7732,1.009,-0.09,-1.47,-8.41,-12.22,26.19,-22.18,0.903836,0.035798,-0.01767,0.425977,0.0,0.0,0.0,0,0
2026-06-16 15:57:49.723,1483038,L_Ankle,0.1119,0.0246,0.9822,5.4,-0.85,-10.28,0.0,0.0,0.0,0.997223,0.024934,-0.068728,0.013276,0.0,0.0,0.0,0,0
2026-06-16 15:57:49.725,1482847,R_Ankle,0.0145,-0.0126,1.0067,0.75,-1.72,-0.48,-13.07,34.46,-25.76,0.101993,0.085849,0.029267,0.990631,0.0,0.0,0.0,0,0
2026-06-16 15:57:49.726,1483058,L_Ankle,0.1163,0.0241,0.9755,5.39,-0.84,-10.29,-19.6,2.86,-43.43,0.997223,0.024934,-0.068728,0.013276,0.0,0.0,0.0,0,0
2026-06-16 15:57:49.727,1482867,R_Ankle,0.0052,-0.0126,1.0048,0.75,-1.73,-0.51,0.0,0.0,0.0,0.101993,0.085818,0.029267,0.990631,0.0,0.0,0.0,0,0
2026-06-16 15:57:49.729,1483009,L_Hip,0.0572,-0.0735,0.9759,-4.53,4.69,-1.16,2.84,30.98,-25.74,0.992889,-0.025544,-0.072787,0.090457,0.0,0.0,0.0,0,0
2026-06-16 15:57:49.730,1482887,R_Ankle,0.0165,-0.0076,1.0019,0.76,-1.72,-0.5,-14.1,33.51,-26.38,0.101993,0.085818,0.029267,0.990631,0.0,0.0,0.0,0,0
2026-06-16 15:57:49.731,1483029,L_Hip,0.0837,-0.0852,0.9774,-4.64,4.76,-1.41,3.19,30.99,-26.33,0.992859,-0.02588,-0.073122,0.090426,0.0,0.0,0.0,0,0
2026-06-16 15:57:49.732,1482907,R_Ankle,0.0179,-0.0131,1.0038,0.77,-1.73,-0.49,-13.59,33.35,-26.21,0.101993,0.085818,0.029267,0.990631,0.0,0.0,0.0,0,0
2026-06-16 15:57:49.734,1483049,L_Hip,0.0268,-0.0774,0.9851,-4.74,4.8,-1.96,2.53,31.3,-26.9,0.992859,-0.025849,-0.073061,0.090396,0.0,0.0,0.0,0,0
2026-06-16 15:57:49.735,1482862,R_Hip,0.054,-0.0062,0.9856,0.28,-1.58,1.8,-18.69,27.44,-31.62,0.943571,-0.00354,-0.041688,-0.32844,0.0,0.0,0.0,0,0
2026-06-16 15:57:49.736,1483069,L_Hip,0.0906,-0.0612,0.9633,-4.64,4.73,-2.19,0.0,0.0,0.0,0.992889,-0.025941,-0.073031,0.090274,0.0,0.0,0.0,0,0
2026-06-16 15:57:49.737,1482882,R_Hip,0.0436,0.0142,0.9972,0.27,-1.58,1.8,0.0,0.0,0.0,0.943571,-0.003571,-0.041658,-0.32844,0.0,0.0,0.0,0,0
2026-06-16 15:57:49.739,1482902,R_Hip,0.0461,0.0064,0.9784,0.26,-1.58,1.78,-20.33,29.45,-31.8,0.943571,-0.003571,-0.041688,-0.32844,0.0,0.0,0.0,0,0
2026-06-16 15:57:49.741,1482922,R_Hip,0.0481,0.0113,0.9967,0.25,-1.57,1.79,-20.33,28.72,-32.82,0.943571,-0.003571,-0.041688,-0.32844,0.0,0.0,0.0,0,0
2026-06-16 15:57:49.742,1483022,L_Ankle,0.1163,0.0256,0.9962,5.41,-0.86,-10.29,-19.4,1.97,-42.58,0.997223,0.024903,-0.068697,0.013276,0.0,0.0,0.0,0,0
2026-06-16 15:57:49.744,1483042,L_Ankle,0.1178,0.0315,0.9803,5.4,-0.85,-10.28,-20.65,3.23,-43.11,0.997223,0.024842,-0.068728,0.013276,0.0,0.0,0.0,0,0
2026-06-16 15:57:49.745,1483062,L_Ankle,0.1099,0.0295,0.9885,5.4,-0.84,-10.3,0.0,0.0,0.0,0.997223,0.024842,-0.068728,0.013306,0.0,0.0,0.0,0,0
2026-06-16 15:57:49.747,1483082,L_Ankle,0.1129,0.0295,0.9837,5.41,-0.86,-10.29,-18.89,3.56,-42.39,0.997223,0.024812,-0.068728,0.013306,0.0,0.0,0.0,0,0
2026-06-16 15:57:49.751,1483031,L_Hip,0.0587,-0.0617,1.004,-4.81,4.85,-1.85,1.52,32.89,-25.44,0.992889,-0.025727,-0.073092,0.090152,0.0,0.0,0.0,0,0
2026-06-16 15:57:49.753,1483051,L_Hip,0.0504,-0.0946,0.9982,-4.87,4.9,-1.64,1.17,30.95,-26.59,0.99292,-0.025849,-0.073061,0.089938,0.0,0.0,0.0,0,0
2026-06-16 15:57:49.755,1483071,L_Hip,0.0508,-0.0882,0.9817,-4.53,4.71,-1.17,1.66,31.44,-25.58,0.99295,-0.025971,-0.073031,0.08945,0.0,0.0,0.0,0,0
2026-06-16 15:57:49.756,1483032,L_Hip,0.1583,-0.0558,0.9139,-4.35,4.59,-0.82,0.0,0.0,0.0,0.993042,-0.026032,-0.073031,0.088504,0.0,0.0,0.0,0,0
2026-06-16 15:57:49.758,1483036,L_Shank,-0.7096,0.704,0.0011,2.7,-0.38,-2.89,9.02,-44.84,-15.95,0.607807,0.669607,0.07535,-0.420087,0.0,0.0,0.0,0,0
2026-06-16 15:57:49.760,1483056,L_Shank,-0.7409,0.6977,0.0117,2.38,-0.64,-3.03,8.33,-44.49,-16.57,0.605884,0.669698,0.075045,-0.422803,0.0,0.0,0.0,0,0
2026-06-16 15:57:49.762,1483076,L_Shank,-0.7331,0.6952,0.0083,2.22,-0.9,-2.93,7.97,-44.85,-15.63,0.603931,0.669912,0.074862,-0.425245,0.0,0.0,0.0,0,0
2026-06-16 15:57:49.764,1483096,L_Shank,-0.7849,0.7143,0.0203,1.96,-1.32,-2.4,0.0,0.0,0.0,0.60213,0.670034,0.074557,-0.427656,0.0,0.0,0.0,0,0
2026-06-16 15:57:49.765,1482910,R_Shank,0.0429,-2.2548,1.0119,-0.1,-1.47,-8.43,-12.93,27.21,-20.66,0.903836,0.035798,-0.017701,0.426008,0.0,0.0,0.0,0,0
2026-06-16 15:57:49.767,1482930,R_Shank,0.0375,1.4688,1.009,-0.07,-1.46,-8.43,0.0,0.0,0.0,0.903836,0.035768,-0.017701,0.426008,0.0,0.0,0.0,0,0
2026-06-16 15:57:49.769,1482950,R_Shank,0.0399,-1.7432,1.0013,-0.09,-1.46,-8.43,-13.09,27.37,-21.71,0.903836,0.035768,-0.01767,0.426008,0.0,0.0,0.0,0,0
2026-06-16 15:57:49.770,1482970,R_Shank,0.0429,-1.232,1.0013,-0.09,-1.47,-8.42,-12.4,27.02,-22.62,0.903836,0.035798,-0.017701,0.426008,0.0,0.0,0.0,0,0
2026-06-16 15:57:49.772,1482913,R_Hip,0.0436,0.0035,0.9876,0.29,-1.57,1.77,-19.6,27.99,-33.16,0.943571,-0.00354,-0.041688,-0.32844,0.0,0.0,0.0,0,0
2026-06-16 15:57:49.774,1482933,R_Hip,0.0456,0.0142,0.9885,0.27,-1.57,1.77,-19.6,28.36,-33.51,0.943571,-0.00354,-0.041688,-0.32844,0.0,0.0,0.0,0,0
2026-06-16 15:57:49.776,1482953,R_Hip,0.0441,0.0074,0.9962,0.26,-1.58,1.77,0.0,0.0,0.0,0.943571,-0.00354,-0.041688,-0.32844,0.0,0.0,0.0,0,0
2026-06-16 15:57:49.778,1482973,R_Hip,0.053,0.0064,1.0044,0.27,-1.56,1.79,-20.88,30.0,-32.32,0.943571,-0.00351,-0.041719,-0.32844,0.0,0.0,0.0,0,0
2026-06-16 15:57:49.779,1482915,R_Ankle,0.0214,-0.0086,1.0038,0.77,-1.73,-0.48,-14.6,33.97,-25.31,0.101993,0.085818,0.029298,0.990631,0.0,0.0,0.0,0,0
2026-06-16 15:57:49.782,1482935,R_Ankle,0.014,-0.0185,0.9938,0.75,-1.72,-0.49,0.0,0.0,0.0,0.101993,0.085818,0.029267,0.990631,0.0,0.0,0.0,0,0
2026-06-16 15:57:49.782,1483061,L_Shank,-0.7047,0.7148,0.04,1.45,-2.2,-0.98,8.5,-44.67,-16.42,0.600391,0.670156,0.07419,-0.429945,0.0,0.0,0.0,0,0
2026-06-16 15:57:49.784,1482955,R_Ankle,0.0096,-0.0146,1.0,0.76,-1.74,-0.48,-14.43,34.13,-25.77,0.101993,0.085818,0.029267,0.990631,0.0,0.0,0.0,0,0
2026-06-16 15:57:49.785,1483081,L_Shank,-0.6583,0.7026,0.0352,1.48,-2.05,-0.88,0.0,0.0,0.0,0.599841,0.669759,0.07474,-0.431257,0.0,0.0,0.0,0,0
2026-06-16 15:57:49.787,1482975,R_Ankle,0.0116,-0.0062,1.0115,0.77,-1.73,-0.49,-14.61,34.3,-26.54,0.101993,0.085849,0.029267,0.990631,0.0,0.0,0.0,0,0
2026-06-16 15:57:49.787,1483101,L_Shank,-0.6642,0.708,0.0117,1.85,-0.93,-1.34,9.36,-44.17,-15.34,0.599322,0.669301,0.076662,-0.432325,0.0,0.0,0.0,0,0
2026-06-16 15:57:49.789,1483121,L_Shank,-0.6774,0.7197,0.0285,1.9,-0.61,-1.6,7.8,-44.67,-16.41,0.597522,0.670003,0.077212,-0.433668,0.0,0.0,0.0,0,0
2026-06-16 15:57:49.791,1483066,L_Ankle,0.1178,0.0207,0.9861,5.4,-0.84,-10.29,-19.39,2.33,-41.9,0.997223,0.024781,-0.068758,0.013306,0.0,0.0,0.0,0,0
2026-06-16 15:57:49.792,1482937,R_Hip,0.051,-0.0028,1.0126,0.25,-1.58,1.78,-19.05,28.9,-32.31,0.943571,-0.00351,-0.041719,-0.32844,0.0,0.0,0.0,0,0
2026-06-16 15:57:49.794,1483086,L_Ankle,0.1212,0.0192,1.0048,5.4,-0.84,-10.3,-19.44,3.03,-44.28,0.997223,0.024781,-0.068758,0.013337,0.0,0.0,0.0,0,0
2026-06-16 15:57:49.794,1482957,R_Hip,0.053,0.0054,0.9808,0.26,-1.58,1.78,0.0,0.0,0.0,0.943571,-0.00351,-0.041719,-0.32844,0.0,0.0,0.0,0,0
2026-06-16 15:57:49.796,1483106,L_Ankle,0.1251,0.0178,0.987,5.39,-0.85,-10.29,-19.4,1.97,-42.92,0.997223,0.024751,-0.068758,0.013337,0.0,0.0,0.0,0,0
2026-06-16 15:57:49.797,1482977,R_Hip,0.051,0.0059,0.9924,0.27,-1.57,1.76,-19.05,30.73,-32.31,0.943571,-0.00354,-0.041719,-0.32844,0.0,0.0,0.0,0,0
2026-06-16 15:57:49.798,1483126,L_Ankle,0.1188,0.0222,0.9899,5.39,-0.86,-10.31,-19.96,2.86,-43.78,0.997223,0.024689,-0.068758,0.013337,0.0,0.0,0.0,0,0
2026-06-16 15:57:49.799,1482997,R_Hip,0.0476,0.0113,0.9861,0.27,-1.57,1.78,-19.6,28.72,-32.82,0.943571,-0.00354,-0.041749,-0.32844,0.0,0.0,0.0,0,0
2026-06-16 15:57:49.800,1483076,L_Hip,0.1107,-0.0739,0.9885,-4.06,4.5,1.65,1.66,30.8,-25.87,0.993164,-0.026124,-0.072939,0.087008,0.0,0.0,0.0,0,0
2026-06-16 15:57:49.802,1483096,L_Hip,0.0876,-0.071,0.9943,-4.14,4.51,2.22,0.0,0.0,0.0,0.993377,-0.026337,-0.072726,0.084902,0.0,0.0,0.0,0,0
2026-06-16 15:57:49.804,1483116,L_Hip,0.2564,-0.071,0.9227,-4.2,4.49,2.85,0.31,31.1,-25.85,0.993622,-0.02649,-0.07239,0.082156,0.0,0.0,0.0,0,0
2026-06-16 15:57:49.805,1483077,L_Hip,0.0479,-0.0445,1.0001,-4.22,4.49,3.53,1.66,31.12,-25.87,0.993896,-0.026643,-0.072146,0.078982,0.0,0.0,0.0,0,0
2026-06-16 15:57:49.807,1483086,L_Shank,-0.7331,0.7104,0.0529,1.9,-0.54,-2.12,8.85,-43.31,-16.44,0.596423,0.670217,0.075991,-0.435011,0.0,0.0,0.0,0,0
2026-06-16 15:57:49.809,1483106,L_Shank,-0.7653,0.7114,0.0357,2.0,-0.76,-2.02,0.0,0.0,0.0,0.595508,0.670186,0.075289,-0.436445,0.0,0.0,0.0,0,0
2026-06-16 15:57:49.810,1482955,R_Shank,0.0399,2.1096,0.997,-0.09,-1.47,-8.42,-13.73,26.05,-22.62,0.903806,0.035798,-0.017701,0.426008,0.0,0.0,0.0,0,0
2026-06-16 15:57:49.812,1483126,L_Shank,-0.7903,0.7212,0.0529,2.12,-1.0,-1.83,8.85,-42.63,-16.45,0.594501,0.670461,0.075137,-0.437452,0.0,0.0,0.0,0,0
2026-06-16 15:57:49.812,1482975,R_Shank,0.0434,-1.8728,1.0157,-0.09,-1.45,-8.41,0.0,0.0,0.0,0.903806,0.035798,-0.017701,0.426008,0.0,0.0,0.0,0,0
2026-06-16 15:57:49.815,1483146,L_Shank,-0.7433,0.704,0.0649,2.35,-1.55,-1.18,9.72,-44.16,-16.28,0.593371,0.670675,0.075137,-0.438612,0.0,0.0,0.0,0,0
2026-06-16 15:57:49.815,1482995,R_Shank,0.0326,3.01,1.0071,-0.09,-1.48,-8.42,-12.91,26.54,-21.87,0.903806,0.035829,-0.017701,0.426008,0.0,0.0,0.0,0,0
2026-06-16 15:57:49.817,1483089,L_Ankle,0.1212,0.0266,0.9784,5.4,-0.83,-10.29,-19.38,2.33,-41.56,0.997223,0.024689,-0.068789,0.013367,0.0,0.0,0.0,0,0
2026-06-16 15:57:49.818,1483015,R_Shank,0.0355,2.4984,0.9989,-0.09,-1.46,-8.44,-12.9,26.54,-22.17,0.903806,0.035798,-0.017701,0.426008,0.0,0.0,0.0,0,0
2026-06-16 15:57:49.820,1483109,L_Ankle,0.1207,0.0202,0.9875,5.4,-0.86,-10.28,0.0,0.0,0.0,0.997223,0.024689,-0.068819,0.013337,0.0,0.0,0.0,0,0
2026-06-16 15:57:49.820,1482961,R_Ankle,0.0116,-0.0072,1.0038,0.77,-1.73,-0.48,-13.59,33.35,-26.21,0.101993,0.085818,0.029298,0.990631,0.0,0.0,0.0,0,0
2026-06-16 15:57:49.822,1483129,L_Ankle,0.1099,0.0153,0.9822,5.41,-0.86,-10.29,-19.59,2.86,-42.75,0.997223,0.024659,-0.068819,0.013367,0.0,0.0,0.0,0,0
2026-06-16 15:57:49.823,1482981,R_Ankle,0.0091,-0.0131,0.9986,0.77,-1.72,-0.5,-12.91,34.31,-26.53,0.101993,0.085849,0.029298,0.990631,0.0,0.0,0.0,0,0
2026-06-16 15:57:49.825,1483149,L_Ankle,0.1153,0.0261,0.9952,5.4,-0.84,-10.29,0.0,0.0,0.0,0.997223,0.024659,-0.068819,0.013367,0.0,0.0,0.0,0,0
2026-06-16 15:57:49.825,1483001,R_Ankle,0.0175,-0.0101,0.9933,0.76,-1.71,-0.5,0.0,0.0,0.0,0.101993,0.085849,0.029298,0.990631,0.0,0.0,0.0,0,0
2026-06-16 15:57:49.827,1483021,R_Ankle,0.014,-0.0057,0.9976,0.76,-1.72,-0.5,-13.93,33.67,-26.53,0.101993,0.085849,0.029328,0.990631,0.0,0.0,0.0,0,0
2026-06-16 15:57:49.832,1482977,R_Shank,0.0345,2.3688,1.0172,-0.08,-1.47,-8.42,-12.41,26.7,-21.42,0.903806,0.035798,-0.017701,0.426008,0.0,0.0,0.0,0,0
2026-06-16 15:57:49.834,1482997,R_Shank,0.0478,-0.4612,1.0114,-0.08,-1.45,-8.41,-14.42,26.4,-22.0,0.903806,0.035798,-0.01767,0.426008,0.0,0.0,0.0,0,0
2026-06-16 15:57:49.835,1483017,R_Shank,0.0394,3.1396,1.0047,-0.09,-1.47,-8.41,-12.59,27.2,-21.26,0.903806,0.035829,-0.01767,0.426008,0.0,0.0,0.0,0,0
2026-06-16 15:57:49.837,1483037,R_Shank,0.0414,0.4388,0.9931,-0.09,-1.48,-8.42,0.0,0.0,0.0,0.903806,0.035829,-0.017701,0.426008,0.0,0.0,0.0,0,0
2026-06-16 15:57:49.841,1483121,L_Hip,0.1897,0.0124,0.9367,-3.72,4.39,3.62,1.32,29.83,-26.73,0.994171,-0.026795,-0.071841,0.075472,0.0,0.0,0.0,0,0
2026-06-16 15:57:49.843,1483141,L_Hip,0.1691,-0.0926,0.9924,-4.06,4.48,3.92,0.0,0.0,0.0,0.994446,-0.026765,-0.07178,0.071841,0.0,0.0,0.0,0,0
2026-06-16 15:57:49.845,1483161,L_Hip,0.1063,-0.0283,0.9565,-4.09,4.44,3.8,2.36,31.14,-27.04,0.99469,-0.027009,-0.071566,0.068392,0.0,0.0,0.0,0,0
2026-06-16 15:57:49.846,1483122,L_Hip,0.2215,-0.1059,0.9614,-4.21,4.54,3.77,1.03,32.08,-27.02,0.994934,-0.027253,-0.071169,0.065218,0.0,0.0,0.0,0,0
2026-06-16 15:57:49.854,1483134,L_Ankle,0.1276,0.0256,0.9894,5.41,-0.85,-10.29,-20.25,1.1,-42.43,0.997223,0.024628,-0.068819,0.013367,0.0,0.0,0.0,0,0
2026-06-16 15:57:49.855,1483000,R_Shank,0.0375,-1.7432,1.0061,-0.08,-1.46,-8.41,-12.57,26.54,-21.57,0.903806,0.035859,-0.01767,0.426008,0.0,0.0,0.0,0,0
2026-06-16 15:57:49.857,1483154,L_Ankle,0.1143,0.0026,0.9846,5.4,-0.84,-10.29,-21.51,2.36,-42.96,0.997223,0.024628,-0.06885,0.013398,0.0,0.0,0.0,0,0
2026-06-16 15:57:49.858,1483020,R_Shank,0.0394,1.5984,1.0013,-0.08,-1.48,-8.42,-11.92,27.19,-20.67,0.903806,0.035859,-0.01767,0.426038,0.0,0.0,0.0,0,0
2026-06-16 15:57:49.859,1483174,L_Ankle,0.1188,0.0178,0.9712,5.4,-0.83,-10.28,-20.46,2.34,-42.94,0.997223,0.024628,-0.06885,0.013398,0.0,0.0,0.0,0,0
2026-06-16 15:57:49.860,1483040,R_Shank,0.0404,2.4984,1.0066,-0.08,-1.47,-8.44,0.0,0.0,0.0,0.903806,0.035859,-0.01767,0.426008,0.0,0.0,0.0,0,0
2026-06-16 15:57:49.862,1483194,L_Ankle,0.1119,0.0197,1.0067,5.4,-0.83,-10.29,-19.79,3.75,-43.26,0.997223,0.024628,-0.06885,0.013398,0.0,0.0,0.0,0,0
2026-06-16 15:57:49.863,1483060,R_Shank,0.0443,-2.7732,1.0032,-0.09,-1.46,-8.41,-12.21,25.86,-22.48,0.903806,0.035859,-0.01767,0.426038,0.0,0.0,0.0,0,0
2026-06-16 15:57:49.865,1483136,L_Shank,-0.7155,0.7016,0.0304,2.54,-0.61,-1.05,9.55,-43.65,-16.13,0.592303,0.671102,0.075381,-0.439344,0.0,0.0,0.0,0,0
2026-06-16 15:57:49.866,1483005,R_Ankle,0.0091,-0.0106,1.0158,0.77,-1.72,-0.49,-13.59,32.38,-24.97,0.101993,0.085849,0.029328,0.990631,0.0,0.0,0.0,0,0
2026-06-16 15:57:49.868,1483156,L_Shank,-0.7101,0.6992,0.0198,2.32,0.39,-1.58,0.0,0.0,0.0,0.591205,0.671529,0.076052,-0.440077,0.0,0.0,0.0,0,0
2026-06-16 15:57:49.868,1483025,R_Ankle,0.0121,-0.0141,1.0187,0.77,-1.72,-0.49,0.0,0.0,0.0,0.101993,0.085849,0.029328,0.990631,0.0,0.0,0.0,0,0
2026-06-16 15:57:49.870,1483176,L_Shank,-0.7086,0.6879,0.0045,2.17,0.74,-1.92,8.5,-44.67,-16.42,0.589984,0.672018,0.077181,-0.440779,0.0,0.0,0.0,0,0
2026-06-16 15:57:49.870,1483045,R_Ankle,0.0194,-0.0086,1.0048,0.77,-1.73,-0.5,-15.14,32.87,-27.0,0.101993,0.085818,0.029328,0.990631,0.0,0.0,0.0,0,0
2026-06-16 15:57:49.872,1483065,R_Ankle,0.0175,-0.0151,1.0096,0.76,-1.72,-0.5,-12.91,33.36,-26.52,0.101993,0.085849,0.029328,0.990631,0.0,0.0,0.0,0,0
2026-06-16 15:57:49.873,1483196,L_Shank,-0.7453,0.6957,0.0141,1.87,1.29,-2.41,8.15,-42.97,-16.13,0.588702,0.672384,0.078585,-0.441664,0.0,0.0,0.0,0,0
2026-06-16 15:57:49.874,1483144,L_Hip,0.1377,-0.0867,1.0059,-4.12,4.49,2.56,2.02,31.45,-26.75,0.995117,-0.027314,-0.071078,0.062441,0.0,0.0,0.0,0,0
2026-06-16 15:57:49.876,1483164,L_Hip,0.1112,-0.0744,0.9909,-4.15,4.52,2.18,0.0,0.0,0.0,0.995239,-0.027436,-0.071108,0.060457,0.0,0.0,0.0,0,0
2026-06-16 15:57:49.878,1483184,L_Hip,0.1637,-0.0872,0.972,-4.33,4.58,1.58,0.34,31.42,-27.3,0.995331,-0.027467,-0.071017,0.059053,0.0,0.0,0.0,0,0
2026-06-16 15:57:49.880,1483204,L_Hip,0.1465,-0.0926,0.9929,-4.41,4.61,1.33,2.2,31.3,-27.19,0.995361,-0.027284,-0.071017,0.058351,0.0,0.0,0.0,0,0
2026-06-16 15:57:49.882,1483027,R_Ankle,0.013,-0.0106,1.0177,0.77,-1.72,-0.49,-15.63,33.32,-25.31,0.101993,0.085849,0.029328,0.990631,0.0,0.0,0.0,0,0
2026-06-16 15:57:49.882,1483161,L_Shank,-0.7717,0.6693,0.0227,1.55,1.29,-2.44,9.36,-42.82,-14.74,0.587664,0.672475,0.079806,-0.442732,0.0,0.0,0.0,0,0
2026-06-16 15:57:49.884,1483047,R_Ankle,0.0116,-0.0275,1.0014,0.75,-1.73,-0.5,0.0,0.0,0.0,0.101993,0.085849,0.029328,0.990631,0.0,0.0,0.0,0,0
2026-06-16 15:57:49.884,1483181,L_Shank,-0.7736,0.6737,0.0395,1.74,1.41,-2.13,0.0,0.0,0.0,0.586993,0.672292,0.08066,-0.443739,0.0,0.0,0.0,0,0
2026-06-16 15:57:49.887,1483067,R_Ankle,0.0194,-0.0151,1.0048,0.76,-1.72,-0.48,-12.93,32.73,-27.12,0.101993,0.085818,0.029298,0.990631,0.0,0.0,0.0,0,0
2026-06-16 15:57:49.887,1483201,L_Shank,-0.7746,0.684,0.0323,1.96,1.45,-1.99,9.38,-43.81,-16.59,0.586657,0.671896,0.081088,-0.444716,0.0,0.0,0.0,0,0
2026-06-16 15:57:49.889,1483087,R_Ankle,0.0145,-0.0106,1.0096,0.77,-1.73,-0.5,-12.05,32.87,-25.11,0.101993,0.085818,0.029298,0.990631,0.0,0.0,0.0,0,0
2026-06-16 15:57:49.890,1483221,L_Shank,-0.6871,0.6507,-0.0415,1.46,0.87,-1.8,10.07,-43.82,-15.98,0.586688,0.671377,0.081088,-0.445448,0.0,0.0,0.0,0,0
2026-06-16 15:57:49.892,1483038,R_Hip,0.0358,0.0089,0.9972,0.29,-1.58,1.77,-20.15,29.27,-33.0,0.943571,-0.003571,-0.04178,-0.32844,0.0,0.0,0.0,0,0
2026-06-16 15:57:49.893,1483058,R_Hip,0.0436,0.0098,0.9924,0.27,-1.58,1.78,0.0,0.0,0.0,0.943571,-0.00354,-0.04178,-0.32844,0.0,0.0,0.0,0,0
2026-06-16 15:57:49.895,1483078,R_Hip,0.0481,-0.0072,0.9765,0.28,-1.56,1.77,-19.6,28.72,-32.48,0.943571,-0.00354,-0.04178,-0.32844,0.0,0.0,0.0,0,0
2026-06-16 15:57:49.897,1483098,R_Hip,0.0456,0.004,0.9982,0.26,-1.57,1.79,-21.06,28.35,-31.8,0.943571,-0.00354,-0.041749,-0.32844,0.0,0.0,0.0,0,0
2026-06-16 15:57:49.899,1483045,R_Shank,0.0384,-1.1024,1.0109,-0.09,-1.47,-8.43,-13.39,26.04,-22.92,0.903806,0.03589,-0.017701,0.426038,0.0,0.0,0.0,0,0
2026-06-16 15:57:49.901,1483065,R_Shank,0.0389,-1.6136,0.9999,-0.09,-1.47,-8.44,-13.24,26.54,-22.47,0.903806,0.03592,-0.017701,0.426008,0.0,0.0,0.0,0,0
2026-06-16 15:57:49.903,1483085,R_Shank,0.0365,1.5984,1.0186,-0.09,-1.47,-8.42,0.0,0.0,0.0,0.903806,0.03589,-0.017701,0.426008,0.0,0.0,0.0,0,0
2026-06-16 15:57:49.904,1483105,R_Shank,0.0335,0.3096,1.0138,-0.08,-1.46,-8.41,-11.76,28.01,-21.72,0.903806,0.03592,-0.01767,0.426038,0.0,0.0,0.0,0,0
2026-06-16 15:57:49.906,1483050,R_Ankle,0.0062,-0.0176,1.0163,0.77,-1.72,-0.49,-14.62,32.07,-26.21,0.101993,0.085818,0.029298,0.990631,0.0,0.0,0.0,0,0
2026-06-16 15:57:49.907,1483070,R_Ankle,0.0155,-0.0072,1.0134,0.74,-1.74,-0.48,0.0,0.0,0.0,0.101993,0.085849,0.029298,0.990631,0.0,0.0,0.0,0,0
2026-06-16 15:57:49.910,1483189,L_Hip,0.1112,-0.0523,0.9832,-4.38,4.65,0.78,0.65,30.78,-26.43,0.995361,-0.027314,-0.071261,0.058473,0.0,0.0,0.0,0,0
2026-06-16 15:57:49.910,1483090,R_Ankle,0.0165,-0.0116,1.012,0.76,-1.72,-0.48,-13.77,32.23,-25.74,0.101993,0.085818,0.029298,0.990631,0.0,0.0,0.0,0,0
2026-06-16 15:57:49.912,1483209,L_Hip,0.0965,-0.0528,0.9953,-4.38,4.64,0.85,0.0,0.0,0.0,0.995331,-0.027284,-0.071108,0.059206,0.0,0.0,0.0,0,0
2026-06-16 15:57:49.913,1483110,R_Ankle,0.0155,-0.0111,1.0048,0.76,-1.73,-0.48,-15.28,34.28,-25.32,0.101993,0.085849,0.029298,0.990631,0.0,0.0,0.0,0,0
2026-06-16 15:57:49.914,1483229,L_Hip,0.0979,-0.0568,1.0074,-4.45,4.59,1.32,0.0,31.41,-26.43,0.9953,-0.026917,-0.071261,0.059725,0.0,0.0,0.0,0,0
2026-06-16 15:57:49.916,1483249,L_Hip,0.1249,-0.099,1.0083,-4.33,4.61,1.47,-0.01,30.13,-27.29,0.995239,-0.026765,-0.071505,0.060366,0.0,0.0,0.0,0,0
2026-06-16 15:57:49.917,1483062,R_Hip,0.0525,0.0093,0.989,0.27,-1.57,1.77,-18.14,30.54,-30.77,0.943571,-0.003571,-0.041749,-0.32844,0.0,0.0,0.0,0,0
2026-06-16 15:57:49.918,1483082,R_Hip,0.0407,0.003,0.9837,0.28,-1.58,1.78,0.0,0.0,0.0,0.943571,-0.003571,-0.041719,-0.32844,0.0,0.0,0.0,0,0
2026-06-16 15:57:49.925,1483200,L_Ankle,0.1119,0.0227,0.9966,5.39,-0.83,-10.31,-20.47,3.76,-42.59,0.997223,0.024628,-0.068819,0.013398,0.0,0.0,0.0,0,0
2026-06-16 15:57:49.925,1483102,R_Hip,0.0436,0.0118,0.9765,0.28,-1.57,1.79,-19.78,28.9,-33.0,0.943571,-0.00354,-0.041749,-0.32844,0.0,0.0,0.0,0,0
2026-06-16 15:57:49.927,1483122,R_Hip,0.0456,0.0186,0.9741,0.26,-1.57,1.76,-18.32,28.54,-32.31,0.943571,-0.00354,-0.041749,-0.32844,0.0,0.0,0.0,0,0
2026-06-16 15:57:49.927,1483220,L_Ankle,0.1124,0.0236,0.976,5.41,-0.84,-10.29,0.0,0.0,0.0,0.997223,0.024598,-0.06885,0.013398,0.0,0.0,0.0,0,0
2026-06-16 15:57:49.929,1483240,L_Ankle,0.1138,0.0256,0.9894,5.41,-0.85,-10.28,-18.38,1.95,-44.6,0.997223,0.024567,-0.06885,0.013428,0.0,0.0,0.0,0,0
2026-06-16 15:57:49.931,1483260,L_Ankle,0.1153,0.0241,0.9875,5.39,-0.85,-10.29,-19.91,1.45,-42.42,0.997223,0.024537,-0.068911,0.013428,0.0,0.0,0.0,0,0
2026-06-16 15:57:49.942,1483087,R_Hip,0.0407,0.0069,0.9905,0.28,-1.58,1.77,-20.69,28.72,-33.51,0.943571,-0.00354,-0.041749,-0.32844,0.0,0.0,0.0,0,0
2026-06-16 15:57:49.944,1483107,R_Hip,0.0431,0.0045,0.9861,0.27,-1.57,1.77,0.0,0.0,0.0,0.943571,-0.00354,-0.041749,-0.32844,0.0,0.0,0.0,0,0
2026-06-16 15:57:49.945,1483224,L_Ankle,0.1217,0.0241,0.9731,5.39,-0.84,-10.31,-19.77,3.4,-42.58,0.997223,0.024506,-0.068911,0.013428,0.0,0.0,0.0,0,0
2026-06-16 15:57:49.946,1483127,R_Hip,0.0441,0.0167,1.002,0.27,-1.57,1.77,-19.05,28.53,-31.28,0.943571,-0.00354,-0.041749,-0.32844,0.0,0.0,0.0,0,0
2026-06-16 15:57:49.947,1483244,L_Ankle,0.1153,0.0192,1.0067,5.4,-0.85,-10.29,0.0,0.0,0.0,0.997223,0.024506,-0.068941,0.013428,0.0,0.0,0.0,0,0
2026-06-16 15:57:49.949,1483147,R_Hip,0.0491,0.0069,0.9914,0.27,-1.56,1.77,-18.87,28.72,-32.14,0.943571,-0.00351,-0.041749,-0.32844,0.0,0.0,0.0,0,0
2026-06-16 15:57:49.950,1483264,L_Ankle,0.1158,0.0178,0.9861,5.38,-0.84,-10.29,-21.19,3.41,-43.97,0.997223,0.024476,-0.068972,0.013459,0.0,0.0,0.0,0,0
2026-06-16 15:57:49.951,1483090,R_Shank,0.0463,0.5684,0.9989,-0.09,-1.46,-8.42,-12.05,26.35,-22.33,0.903806,0.03592,-0.01767,0.426038,0.0,0.0,0.0,0,0
2026-06-16 15:57:49.952,1483284,L_Ankle,0.1197,0.0153,0.9837,5.39,-0.85,-10.29,-19.77,3.75,-42.58,0.997223,0.024445,-0.068972,0.013459,0.0,0.0,0.0,0,0
2026-06-16 15:57:49.954,1483110,R_Shank,0.0306,1.728,1.0018,-0.09,-1.48,-8.43,-14.08,25.74,-21.41,0.903806,0.03592,-0.017701,0.426038,0.0,0.0,0.0,0,0
2026-06-16 15:57:49.955,1483234,L_Hip,0.1244,-0.0646,0.9841,-4.28,4.58,1.98,1.5,31.28,-25.72,0.995209,-0.026704,-0.071505,0.060915,0.0,0.0,0.0,0,0
2026-06-16 15:57:49.957,1483130,R_Shank,0.0335,-1.6136,1.008,-0.09,-1.47,-8.43,0.0,0.0,0.0,0.903806,0.03592,-0.017701,0.426038,0.0,0.0,0.0,0,0
2026-06-16 15:57:49.957,1483254,L_Hip,-0.1281,0.0596,1.0776,-4.27,4.51,2.25,0.0,0.0,0.0,0.995148,-0.026795,-0.07178,0.061281,0.0,0.0,0.0,0,0
2026-06-16 15:57:49.959,1483150,R_Shank,0.0389,-1.8728,0.998,-0.09,-1.45,-8.42,-13.07,26.38,-21.72,0.903806,0.03592,-0.017701,0.426038,0.0,0.0,0.0,0,0
2026-06-16 15:57:49.960,1483274,L_Hip,0.0803,-0.1044,1.034,-4.61,4.8,1.51,0.34,31.1,-27.3,0.995148,-0.026856,-0.071963,0.061129,0.0,0.0,0.0,0,0
2026-06-16 15:57:49.962,1483095,R_Ankle,0.0214,-0.0121,0.9962,0.77,-1.73,-0.49,-13.59,32.38,-24.97,0.101993,0.085849,0.029298,0.990631,0.0,0.0,0.0,0,0
2026-06-16 15:57:49.962,1483294,L_Hip,0.1431,-0.1044,0.9817,-4.35,4.59,0.98,-0.15,31.58,-27.15,0.995178,-0.026856,-0.071993,0.060457,0.0,0.0,0.0,0,0
2026-06-16 15:57:49.964,1483115,R_Ankle,0.0067,-0.0205,0.9957,0.77,-1.73,-0.48,-14.26,33.33,-24.99,0.101993,0.085849,0.029298,0.990631,0.0,0.0,0.0,0,0
2026-06-16 15:57:49.965,1483235,L_Shank,-0.672,0.6718,-0.0045,1.17,1.93,-2.43,10.06,-43.83,-15.35,0.586505,0.671285,0.081362,-0.445784,0.0,0.0,0.0,0,0
2026-06-16 15:57:49.967,1483135,R_Ankle,0.013,-0.0096,1.0129,0.77,-1.74,-0.49,0.0,0.0,0.0,0.101993,0.085849,0.029298,0.990631,0.0,0.0,0.0,0,0
2026-06-16 15:57:49.967,1483255,L_Shank,-0.6691,0.6693,0.0246,0.73,1.9,-3.45,0.0,0.0,0.0,0.586016,0.671468,0.082186,-0.445997,0.0,0.0,0.0,0,0
2026-06-16 15:57:49.969,1483155,R_Ankle,0.0145,-0.0166,1.011,0.77,-1.73,-0.49,-13.4,34.77,-25.46,0.101993,0.085849,0.029298,0.990631,0.0,0.0,0.0,0,0
2026-06-16 15:57:49.970,1483275,L_Shank,-0.7321,0.7099,0.0429,0.74,1.69,-4.03,10.95,-43.64,-16.77,0.585437,0.67159,0.083285,-0.446364,0.0,0.0,0.0,0,0
2026-06-16 15:57:49.971,1483295,L_Shank,-0.7727,0.6869,0.1019,1.23,1.43,-3.78,10.07,-44.84,-15.96,0.584826,0.671621,0.084292,-0.446944,0.0,0.0,0.0,0,0
2026-06-16 15:57:49.974,1483246,L_Ankle,0.1212,0.0183,0.987,5.38,-0.83,-10.28,-20.63,2.17,-42.77,0.997223,0.024415,-0.068972,0.013459,0.0,0.0,0.0,0,0
2026-06-16 15:57:49.974,1483117,R_Ankle,0.0067,-0.0141,1.0196,0.76,-1.74,-0.49,-13.07,32.54,-24.81,0.101993,0.085849,0.029267,0.990631,0.0,0.0,0.0,0,0
2026-06-16 15:57:49.976,1483266,L_Ankle,0.1148,0.0261,0.9875,5.39,-0.84,-10.29,0.0,0.0,0.0,0.997223,0.024415,-0.069002,0.013459,0.0,0.0,0.0,0,0
2026-06-16 15:57:49.976,1483137,R_Ankle,0.015,-0.0116,0.9995,0.75,-1.74,-0.49,-14.78,33.81,-25.77,0.101962,0.085849,0.029267,0.990631,0.0,0.0,0.0,0,0
2026-06-16 15:57:49.978,1483286,L_Ankle,0.1148,0.0197,1.001,5.41,-0.85,-10.3,-19.08,3.03,-43.59,0.997223,0.024354,-0.069002,0.013489,0.0,0.0,0.0,0,0
2026-06-16 15:57:49.979,1483157,R_Ankle,0.0189,-0.0161,0.9952,0.76,-1.72,-0.49,0.0,0.0,0.0,0.101962,0.085849,0.029267,0.990631,0.0,0.0,0.0,0,0
2026-06-16 15:57:49.981,1483306,L_Ankle,0.1143,0.0217,0.9717,5.39,-0.84,-10.29,-20.63,3.23,-42.09,0.997223,0.024354,-0.069002,0.013489,0.0,0.0,0.0,0,0
2026-06-16 15:57:49.981,1483177,R_Ankle,0.0194,-0.0076,1.0067,0.76,-1.71,-0.49,-13.42,33.19,-25.75,0.101962,0.085849,0.029267,0.990631,0.0,0.0,0.0,0,0
2026-06-16 15:57:49.983,1483261,L_Shank,-0.821,0.6757,0.0654,2.68,0.09,-2.81,11.63,-44.68,-15.2,0.584185,0.671621,0.084902,-0.447615,0.0,0.0,0.0,0,0
2026-06-16 15:57:49.985,1483281,L_Shank,-0.8093,0.7036,0.0582,3.11,-0.57,-2.58,0.0,0.0,0.0,0.583697,0.671621,0.084964,-0.448286,0.0,0.0,0.0,0,0
2026-06-16 15:57:49.987,1483301,L_Shank,-0.8074,0.7163,0.0213,3.45,-1.12,-2.11,11.64,-44.32,-16.45,0.583148,0.671896,0.085147,-0.448531,0.0,0.0,0.0,0,0
2026-06-16 15:57:49.989,1483321,L_Shank,-0.7898,0.7045,-0.0036,3.64,-1.98,-1.27,11.29,-42.63,-16.16,0.582446,0.672506,0.085971,-0.448378,0.0,0.0,0.0,0,0
2026-06-16 15:57:49.990,1483136,R_Shank,0.0321,0.0572,1.0032,-0.09,-1.45,-8.41,-12.9,25.88,-21.57,0.903806,0.03589,-0.017701,0.426038,0.0,0.0,0.0,0,0
2026-06-16 15:57:49.992,1483156,R_Shank,0.0409,-1.6136,1.0109,-0.08,-1.47,-8.43,-12.54,24.88,-21.28,0.903806,0.035859,-0.01767,0.426038,0.0,0.0,0.0,0,0
2026-06-16 15:57:49.994,1483176,R_Shank,0.0399,-2.3844,0.9917,-0.09,-1.48,-8.43,0.0,0.0,0.0,0.903806,0.03589,-0.017701,0.426038,0.0,0.0,0.0,0,0
2026-06-16 15:57:49.996,1483196,R_Shank,0.0419,2.3688,1.0263,-0.08,-1.47,-8.42,-12.23,26.53,-21.88,0.903806,0.03589,-0.017701,0.426038,0.0,0.0,0.0,0,0
2026-06-16 15:57:49.997,1483138,R_Hip,0.0436,0.0059,0.9924,0.27,-1.58,1.79,-19.23,28.72,-31.8,0.943571,-0.00351,-0.04178,-0.32844,0.0,0.0,0.0,0,0
2026-06-16 15:57:50.000,1483158,R_Hip,0.0402,0.0118,0.9948,0.25,-1.58,1.79,0.0,0.0,0.0,0.943571,-0.00351,-0.04178,-0.32844,0.0,0.0,0.0,0,0
2026-06-16 15:57:50.001,1483279,L_Hip,0.1038,-0.0946,0.9953,-4.56,4.75,0.67,-1.17,31.23,-27.13,0.995239,-0.026948,-0.072024,0.059389,0.0,0.0,0.0,0,0
2026-06-16 15:57:50.003,1483178,R_Hip,0.0505,0.0089,0.9924,0.26,-1.57,1.77,-19.96,27.99,-32.14,0.943571,-0.00351,-0.04178,-0.32844,0.0,0.0,0.0,0,0
2026-06-16 15:57:50.004,1483299,L_Hip,0.1524,-0.097,0.9929,-4.42,4.67,0.53,0.0,0.0,0.0,0.995331,-0.0271,-0.071993,0.058046,0.0,0.0,0.0,0,0
2026-06-16 15:57:50.006,1483319,L_Hip,0.1573,-0.0769,0.9827,-4.41,4.74,0.41,-0.02,30.77,-26.13,0.995422,-0.027192,-0.071902,0.05652,0.0,0.0,0.0,0,0
2026-06-16 15:57:50.007,1483198,R_Hip,0.0397,0.0059,0.9751,0.29,-1.58,1.77,-19.23,28.35,-30.77,0.943571,-0.00351,-0.04181,-0.32844,0.0,0.0,0.0,0,0
2026-06-16 15:57:50.008,1483339,L_Hip,0.1543,-0.096,0.9711,-4.27,4.55,0.51,-0.48,31.89,-27.15,0.995514,-0.027161,-0.07178,0.055116,0.0,0.0,0.0,0,0
2026-06-16 15:57:50.010,1483286,L_Shank,-0.7316,0.6776,-0.0592,2.91,-1.94,-1.93,9.54,-44.68,-15.49,0.581652,0.673147,0.087527,-0.448134,0.0,0.0,0.0,0,0
2026-06-16 15:57:50.012,1483306,L_Shank,-0.7492,0.66,-0.066,2.51,-1.58,-1.91,0.0,0.0,0.0,0.580767,0.673818,0.089602,-0.447859,0.0,0.0,0.0,0,0
2026-06-16 15:57:50.013,1483157,R_Shank,0.038,-2.6436,1.0152,-0.09,-1.47,-8.42,-13.24,26.54,-22.17,0.903806,0.03589,-0.017701,0.426038,0.0,0.0,0.0,0,0
2026-06-16 15:57:50.015,1483326,L_Shank,-0.7399,0.7153,-0.1077,2.22,-1.45,-2.14,11.64,-43.65,-15.84,0.579974,0.674368,0.0918,-0.447645,0.0,0.0,0.0,0,0
2026-06-16 15:57:50.016,1483177,R_Shank,0.0389,-0.8432,1.008,-0.09,-1.46,-8.43,-14.08,26.39,-22.01,0.903806,0.03589,-0.017701,0.426038,0.0,0.0,0.0,0,0
2026-06-16 15:57:50.018,1483197,R_Shank,0.038,3.1396,1.0018,-0.08,-1.47,-8.43,0.0,0.0,0.0,0.903806,0.03589,-0.017701,0.426038,0.0,0.0,0.0,0,0
2026-06-16 15:57:50.019,1483346,L_Shank,-0.7556,0.6639,-0.0516,1.66,-1.25,-2.6,13.03,-45.02,-15.21,0.579211,0.674917,0.093875,-0.447371,0.0,0.0,0.0,0,0
2026-06-16 15:57:50.021,1483217,R_Shank,0.038,-3.1552,1.0215,-0.09,-1.48,-8.43,-12.24,26.53,-21.58,0.903806,0.03589,-0.017701,0.426038,0.0,0.0,0.0,0,0
2026-06-16 15:57:50.021,1483291,L_Ankle,0.1173,0.0192,0.9952,5.39,-0.84,-10.29,-18.89,3.2,-42.74,0.997223,0.024323,-0.069033,0.013489,0.0,0.0,0.0,0,0
2026-06-16 15:57:50.023,1483311,L_Ankle,0.1109,0.0134,0.9827,5.4,-0.85,-10.29,0.0,0.0,0.0,0.997223,0.024323,-0.069033,0.013489,0.0,0.0,0.0,0,0
2026-06-16 15:57:50.024,1483162,R_Hip,0.0491,0.0074,0.9967,0.26,-1.58,1.77,-18.69,28.17,-32.65,0.943571,-0.00351,-0.04178,-0.32844,0.0,0.0,0.0,0,0
2026-06-16 15:57:50.026,1483182,R_Hip,0.0358,0.0074,0.9962,0.27,-1.57,1.77,0.0,0.0,0.0,0.943571,-0.00351,-0.04181,-0.32844,0.0,0.0,0.0,0,0
2026-06-16 15:57:50.026,1483331,L_Ankle,0.1237,0.0217,0.9765,5.4,-0.87,-10.29,-19.75,2.33,-42.58,0.997223,0.024323,-0.069033,0.01352,0.0,0.0,0.0,0,0
2026-06-16 15:57:50.029,1483202,R_Hip,0.0402,0.0128,0.9982,0.27,-1.57,1.77,-18.14,29.45,-31.11,0.943571,-0.00351,-0.04178,-0.32844,0.0,0.0,0.0,0,0
2026-06-16 15:57:50.030,1483351,L_Ankle,0.1109,0.0271,0.9842,5.4,-0.85,-10.29,-19.23,2.5,-42.74,0.997223,0.024323,-0.069033,0.01352,0.0,0.0,0.0,0,0
2026-06-16 15:57:50.032,1483222,R_Hip,0.0397,0.0108,0.99,0.26,-1.57,1.77,-18.5,29.45,-31.45,0.943571,-0.003479,-0.04178,-0.32844,0.0,0.0,0.0,0,0
2026-06-16 15:57:50.039,1483185,R_Ankle,0.0111,-0.0076,1.0091,0.76,-1.73,-0.48,-14.59,34.28,-24.69,0.101993,0.085849,0.029267,0.990631,0.0,0.0,0.0,0,0
2026-06-16 15:57:50.041,1483205,R_Ankle,0.0189,-0.0151,1.0081,0.77,-1.73,-0.49,-12.94,33.06,-28.36,0.101962,0.085879,0.029267,0.990631,0.0,0.0,0.0,0,0
2026-06-16 15:57:50.046,1483225,R_Ankle,0.013,-0.0086,0.999,0.75,-1.74,-0.49,0.0,0.0,0.0,0.101962,0.085879,0.029267,0.990631,0.0,0.0,0.0,0,0
2026-06-16 15:57:50.047,1483324,L_Hip,0.0778,0.0139,0.9822,-4.17,4.55,2.18,-0.67,30.44,-27.57,0.995575,-0.027223,-0.071688,0.053987,0.0,0.0,0.0,0,0
2026-06-16 15:57:50.049,1483245,R_Ankle,0.0179,-0.0032,1.0105,0.76,-1.74,-0.49,-13.76,34.15,-26.69,0.101962,0.085879,0.029298,0.990631,0.0,0.0,0.0,0,0
2026-06-16 15:57:50.050,1483344,L_Hip,0.0072,-0.0666,1.0205,-4.29,4.54,2.47,-1.36,31.07,-26.11,0.995636,-0.027192,-0.071718,0.053041,0.0,0.0,0.0,0,0
2026-06-16 15:57:50.051,1483187,R_Hip,0.0387,0.0074,0.9755,0.27,-1.58,1.78,-19.05,30.36,-31.29,0.943571,-0.00351,-0.04178,-0.32844,0.0,0.0,0.0,0,0
2026-06-16 15:57:50.052,1483364,L_Hip,0.0817,-0.0209,0.9827,-4.0,4.49,2.66,0.0,0.0,0.0,0.995666,-0.027223,-0.071657,0.052278,0.0,0.0,0.0,0,0
2026-06-16 15:57:50.054,1483207,R_Hip,0.0422,0.0054,0.9962,0.26,-1.58,1.78,0.0,0.0,0.0,0.943571,-0.00351,-0.041749,-0.32844,0.0,0.0,0.0,0,0
2026-06-16 15:57:50.054,1483384,L_Hip,0.0469,-0.0607,1.0422,-4.16,4.5,3.0,-0.68,29.8,-28.15,0.995727,-0.0271,-0.071139,0.051698,0.0,0.0,0.0,0,0
2026-06-16 15:57:50.056,1483227,R_Hip,0.0431,0.0064,0.9871,0.27,-1.56,1.77,-19.24,28.36,-32.82,0.943571,-0.003479,-0.041749,-0.32844,0.0,0.0,0.0,0,0
2026-06-16 15:57:50.057,1483336,L_Shank,-0.78,0.6776,-0.077,0.9,-0.6,-2.25,12.34,-45.01,-16.14,0.578417,0.675619,0.095676,-0.446944,0.0,0.0,0.0,0,0
2026-06-16 15:57:50.058,1483247,R_Hip,0.0397,0.0157,0.9784,0.27,-1.57,1.78,-18.14,27.99,-33.16,0.943571,-0.00351,-0.041749,-0.32844,0.0,0.0,0.0,0,0
2026-06-16 15:57:50.060,1483356,L_Shank,-0.7536,0.685,-0.0463,0.88,-0.63,-2.37,0.0,0.0,0.0,0.577898,0.676077,0.097354,-0.446577,0.0,0.0,0.0,0,0
2026-06-16 15:57:50.062,1483376,L_Shank,-0.7785,0.6277,0.0419,1.0,-0.68,-2.45,13.72,-44.69,-14.6,0.57741,0.676656,0.09946,-0.445845,0.0,0.0,0.0,0,0
2026-06-16 15:57:50.063,1483207,R_Ankle,0.0199,-0.0096,1.0053,0.76,-1.71,-0.49,-12.92,32.72,-26.51,0.101993,0.085849,0.029298,0.990631,0.0,0.0,0.0,0,0
2026-06-16 15:57:50.065,1483337,L_Shank,-0.778,0.6541,0.0606,1.14,-1.19,-2.64,12.51,-42.8,-16.01,0.57683,0.677053,0.102268,-0.445387,0.0,0.0,0.0,0,0
2026-06-16 15:57:50.065,1483227,R_Ankle,0.0091,-0.0136,1.0105,0.75,-1.72,-0.49,-13.94,33.67,-26.84,0.101962,0.085849,0.029298,0.990631,0.0,0.0,0.0,0,0
2026-06-16 15:57:50.067,1483346,L_Hip,0.1249,-0.0685,0.9837,-3.82,4.31,3.54,-0.67,30.44,-27.57,0.995819,-0.027375,-0.070956,0.050478,0.0,0.0,0.0,0,0
2026-06-16 15:57:50.068,1483247,R_Ankle,0.0179,-0.0067,1.0,0.76,-1.72,-0.49,0.0,0.0,0.0,0.101993,0.085849,0.029267,0.990631,0.0,0.0,0.0,0,0
2026-06-16 15:57:50.071,1483366,L_Hip,0.1043,-0.0833,1.005,-3.96,4.47,3.64,-0.52,29.96,-27.43,0.99588,-0.027314,-0.071017,0.04883,0.0,0.0,0.0,0,0
2026-06-16 15:57:50.071,1483267,R_Ankle,0.0121,-0.0081,1.0182,0.76,-1.72,-0.49,-13.78,32.56,-26.98,0.101993,0.085849,0.029298,0.990631,0.0,0.0,0.0,0,0
2026-06-16 15:57:50.073,1483347,L_Hip,0.1342,-0.0396,0.9599,-3.93,4.49,3.72,0.0,0.0,0.0,0.995972,-0.027467,-0.070833,0.047212,0.0,0.0,0.0,0,0
2026-06-16 15:57:50.074,1483367,L_Hip,0.1465,-0.0351,0.9459,-3.96,4.39,4.15,0.01,32.06,-27.01,0.996063,-0.027589,-0.070833,0.045473,0.0,0.0,0.0,0,0
2026-06-16 15:57:50.080,1483359,L_Ankle,0.1134,0.0207,0.9914,5.4,-0.84,-10.29,-19.93,1.8,-43.44,0.997223,0.024323,-0.069033,0.01352,0.0,0.0,0.0,0,0
2026-06-16 15:57:50.080,1483225,R_Shank,0.0453,3.2692,1.0066,-0.1,-1.46,-8.42,-13.1,27.7,-21.41,0.903806,0.035859,-0.017701,0.426038,0.0,0.0,0.0,0,0
2026-06-16 15:57:50.082,1483379,L_Ankle,0.1188,0.0144,0.9789,5.4,-0.84,-10.29,0.0,0.0,0.0,0.997192,0.024323,-0.069063,0.01352,0.0,0.0,0.0,0,0
2026-06-16 15:57:50.083,1483245,R_Shank,0.0399,3.01,0.998,-0.09,-1.46,-8.41,0.0,0.0,0.0,0.903806,0.035859,-0.017701,0.426038,0.0,0.0,0.0,0,0
2026-06-16 15:57:50.084,1483399,L_Ankle,0.1222,0.0236,0.9827,5.39,-0.87,-10.31,-21.51,2.71,-42.95,0.997223,0.024293,-0.069063,0.01352,0.0,0.0,0.0,0,0
2026-06-16 15:57:50.085,1483265,R_Shank,0.0335,-0.0724,0.9898,-0.08,-1.47,-8.42,-12.58,26.86,-21.87,0.903775,0.03589,-0.017731,0.426069,0.0,0.0,0.0,0,0
2026-06-16 15:57:50.087,1483419,L_Ankle,0.1188,0.0149,1.0034,5.4,-0.84,-10.3,-19.06,1.61,-43.59,0.997192,0.024262,-0.069094,0.01355,0.0,0.0,0.0,0,0
2026-06-16 15:57:50.088,1483285,R_Shank,0.0365,2.2392,1.0076,-0.06,-1.48,-8.42,-12.22,25.54,-21.58,0.903775,0.03589,-0.017701,0.426069,0.0,0.0,0.0,0,0
2026-06-16 15:57:50.090,1483361,L_Shank,-0.7815,0.571,0.0966,1.45,-0.95,-2.37,13.2,-44.52,-14.75,0.576067,0.677175,0.10538,-0.445448,0.0,0.0,0.0,0,0
2026-06-16 15:57:50.090,1483230,R_Ankle,0.0155,-0.0121,1.0062,0.77,-1.72,-0.5,-14.79,33.51,-27.0,0.101993,0.085818,0.029298,0.990631,0.0,0.0,0.0,0,0
2026-06-16 15:57:50.092,1483381,L_Shank,-0.8606,0.6419,0.0587,1.67,-0.8,-2.29,12.15,-43.83,-15.06,0.575182,0.677297,0.108005,-0.445784,0.0,0.0,0.0,0,0
2026-06-16 15:57:50.093,1483250,R_Ankle,0.0096,-0.0081,1.0072,0.75,-1.73,-0.49,-13.76,33.51,-26.06,0.101993,0.085818,0.029298,0.990631,0.0,0.0,0.0,0,0
2026-06-16 15:57:50.095,1483401,L_Shank,-0.8264,0.6302,0.0438,1.81,-1.07,-2.31,0.0,0.0,0.0,0.574145,0.677541,0.109897,-0.446272,0.0,0.0,0.0,0,0
2026-06-16 15:57:50.095,1483270,R_Ankle,0.0106,-0.0131,1.0077,0.77,-1.74,-0.49,0.0,0.0,0.0,0.101993,0.085818,0.029298,0.990631,0.0,0.0,0.0,0,0
2026-06-16 15:57:50.097,1483421,L_Shank,-0.7604,0.6292,-0.0002,1.75,-1.69,-2.03,14.08,-41.96,-15.26,0.572893,0.677877,0.111118,-0.447066,0.0,0.0,0.0,0,0
2026-06-16 15:57:50.098,1483290,R_Ankle,0.016,-0.0116,0.9962,0.77,-1.72,-0.49,-13.23,34.61,-24.99,0.101993,0.085818,0.029298,0.990631,0.0,0.0,0.0,0,0
2026-06-16 15:57:50.102,1483381,L_Ankle,0.1109,0.0173,0.9856,5.39,-0.86,-10.29,-19.92,2.51,-42.08,0.997192,0.024232,-0.069094,0.01355,0.0,0.0,0.0,0,0
2026-06-16 15:57:50.102,1483247,R_Shank,0.0345,-0.0724,1.0095,-0.09,-1.47,-8.42,-11.35,24.36,-21.75,0.903775,0.03592,-0.017701,0.426069,0.0,0.0,0.0,0,0
2026-06-16 15:57:50.105,1483267,R_Shank,0.0389,3.01,1.0249,-0.07,-1.48,-8.41,0.0,0.0,0.0,0.903775,0.03592,-0.017701,0.426069,0.0,0.0,0.0,0,0
2026-06-16 15:57:50.105,1483401,L_Ankle,0.1143,0.0173,0.9765,5.4,-0.85,-10.29,-19.92,1.8,-42.42,0.997192,0.024201,-0.069094,0.01355,0.0,0.0,0.0,0,0
2026-06-16 15:57:50.107,1483287,R_Shank,0.0345,0.8276,1.0061,-0.09,-1.47,-8.41,-12.74,27.03,-22.32,0.903775,0.03592,-0.017701,0.426069,0.0,0.0,0.0,0,0
2026-06-16 15:57:50.107,1483421,L_Ankle,0.1217,0.0119,1.0024,5.41,-0.84,-10.28,0.0,0.0,0.0,0.997192,0.024201,-0.069094,0.01355,0.0,0.0,0.0,0,0
2026-06-16 15:57:50.110,1483441,L_Ankle,0.1173,0.0305,0.9928,5.39,-0.84,-10.29,-19.59,2.5,-43.43,0.997192,0.024171,-0.069094,0.01355,0.0,0.0,0.0,0,0
2026-06-16 15:57:50.110,1483307,R_Shank,0.035,1.3392,1.0215,-0.08,-1.47,-8.43,-13.06,26.37,-22.92,0.903775,0.03592,-0.01767,0.426069,0.0,0.0,0.0,0,0
2026-06-16 15:57:50.112,1483391,L_Hip,0.1455,-0.0464,0.9638,-3.95,4.38,4.46,0.31,29.81,-27.01,0.996124,-0.027589,-0.070864,0.043733,0.0,0.0,0.0,0,0
2026-06-16 15:57:50.114,1483411,L_Hip,0.1367,-0.0784,0.9972,-4.12,4.49,4.24,0.31,30.13,-27.01,0.996185,-0.027558,-0.070894,0.042421,0.0,0.0,0.0,0,0
2026-06-16 15:57:50.115,1483431,L_Hip,0.1298,-0.0862,0.9953,-3.96,4.46,4.04,0.0,0.0,0.0,0.996216,-0.027528,-0.070803,0.041719,0.0,0.0,0.0,0,0
2026-06-16 15:57:50.117,1483262,R_Hip,0.0377,0.0045,0.9962,0.26,-1.58,1.78,-18.69,27.08,-32.99,0.943571,-0.003479,-0.041719,-0.328471,0.0,0.0,0.0,0,0
2026-06-16 15:57:50.118,1483451,L_Hip,0.1274,-0.0405,0.989,-3.83,4.39,4.06,-1.5,30.91,-28.0,0.996246,-0.027406,-0.070498,0.041414,0.0,0.0,0.0,0,0
2026-06-16 15:57:50.119,1483282,R_Hip,0.0372,0.0113,0.9919,0.27,-1.58,1.78,0.0,0.0,0.0,0.943571,-0.003479,-0.041719,-0.32844,0.0,0.0,0.0,0,0
2026-06-16 15:57:50.121,1483302,R_Hip,0.0461,0.003,0.9986,0.28,-1.58,1.78,-18.87,28.35,-32.48,0.943571,-0.003479,-0.041688,-0.32844,0.0,0.0,0.0,0,0
2026-06-16 15:57:50.124,1483322,R_Hip,0.0486,-0.0042,0.976,0.28,-1.56,1.78,-18.87,28.35,-32.14,0.943571,-0.003479,-0.041688,-0.32844,0.0,0.0,0.0,0,0
2026-06-16 15:57:50.129,1483275,R_Ankle,0.0111,-0.02,0.9986,0.78,-1.73,-0.48,-14.1,33.51,-26.38,0.101993,0.085818,0.029328,0.990631,0.0,0.0,0.0,0,0
2026-06-16 15:57:50.131,1483295,R_Ankle,0.0155,-0.0037,1.0101,0.77,-1.72,-0.48,-14.07,34.43,-24.23,0.101993,0.085818,0.029298,0.990631,0.0,0.0,0.0,0,0
2026-06-16 15:57:50.132,1483315,R_Ankle,0.0189,-0.0007,0.9962,0.75,-1.73,-0.49,0.0,0.0,0.0,0.101993,0.085818,0.029328,0.990631,0.0,0.0,0.0,0,0
2026-06-16 15:57:50.134,1483335,R_Ankle,0.0116,-0.0126,0.9986,0.76,-1.73,-0.48,-13.41,33.5,-25.75,0.101993,0.085818,0.029359,0.990631,0.0,0.0,0.0,0,0
2026-06-16 15:57:50.142,1483287,R_Hip,0.0402,0.0079,0.99,0.29,-1.57,1.79,-19.6,28.72,-31.45,0.943571,-0.00351,-0.041688,-0.32844,0.0,0.0,0.0,0,0
2026-06-16 15:57:50.143,1483307,R_Hip,0.0491,0.002,0.9919,0.26,-1.56,1.78,0.0,0.0,0.0,0.943571,-0.00351,-0.041658,-0.32844,0.0,0.0,0.0,0,0
2026-06-16 15:57:50.145,1483327,R_Hip,0.0397,0.0015,0.9789,0.27,-1.57,1.77,-19.05,28.17,-31.97,0.943571,-0.00351,-0.041658,-0.32844,0.0,0.0,0.0,0,0
2026-06-16 15:57:50.147,1483347,R_Hip,0.0372,0.0142,0.9919,0.27,-1.58,1.77,-18.69,28.9,-32.31,0.943571,-0.00354,-0.041627,-0.32844,0.0,0.0,0.0,0,0
2026-06-16 15:57:50.157,1483436,L_Shank,-0.8005,0.5984,-0.0151,1.62,-1.1,-2.1,12.68,-44.34,-15.53,0.571642,0.678274,0.11124,-0.448042,0.0,0.0,0.0,0,0
2026-06-16 15:57:50.158,1483456,L_Shank,-0.8186,0.6155,0.0002,1.74,-1.08,-1.96,13.73,-43.32,-15.55,0.570605,0.678549,0.110721,-0.449049,0.0,0.0,0.0,0,0
2026-06-16 15:57:50.160,1483476,L_Shank,-0.8289,0.614,0.0112,1.85,-1.12,-1.78,0.0,0.0,0.0,0.569597,0.678793,0.110416,-0.450087,0.0,0.0,0.0,0,0
2026-06-16 15:57:50.162,1483496,L_Shank,-0.821,0.617,0.016,2.01,-1.37,-1.28,13.9,-45.19,-15.06,0.56859,0.679067,0.110599,-0.450911,0.0,0.0,0.0,0,0
2026-06-16 15:57:50.166,1483312,R_Hip,0.0343,0.0049,0.9929,0.26,-1.57,1.77,-19.96,29.08,-32.14,0.943571,-0.00351,-0.041627,-0.32844,0.0,0.0,0.0,0,0
2026-06-16 15:57:50.168,1483332,R_Hip,0.0412,-0.0013,1.0068,0.27,-1.57,1.77,0.0,0.0,0.0,0.943571,-0.00351,-0.041658,-0.32844,0.0,0.0,0.0,0,0
2026-06-16 15:57:50.171,1483449,L_Ankle,0.1099,0.0266,0.9899,5.41,-0.84,-10.29,-18.34,2.31,-41.88,0.997192,0.02414,-0.069124,0.013581,0.0,0.0,0.0,0,0
2026-06-16 15:57:50.172,1483352,R_Hip,0.0466,0.0089,0.9905,0.27,-1.58,1.78,-18.87,29.45,-33.51,0.943571,-0.00351,-0.041627,-0.32844,0.0,0.0,0.0,0,0
2026-06-16 15:57:50.174,1483469,L_Ankle,0.1232,0.0207,0.9885,5.4,-0.85,-10.28,-19.23,2.86,-42.4,0.997192,0.02414,-0.069124,0.013581,0.0,0.0,0.0,0,0
2026-06-16 15:57:50.175,1483372,R_Hip,0.0476,0.0103,0.9823,0.25,-1.58,1.77,-19.42,28.9,-32.31,0.943571,-0.00351,-0.041627,-0.32844,0.0,0.0,0.0,0,0
2026-06-16 15:57:50.176,1483489,L_Ankle,0.1109,0.0276,0.9837,5.39,-0.86,-10.28,0.0,0.0,0.0,0.997192,0.02411,-0.069155,0.013581,0.0,0.0,0.0,0,0
2026-06-16 15:57:50.178,1483315,R_Shank,0.0394,-0.3316,1.0008,-0.09,-1.48,-8.42,-12.89,26.2,-22.78,0.903775,0.03592,-0.017701,0.426069,0.0,0.0,0.0,0,0
2026-06-16 15:57:50.179,1483509,L_Ankle,0.1232,0.0246,1.0072,5.4,-0.85,-10.29,-19.25,3.21,-43.08,0.997192,0.02411,-0.069155,0.013581,0.0,0.0,0.0,0,0
2026-06-16 15:57:50.180,1483335,R_Shank,0.0384,0.8276,1.0028,-0.08,-1.48,-8.41,0.0,0.0,0.0,0.903775,0.03592,-0.017701,0.426069,0.0,0.0,0.0,0,0
2026-06-16 15:57:50.182,1483460,L_Hip,0.0489,-0.101,0.9895,-4.07,4.45,4.54,-0.53,29.63,-26.85,0.996277,-0.027253,-0.070315,0.041322,0.0,0.0,0.0,0,0
2026-06-16 15:57:50.183,1483355,R_Shank,0.0291,1.3392,1.0047,-0.09,-1.48,-8.43,-13.58,26.22,-21.56,0.903775,0.03592,-0.017701,0.426069,0.0,0.0,0.0,0,0
2026-06-16 15:57:50.184,1483480,L_Hip,0.1028,-0.1015,0.9977,-3.8,4.37,4.7,-0.67,30.76,-27.28,0.996277,-0.027161,-0.070284,0.041566,0.0,0.0,0.0,0,0
2026-06-16 15:57:50.186,1483375,R_Shank,0.0311,-2.514,0.9999,-0.09,-1.46,-8.42,-12.59,26.87,-20.97,0.903775,0.03592,-0.01767,0.426069,0.0,0.0,0.0,0,0
2026-06-16 15:57:50.187,1483500,L_Hip,0.0508,-0.0666,1.0045,-3.77,4.33,5.1,0.0,0.0,0.0,0.996246,-0.027161,-0.070223,0.041963,0.0,0.0,0.0,0,0
2026-06-16 15:57:50.189,1483320,R_Ankle,0.0072,-0.0111,1.0172,0.77,-1.73,-0.49,-13.25,32.71,-25.59,0.101993,0.085818,0.029359,0.990631,0.0,0.0,0.0,0,0
2026-06-16 15:57:50.190,1483520,L_Hip,0.1019,-0.0882,1.0079,-3.8,4.35,5.67,0.15,30.29,-26.86,0.996246,-0.02707,-0.070254,0.042451,0.0,0.0,0.0,0,0
2026-06-16 15:57:50.191,1483340,R_Ankle,0.0096,-0.0072,1.0129,0.75,-1.72,-0.48,-14.78,32.53,-25.14,0.101993,0.085849,0.029359,0.990631,0.0,0.0,0.0,0,0
2026-06-16 15:57:50.192,1483471,L_Ankle,0.1237,0.0227,1.0,5.41,-0.84,-10.29,-20.08,1.99,-41.91,0.997192,0.024079,-0.069124,0.013611,0.0,0.0,0.0,0,0
2026-06-16 15:57:50.193,1483360,R_Ankle,0.0179,-0.0181,0.9933,0.77,-1.74,-0.49,0.0,0.0,0.0,0.101993,0.085818,0.029389,0.990631,0.0,0.0,0.0,0,0
2026-06-16 15:57:50.195,1483491,L_Ankle,0.1129,0.0173,1.0,5.4,-0.85,-10.29,-20.27,2.52,-42.08,0.997192,0.024079,-0.069124,0.013611,0.0,0.0,0.0,0,0
2026-06-16 15:57:50.196,1483380,R_Ankle,0.0121,-0.0181,1.0172,0.76,-1.72,-0.48,-13.78,31.28,-26.04,0.101993,0.085849,0.029359,0.990631,0.0,0.0,0.0,0,0
2026-06-16 15:57:50.197,1483511,L_Ankle,0.1119,0.0217,0.9866,5.39,-0.84,-10.29,0.0,0.0,0.0,0.997192,0.024049,-0.069155,0.013611,0.0,0.0,0.0,0,0
2026-06-16 15:57:50.198,1483337,R_Hip,0.0441,0.0054,0.9919,0.25,-1.56,1.78,-19.05,28.9,-31.97,0.943571,-0.00351,-0.041627,-0.32844,0.0,0.0,0.0,0,0
2026-06-16 15:57:50.200,1483531,L_Ankle,0.1153,0.0241,0.9942,5.39,-0.84,-10.29,-19.58,2.51,-42.41,0.997192,0.024018,-0.069185,0.013611,0.0,0.0,0.0,0,0
2026-06-16 15:57:50.201,1483357,R_Hip,0.0431,0.0049,1.0078,0.28,-1.58,1.78,0.0,0.0,0.0,0.943571,-0.00351,-0.041597,-0.32841,0.0,0.0,0.0,0,0
2026-06-16 15:57:50.203,1483481,L_Hip,0.0773,-0.0857,0.9653,-3.61,4.22,7.36,-1.35,30.75,-26.98,0.996216,-0.026826,-0.070223,0.043123,0.0,0.0,0.0,0,0
2026-06-16 15:57:50.204,1483377,R_Hip,0.0491,0.0123,0.9871,0.28,-1.57,1.78,-19.42,30.0,-32.66,0.943602,-0.00351,-0.041597,-0.32841,0.0,0.0,0.0,0,0
2026-06-16 15:57:50.206,1483501,L_Hip,0.1646,-0.0867,1.0016,-3.61,4.22,7.89,0.82,29.66,-27.74,0.996155,-0.026734,-0.070345,0.044221,0.0,0.0,0.0,0,0
2026-06-16 15:57:50.206,1483397,R_Hip,0.0441,0.0064,0.9837,0.27,-1.56,1.78,-18.5,26.52,-31.45,0.943571,-0.00351,-0.041597,-0.32841,0.0,0.0,0.0,0,0
2026-06-16 15:57:50.208,1483482,L_Hip,0.0994,-0.0926,0.9691,-3.52,4.16,8.05,1.67,30.16,-27.61,0.996094,-0.026704,-0.070528,0.045259,0.0,0.0,0.0,0,0
2026-06-16 15:57:50.209,1483502,L_Hip,0.1077,-0.1211,0.9783,-3.58,4.17,8.27,0.0,0.0,0.0,0.996063,-0.026704,-0.07062,0.046175,0.0,0.0,0.0,0,0
2026-06-16 15:57:50.211,1483487,L_Shank,-0.8083,0.6209,0.0107,2.14,-1.17,-0.93,12.32,-44.01,-14.6,0.567766,0.679159,0.111301,-0.451582,0.0,0.0,0.0,0,0
2026-06-16 15:57:50.214,1483507,L_Shank,-0.8196,0.6111,0.0016,2.06,-1.22,-0.83,13.55,-43.16,-15.08,0.567156,0.678976,0.112491,-0.452345,0.0,0.0,0.0,0,0
2026-06-16 15:57:50.216,1483361,R_Shank,0.034,2.4984,1.0071,-0.08,-1.48,-8.41,-12.23,26.2,-21.58,0.903775,0.03592,-0.01767,0.426069,0.0,0.0,0.0,0,0
2026-06-16 15:57:50.216,1483527,L_Shank,-0.802,0.6135,-0.0002,1.98,-1.35,-0.73,0.0,0.0,0.0,0.566759,0.678671,0.113926,-0.452956,0.0,0.0,0.0,0,0
2026-06-16 15:57:50.218,1483381,R_Shank,0.0404,0.8276,0.996,-0.08,-1.46,-8.42,0.0,0.0,0.0,0.903775,0.03592,-0.01767,0.426099,0.0,0.0,0.0,0,0
2026-06-16 15:57:50.219,1483547,L_Shank,-0.7863,0.6189,0.0098,2.03,-1.2,-0.57,14.09,-42.96,-16.8,0.566424,0.678365,0.115452,-0.453413,0.0,0.0,0.0,0,0
2026-06-16 15:57:50.222,1483401,R_Shank,0.0384,0.698,1.0061,-0.08,-1.46,-8.42,-11.71,26.34,-22.94,0.903775,0.03592,-0.017701,0.426099,0.0,0.0,0.0,0,0
2026-06-16 15:57:50.223,1483494,L_Ankle,0.1104,0.0236,0.9914,5.39,-0.84,-10.29,-19.58,2.15,-43.09,0.997192,0.023988,-0.069185,0.013642,0.0,0.0,0.0,0,0
2026-06-16 15:57:50.225,1483421,R_Shank,0.0453,-1.8728,1.0287,-0.09,-1.46,-8.42,-13.23,25.88,-21.87,0.903775,0.03592,-0.017701,0.426099,0.0,0.0,0.0,0,0
2026-06-16 15:57:50.226,1483514,L_Ankle,0.1158,0.0129,0.9938,5.38,-0.85,-10.3,-19.2,2.51,-41.04,0.997192,0.023957,-0.069185,0.013642,0.0,0.0,0.0,0,0
2026-06-16 15:57:50.227,1483365,R_Ankle,0.0214,-0.0161,1.0034,0.76,-1.73,-0.48,-12.58,32.4,-26.19,0.101993,0.085818,0.029359,0.990631,0.0,0.0,0.0,0,0
2026-06-16 15:57:50.228,1483534,L_Ankle,0.1286,0.0168,0.9803,5.4,-0.83,-10.29,0.0,0.0,0.0,0.997192,0.023927,-0.069185,0.013642,0.0,0.0,0.0,0,0
2026-06-16 15:57:50.231,1483385,R_Ankle,0.016,-0.0106,1.0038,0.76,-1.74,-0.48,-13.41,33.18,-25.44,0.101962,0.085818,0.029328,0.990631,0.0,0.0,0.0,0,0
2026-06-16 15:57:50.231,1483554,L_Ankle,0.1114,0.0251,0.988,5.38,-0.85,-10.28,-18.89,2.49,-43.42,0.997192,0.023927,-0.069185,0.013672,0.0,0.0,0.0,0,0
2026-06-16 15:57:50.233,1483405,R_Ankle,0.0155,-0.0042,1.0163,0.77,-1.73,-0.48,0.0,0.0,0.0,0.101962,0.085849,0.029328,0.990631,0.0,0.0,0.0,0,0
2026-06-16 15:57:50.234,1483511,L_Shank,-0.7795,0.6219,0.0107,2.46,-0.92,-0.51,13.54,-44.52,-14.44,0.566088,0.677999,0.116886,-0.454054,0.0,0.0,0.0,0,0
2026-06-16 15:57:50.236,1483425,R_Ankle,0.0175,-0.0121,1.0072,0.76,-1.71,-0.5,-13.92,33.02,-25.29,0.101962,0.085849,0.029328,0.990631,0.0,0.0,0.0,0,0
2026-06-16 15:57:50.236,1483531,L_Shank,-0.7658,0.6214,0.0395,2.75,-1.16,-0.65,12.33,-43.66,-15.22,0.565813,0.677389,0.118076,-0.45497,0.0,0.0,0.0,0,0
2026-06-16 15:57:50.238,1483551,L_Shank,-0.7756,0.6414,0.0414,2.88,-1.0,-0.38,0.0,0.0,0.0,0.565477,0.67687,0.119114,-0.455885,0.0,0.0,0.0,0,0
2026-06-16 15:57:50.240,1483571,L_Shank,-0.7673,0.5861,-0.0161,3.38,-1.58,-0.96,13.54,-44.19,-13.83,0.56502,0.676473,0.120304,-0.45674,0.0,0.0,0.0,0,0
2026-06-16 15:57:50.242,1483387,R_Hip,0.057,0.0162,0.9929,0.27,-1.57,1.78,-20.33,29.45,-33.51,0.943571,-0.00351,-0.041597,-0.32844,0.0,0.0,0.0,0,0
2026-06-16 15:57:50.244,1483407,R_Hip,0.0412,0.024,0.9914,0.26,-1.58,1.77,0.0,0.0,0.0,0.943571,-0.00351,-0.041627,-0.32844,0.0,0.0,0.0,0,0
2026-06-16 15:57:50.246,1483526,L_Hip,0.1357,-0.0676,1.0108,-3.51,4.17,7.91,1.53,30.97,-28.34,0.996002,-0.026612,-0.070772,0.046937,0.0,0.0,0.0,0,0
2026-06-16 15:57:50.246,1483427,R_Hip,0.0466,0.0132,0.9905,0.29,-1.58,1.77,-19.05,28.54,-32.65,0.943571,-0.00351,-0.041627,-0.32844,0.0,0.0,0.0,0,0
2026-06-16 15:57:50.248,1483546,L_Hip,0.1622,-0.0376,1.0587,-3.66,4.22,7.7,1.47,29.35,-26.3,0.995972,-0.026429,-0.070681,0.047975,0.0,0.0,0.0,0,0
2026-06-16 15:57:50.249,1483447,R_Hip,0.0481,0.0089,0.99,0.27,-1.58,1.79,-19.05,28.54,-31.97,0.943571,-0.003449,-0.041658,-0.32844,0.0,0.0,0.0,0,0
2026-06-16 15:57:50.250,1483566,L_Hip,0.1602,-0.0744,0.9933,-3.67,4.24,7.12,-0.18,29.64,-27.72,0.995911,-0.026551,-0.07065,0.049104,0.0,0.0,0.0,0,0
2026-06-16 15:57:50.252,1483586,L_Hip,0.1911,-0.0631,0.9808,-3.69,4.29,5.88,0.0,0.0,0.0,0.99588,-0.02649,-0.070559,0.050295,0.0,0.0,0.0,0,0
2026-06-16 15:57:50.257,1483536,L_Shank,-0.7497,0.6576,-0.0583,3.58,-3.07,-0.6,12.68,-44.35,-14.91,0.56444,0.676077,0.121281,-0.457778,0.0,0.0,0.0,0,0
2026-06-16 15:57:50.259,1483556,L_Shank,-0.7971,0.5656,-0.1024,1.87,-2.5,-0.42,13.88,-43.18,-13.53,0.563952,0.67571,0.121952,-0.458724,0.0,0.0,0.0,0,0
2026-06-16 15:57:50.260,1483576,L_Shank,-0.9755,0.5675,-0.0276,2.04,-0.67,0.09,0.0,0.0,0.0,0.563402,0.675436,0.12299,-0.459548,0.0,0.0,0.0,0,0
2026-06-16 15:57:50.262,1483596,L_Shank,-0.9486,0.5754,0.0054,2.62,-0.61,-0.11,12.84,-43.86,-13.51,0.562792,0.675283,0.123997,-0.46025,0.0,0.0,0.0,0,0
2026-06-16 15:57:50.264,1483539,L_Ankle,0.1178,0.0256,0.9808,5.39,-0.84,-10.29,-21.16,2.0,-43.63,0.997192,0.023896,-0.069216,0.013672,0.0,0.0,0.0,0,0
2026-06-16 15:57:50.265,1483410,R_Ankle,0.0116,-0.0052,0.9899,0.77,-1.73,-0.48,-11.87,33.67,-25.28,0.101962,0.085849,0.029328,0.990631,0.0,0.0,0.0,0,0
2026-06-16 15:57:50.267,1483559,L_Ankle,0.1178,0.01,0.9818,5.41,-0.86,-10.29,-19.58,3.22,-42.07,0.997192,0.023896,-0.069185,0.013672,0.0,0.0,0.0,0,0
2026-06-16 15:57:50.269,1483430,R_Ankle,0.0194,-0.0141,0.9962,0.77,-1.73,-0.5,-13.91,33.97,-24.99,0.101962,0.085879,0.029328,0.990631,0.0,0.0,0.0,0,0
2026-06-16 15:57:50.270,1483579,L_Ankle,0.1085,0.0222,0.9846,5.4,-0.83,-10.29,-20.28,1.81,-43.11,0.997192,0.023896,-0.069216,0.013703,0.0,0.0,0.0,0,0
2026-06-16 15:57:50.271,1483450,R_Ankle,0.0062,-0.0057,1.0029,0.77,-1.73,-0.5,0.0,0.0,0.0,0.101962,0.085879,0.029328,0.990631,0.0,0.0,0.0,0,0
2026-06-16 15:57:50.272,1483599,L_Ankle,0.1153,0.0227,1.0019,5.41,-0.85,-10.29,-19.94,3.22,-42.75,0.997192,0.023896,-0.069216,0.013703,0.0,0.0,0.0,0,0
2026-06-16 15:57:50.274,1483470,R_Ankle,0.0106,-0.0106,0.9986,0.75,-1.72,-0.49,-13.94,33.35,-26.83,0.101962,0.085879,0.029359,0.990631,0.0,0.0,0.0,0,0
2026-06-16 15:57:50.276,1483549,L_Hip,0.118,-0.0548,0.9856,-4.02,4.41,4.16,0.67,29.82,-28.46,0.995788,-0.026307,-0.070467,0.051973,0.0,0.0,0.0,0,0
2026-06-16 15:57:50.278,1483569,L_Hip,0.1828,-0.0857,1.0064,-3.96,4.4,3.77,1.5,29.67,-28.04,0.995666,-0.026154,-0.070467,0.054384,0.0,0.0,0.0,0,0
2026-06-16 15:57:50.280,1483589,L_Hip,0.1342,-0.0764,0.9885,-4.09,4.48,3.54,0.34,30.78,-27.88,0.995514,-0.025849,-0.070467,0.057375,0.0,0.0,0.0,0,0
2026-06-16 15:57:50.283,1483427,R_Shank,0.0419,-0.0724,1.0234,-0.08,-1.48,-8.43,-14.25,26.56,-22.16,0.903775,0.03592,-0.017701,0.426099,0.0,0.0,0.0,0,0
2026-06-16 15:57:50.283,1483609,L_Hip,0.1269,-0.0622,0.9861,-4.13,4.5,3.19,1.65,29.19,-27.31,0.9953,-0.025697,-0.070559,0.060732,0.0,0.0,0.0,0,0
2026-06-16 15:57:50.285,1483447,R_Shank,0.0394,-1.7432,0.998,-0.08,-1.47,-8.41,0.0,0.0,0.0,0.903775,0.03592,-0.017701,0.426099,0.0,0.0,0.0,0,0
2026-06-16 15:57:50.286,1483561,L_Shank,-0.7678,0.5685,-0.0449,1.33,-2.32,0.41,12.66,-44.36,-13.66,0.562243,0.67513,0.124699,-0.460921,0.0,0.0,0.0,0,0
2026-06-16 15:57:50.288,1483581,L_Shank,-0.7619,0.5666,-0.0276,1.21,-2.22,0.41,12.85,-42.82,-14.77,0.561846,0.675008,0.125065,-0.461562,0.0,0.0,0.0,0,0
2026-06-16 15:57:50.289,1483467,R_Shank,0.038,2.2392,1.0071,-0.08,-1.47,-8.43,-13.4,26.38,-22.62,0.903775,0.03592,-0.017701,0.426099,0.0,0.0,0.0,0,0
2026-06-16 15:57:50.292,1483562,L_Shank,-0.7619,0.5852,-0.0209,1.13,-2.14,0.39,14.24,-44.18,-14.46,0.561419,0.674978,0.125309,-0.461989,0.0,0.0,0.0,0,0
2026-06-16 15:57:50.292,1483487,R_Shank,0.0389,0.698,1.0037,-0.09,-1.46,-8.42,-11.54,26.18,-22.79,0.903775,0.03592,-0.017701,0.426099,0.0,0.0,0.0,0,0
2026-06-16 15:57:50.295,1483582,L_Shank,-0.7512,0.5734,-0.0405,0.8,-2.04,0.02,0.0,0.0,0.0,0.561052,0.675008,0.125523,-0.462355,0.0,0.0,0.0,0,0
2026-06-16 15:57:50.296,1483432,R_Ankle,0.015,-0.0096,1.0091,0.77,-1.71,-0.49,-15.27,33.95,-24.7,0.101962,0.085849,0.029359,0.990631,0.0,0.0,0.0,0,0
2026-06-16 15:57:50.299,1483452,R_Ankle,0.0116,-0.0052,1.0077,0.77,-1.71,-0.5,-14.28,31.75,-25.59,0.101962,0.085849,0.029328,0.990631,0.0,0.0,0.0,0,0
2026-06-16 15:57:50.301,1483472,R_Ankle,0.0121,-0.0195,1.0115,0.77,-1.74,-0.5,0.0,0.0,0.0,0.101962,0.085849,0.029359,0.990631,0.0,0.0,0.0,0,0
2026-06-16 15:57:50.304,1483492,R_Ankle,0.0101,-0.0081,0.9947,0.77,-1.72,-0.48,-13.58,33.66,-25.6,0.101962,0.085818,0.029328,0.990631,0.0,0.0,0.0,0,0
2026-06-16 15:57:50.307,1483584,L_Ankle,0.1188,0.0207,0.9774,5.41,-0.84,-10.3,-20.82,2.35,-43.62,0.997192,0.023865,-0.069246,0.013703,0.0,0.0,0.0,0,0
2026-06-16 15:57:50.308,1483450,R_Shank,0.034,-0.9728,1.009,-0.08,-1.47,-8.44,-12.07,27.02,-21.72,0.903775,0.03592,-0.017701,0.426099,0.0,0.0,0.0,0,0
2026-06-16 15:57:50.310,1483604,L_Ankle,0.1119,0.0188,0.9918,5.41,-0.85,-10.29,0.0,0.0,0.0,0.997192,0.023865,-0.069246,0.013703,0.0,0.0,0.0,0,0
2026-06-16 15:57:50.312,1483470,R_Shank,0.0296,-2.3844,1.0013,-0.09,-1.47,-8.42,-12.22,25.86,-21.88,0.903775,0.03592,-0.017701,0.426099,0.0,0.0,0.0,0,0
2026-06-16 15:57:50.313,1483624,L_Ankle,0.1163,0.0236,0.9866,5.38,-0.84,-10.29,-19.79,3.75,-43.26,0.997192,0.023835,-0.069246,0.013733,0.0,0.0,0.0,0,0
2026-06-16 15:57:50.315,1483490,R_Shank,0.0389,0.698,0.9994,-0.09,-1.47,-8.43,-12.91,25.89,-20.67,0.903775,0.03589,-0.017701,0.426099,0.0,0.0,0.0,0,0
2026-06-16 15:57:50.317,1483644,L_Ankle,0.1178,0.0222,0.9803,5.38,-0.87,-10.29,0.0,0.0,0.0,0.997192,0.023835,-0.069246,0.013733,0.0,0.0,0.0,0,0
2026-06-16 15:57:50.320,1483594,L_Hip,0.119,-0.0843,0.9745,-4.09,4.48,2.97,0.32,29.81,-27.88,0.995087,-0.025513,-0.07065,0.064302,0.0,0.0,0.0,0,0
2026-06-16 15:57:50.320,1483510,R_Shank,0.035,3.01,1.0056,-0.09,-1.48,-8.42,0.0,0.0,0.0,0.903775,0.03589,-0.017701,0.426099,0.0,0.0,0.0,0,0
2026-06-16 15:57:50.323,1483614,L_Hip,0.121,-0.0715,0.9856,-4.12,4.49,3.0,0.0,0.0,0.0,0.994842,-0.025391,-0.070711,0.068056,0.0,0.0,0.0,0,0
2026-06-16 15:57:50.323,1483463,R_Hip,0.0417,0.0064,0.989,0.28,-1.58,1.79,-19.42,28.54,-32.65,0.943571,-0.003449,-0.041627,-0.32841,0.0,0.0,0.0,0,0
2026-06-16 15:57:50.326,1483634,L_Hip,0.1185,-0.071,0.9754,-4.13,4.51,3.01,1.0,30.15,-27.89,0.994568,-0.025239,-0.070986,0.071596,0.0,0.0,0.0,0,0
2026-06-16 15:57:50.327,1483483,R_Hip,0.0427,0.0006,0.9919,0.25,-1.58,1.78,0.0,0.0,0.0,0.943571,-0.003449,-0.041627,-0.32844,0.0,0.0,0.0,0,0
2026-06-16 15:57:50.330,1483654,L_Hip,0.1185,-0.0769,0.9841,-4.16,4.52,3.0,3.72,30.2,-28.8,0.994324,-0.024995,-0.071169,0.074831,0.0,0.0,0.0,0,0
2026-06-16 15:57:50.331,1483503,R_Hip,0.0417,0.0015,0.9818,0.25,-1.56,1.78,-18.32,28.54,-32.99,0.943571,-0.003449,-0.041627,-0.32841,0.0,0.0,0.0,0,0
2026-06-16 15:57:50.334,1483611,L_Shank,-0.7487,0.5739,-0.0021,0.36,-1.92,-0.38,12.5,-43.84,-14.44,0.560839,0.674947,0.125645,-0.462691,0.0,0.0,0.0,0,0
2026-06-16 15:57:50.335,1483523,R_Hip,0.0441,0.0103,0.9991,0.27,-1.58,1.77,-19.05,27.8,-31.96,0.943571,-0.003479,-0.041627,-0.32841,0.0,0.0,0.0,0,0
2026-06-16 15:57:50.338,1483631,L_Shank,-0.7731,0.6033,-0.0031,0.4,-1.68,-0.6,12.5,-43.16,-15.08,0.560625,0.675039,0.125736,-0.462783,0.0,0.0,0.0,0,0
2026-06-16 15:57:50.341,1483472,R_Shank,0.0404,-0.8432,1.0119,-0.09,-1.46,-8.42,-12.73,26.7,-22.62,0.903775,0.03589,-0.017701,0.426099,0.0,0.0,0.0,0,0
2026-06-16 15:57:50.343,1483651,L_Shank,-0.7595,0.6042,-0.0108,0.32,-1.73,-0.7,0.0,0.0,0.0,0.56032,0.675253,0.125919,-0.462783,0.0,0.0,0.0,0,0
2026-06-16 15:57:50.345,1483492,R_Shank,0.0414,-2.0024,1.0032,-0.09,-1.46,-8.43,-12.6,27.21,-20.36,0.903775,0.03589,-0.017701,0.426099,0.0,0.0,0.0,0,0
2026-06-16 15:57:50.349,1483671,L_Shank,-0.7688,0.637,-0.0209,0.09,-1.71,-0.86,12.5,-43.5,-15.07,0.559862,0.675527,0.125828,-0.462966,0.0,0.0,0.0,0,0
2026-06-16 15:57:50.350,1483512,R_Shank,0.0375,-1.6136,1.0061,-0.09,-1.46,-8.42,0.0,0.0,0.0,0.903775,0.03589,-0.017701,0.426099,0.0,0.0,0.0,0,0
2026-06-16 15:57:50.355,1483532,R_Shank,0.0453,1.4688,1.0056,-0.09,-1.47,-8.41,-13.23,25.23,-20.67,0.903775,0.03589,-0.017731,0.426099,0.0,0.0,0.0,0,0
2026-06-16 15:57:50.356,1483628,L_Ankle,0.1212,0.0212,0.9798,5.41,-0.84,-10.29,-20.97,1.82,-42.78,0.997192,0.023804,-0.069277,0.013733,0.0,0.0,0.0,0,0
2026-06-16 15:57:50.359,1483477,R_Ankle,0.0194,-0.0151,1.001,0.77,-1.74,-0.49,-12.57,33.68,-26.21,0.101962,0.085818,0.029359,0.990631,0.0,0.0,0.0,0,0
2026-06-16 15:57:50.360,1483648,L_Ankle,0.1114,0.0227,0.975,5.41,-0.85,-10.29,-18.67,0.9,-42.23,0.997192,0.023804,-0.069246,0.013733,0.0,0.0,0.0,0,0
2026-06-16 15:57:50.362,1483497,R_Ankle,0.0096,-0.021,1.0105,0.76,-1.72,-0.49,-13.76,32.87,-26.06,0.101962,0.085818,0.029359,0.990631,0.0,0.0,0.0,0,0
2026-06-16 15:57:50.363,1483668,L_Ankle,0.1192,0.0256,0.9813,5.39,-0.84,-10.29,-19.41,2.32,-43.26,0.997192,0.023774,-0.069246,0.013733,0.0,0.0,0.0,0,0
2026-06-16 15:57:50.365,1483517,R_Ankle,0.0175,-0.0121,1.0062,0.75,-1.72,-0.5,0.0,0.0,0.0,0.101962,0.085818,0.029328,0.990631,0.0,0.0,0.0,0,0
2026-06-16 15:57:50.366,1483688,L_Ankle,0.1109,0.0227,0.9942,5.39,-0.85,-10.28,-19.22,2.86,-41.72,0.997192,0.023743,-0.069277,0.013764,0.0,0.0,0.0,0,0
2026-06-16 15:57:50.368,1483537,R_Ankle,0.0111,-0.0106,1.0048,0.76,-1.74,-0.5,-12.89,33.33,-24.36,0.101962,0.085818,0.029328,0.990631,0.0,0.0,0.0,0,0
2026-06-16 15:57:50.369,1483639,L_Hip,0.1161,-0.0789,0.987,-4.18,4.52,2.97,1.84,29.68,-27.76,0.99411,-0.024781,-0.071352,0.077548,0.0,0.0,0.0,0,0
2026-06-16 15:57:50.371,1483487,R_Hip,0.0382,0.0006,0.9972,0.27,-1.58,1.77,-20.15,28.54,-32.65,0.943571,-0.003449,-0.041627,-0.32841,0.0,0.0,0.0,0,0
2026-06-16 15:57:50.372,1483659,L_Hip,0.122,-0.0641,0.987,-4.2,4.53,2.98,0.0,0.0,0.0,0.993957,-0.024537,-0.071627,0.079287,0.0,0.0,0.0,0,0
2026-06-16 15:57:50.374,1483507,R_Hip,0.0456,0.0049,0.9972,0.27,-1.58,1.77,0.0,0.0,0.0,0.943602,-0.003479,-0.041597,-0.32841,0.0,0.0,0.0,0,0
2026-06-16 15:57:50.375,1483679,L_Hip,0.1117,-0.0813,0.9808,-4.18,4.51,2.97,1.01,29.83,-28.47,0.993866,-0.024537,-0.07178,0.080233,0.0,0.0,0.0,0,0
2026-06-16 15:57:50.378,1483699,L_Hip,0.1058,-0.0862,0.9672,-4.22,4.55,2.77,0.99,30.47,-26.73,0.993805,-0.024415,-0.071932,0.080752,0.0,0.0,0.0,0,0
2026-06-16 15:57:50.378,1483527,R_Hip,0.0496,0.0049,1.001,0.26,-1.57,1.78,-18.5,27.98,-30.77,0.943602,-0.003479,-0.041566,-0.32841,0.0,0.0,0.0,0,0
2026-06-16 15:57:50.381,1483651,L_Ankle,0.1119,0.0212,0.9794,5.4,-0.85,-10.29,-19.56,1.09,-42.76,0.997192,0.023713,-0.069277,0.013764,0.0,0.0,0.0,0,0
2026-06-16 15:57:50.382,1483547,R_Hip,0.051,0.0015,0.9924,0.25,-1.58,1.78,-19.96,29.08,-31.11,0.943602,-0.003479,-0.041566,-0.32841,0.0,0.0,0.0,0,0
2026-06-16 15:57:50.385,1483671,L_Ankle,0.1173,0.0246,0.9837,5.4,-0.84,-10.29,0.0,0.0,0.0,0.997192,0.023682,-0.069277,0.013794,0.0,0.0,0.0,0,0
2026-06-16 15:57:50.386,1483495,R_Shank,0.0419,-2.3844,1.0023,-0.09,-1.48,-8.42,-11.89,26.19,-21.58,0.903745,0.035859,-0.017731,0.42613,0.0,0.0,0.0,0,0
2026-06-16 15:57:50.387,1483652,L_Ankle,0.1202,0.0202,0.9918,5.38,-0.87,-10.29,-20.06,0.57,-41.58,0.997192,0.023652,-0.069308,0.013794,0.0,0.0,0.0,0,0
2026-06-16 15:57:50.390,1483515,R_Shank,0.0409,-2.0024,1.0028,-0.09,-1.47,-8.44,-11.39,26.02,-21.44,0.903745,0.035859,-0.017762,0.42613,0.0,0.0,0.0,0,0
2026-06-16 15:57:50.390,1483672,L_Ankle,0.1202,0.0153,0.9784,5.39,-0.86,-10.29,-19.2,1.09,-42.07,0.997192,0.023652,-0.069308,0.013794,0.0,0.0,0.0,0,0
2026-06-16 15:57:50.392,1483535,R_Shank,0.0429,0.3096,1.0076,-0.08,-1.46,-8.41,0.0,0.0,0.0,0.903745,0.03589,-0.017731,0.42613,0.0,0.0,0.0,0,0
2026-06-16 15:57:50.394,1483555,R_Shank,0.0321,0.8276,1.0109,-0.09,-1.45,-8.42,-13.21,25.87,-23.68,0.903745,0.03589,-0.017731,0.42613,0.0,0.0,0.0,0,0
2026-06-16 15:57:50.397,1483512,R_Hip,0.0461,0.0035,0.9847,0.27,-1.58,1.77,-18.32,27.8,-32.31,0.943602,-0.00351,-0.041566,-0.32841,0.0,0.0,0.0,0,0
2026-06-16 15:57:50.399,1483532,R_Hip,0.0466,0.0064,0.9943,0.27,-1.58,1.79,0.0,0.0,0.0,0.943602,-0.00351,-0.041566,-0.32841,0.0,0.0,0.0,0,0
2026-06-16 15:57:50.401,1483552,R_Hip,0.0407,0.0001,0.9885,0.26,-1.56,1.77,-19.23,28.72,-32.48,0.943602,-0.00351,-0.041566,-0.32841,0.0,0.0,0.0,0,0
2026-06-16 15:57:50.403,1483572,R_Hip,0.0417,0.0079,1.0035,0.27,-1.58,1.77,-18.69,26.71,-31.96,0.943602,-0.00351,-0.041536,-0.32841,0.0,0.0,0.0,0,0
2026-06-16 15:57:50.405,1483684,L_Hip,0.1023,-0.0833,0.9841,-4.21,4.54,2.43,0.01,30.46,-28.75,0.993774,-0.024354,-0.072054,0.081057,0.0,0.0,0.0,0,0
2026-06-16 15:57:50.407,1483517,R_Shank,0.0335,3.2692,1.0076,-0.09,-1.46,-8.43,-12.25,27.85,-22.17,0.903745,0.035859,-0.017731,0.42613,0.0,0.0,0.0,0,0
2026-06-16 15:57:50.408,1483704,L_Hip,0.092,-0.0828,0.9866,-4.21,4.56,2.39,0.0,0.0,0.0,0.993774,-0.024323,-0.072085,0.08121,0.0,0.0,0.0,0,0
2026-06-16 15:57:50.411,1483537,R_Shank,0.0492,-0.0724,1.0066,-0.09,-1.46,-8.42,-12.92,27.2,-21.86,0.903745,0.035859,-0.017731,0.42613,0.0,0.0,0.0,0,0
2026-06-16 15:57:50.411,1483724,L_Hip,0.0994,-0.0823,0.9812,-4.19,4.55,2.51,1.35,30.16,-28.19,0.993774,-0.024415,-0.072115,0.081271,0.0,0.0,0.0,0,0
2026-06-16 15:57:50.414,1483557,R_Shank,0.0335,-1.8728,1.0104,-0.09,-1.46,-8.43,0.0,0.0,0.0,0.903745,0.035859,-0.017762,0.42613,0.0,0.0,0.0,0,0
2026-06-16 15:57:50.415,1483744,L_Hip,0.0999,-0.0759,0.988,-4.14,4.53,2.84,2.15,28.72,-27.76,0.993774,-0.024354,-0.072115,0.081271,0.0,0.0,0.0,0,0
2026-06-16 15:57:50.417,1483577,R_Shank,0.0458,-2.3844,1.0032,-0.09,-1.48,-8.41,-12.6,28.19,-21.86,0.903745,0.035859,-0.017762,0.42613,0.0,0.0,0.0,0,0
2026-06-16 15:57:50.418,1483687,L_Shank,-0.7907,0.6062,0.0117,-0.08,-1.22,-1.21,13.2,-43.5,-14.77,0.559343,0.675924,0.125523,-0.463118,0.0,0.0,0.0,0,0
2026-06-16 15:57:50.420,1483522,R_Ankle,0.0091,0.0012,0.9952,0.76,-1.73,-0.5,-13.91,33.96,-24.68,0.101962,0.085849,0.029328,0.990631,0.0,0.0,0.0,0,0
2026-06-16 15:57:50.422,1483707,L_Shank,-0.8455,0.6356,0.0587,0.06,-1.41,-1.06,13.03,-42.65,-14.93,0.558458,0.67626,0.124973,-0.46379,0.0,0.0,0.0,0,0
2026-06-16 15:57:50.423,1483542,R_Ankle,0.0199,-0.0116,0.9986,0.77,-1.73,-0.5,-13.76,33.19,-26.06,0.101962,0.085818,0.029298,0.990631,0.0,0.0,0.0,0,0
2026-06-16 15:57:50.425,1483727,L_Shank,-0.8396,0.6507,0.0664,0.32,-1.67,-0.84,14.08,-43.32,-15.55,0.55739,0.676595,0.123936,-0.464888,0.0,0.0,0.0,0,0
2026-06-16 15:57:50.427,1483562,R_Ankle,0.0086,-0.0136,1.0096,0.77,-1.73,-0.48,0.0,0.0,0.0,0.101993,0.085849,0.029328,0.990631,0.0,0.0,0.0,0,0
2026-06-16 15:57:50.430,1483747,L_Shank,-0.8303,0.6571,0.0645,0.9,-1.98,-0.33,0.0,0.0,0.0,0.555528,0.677023,0.124638,-0.466323,0.0,0.0,0.0,0,0
2026-06-16 15:57:50.431,1483582,R_Ankle,0.013,-0.0072,0.9938,0.77,-1.73,-0.48,-13.93,33.66,-26.22,0.101962,0.085849,0.029328,0.990631,0.0,0.0,0.0,0,0
2026-06-16 15:57:50.433,1483696,L_Ankle,0.1129,0.031,0.9957,5.38,-0.85,-10.29,-18.7,1.96,-42.91,0.997192,0.023652,-0.069277,0.013794,0.0,0.0,0.0,0,0
2026-06-16 15:57:50.435,1483537,R_Hip,0.0412,0.0064,1.0078,0.26,-1.58,1.79,-19.78,27.44,-31.96,0.943602,-0.00351,-0.041505,-0.32841,0.0,0.0,0.0,0,0
2026-06-16 15:57:50.437,1483716,L_Ankle,0.1178,0.0173,0.9952,5.4,-0.85,-10.28,0.0,0.0,0.0,0.997192,0.023652,-0.069308,0.013825,0.0,0.0,0.0,0,0
2026-06-16 15:57:50.439,1483557,R_Hip,0.0486,0.0093,0.9856,0.25,-1.59,1.79,0.0,0.0,0.0,0.943602,-0.00351,-0.041505,-0.32841,0.0,0.0,0.0,0,0
2026-06-16 15:57:50.441,1483697,L_Ankle,0.1148,0.0173,1.0029,5.4,-0.85,-10.28,-20.64,2.52,-43.45,0.997192,0.023621,-0.069308,0.013825,0.0,0.0,0.0,0,0
2026-06-16 15:57:50.442,1483577,R_Hip,0.0431,0.0103,0.9832,0.28,-1.57,1.77,-19.96,27.26,-33.16,0.943602,-0.00351,-0.041505,-0.32841,0.0,0.0,0.0,0,0
2026-06-16 15:57:50.445,1483717,L_Ankle,0.1089,0.0207,0.9736,5.4,-0.85,-10.29,-19.93,1.45,-43.78,0.997192,0.023621,-0.069338,0.013825,0.0,0.0,0.0,0,0
2026-06-16 15:57:50.445,1483597,R_Hip,0.0471,0.001,0.9881,0.27,-1.58,1.79,-17.41,29.08,-32.82,0.943602,-0.00351,-0.041505,-0.32841,0.0,0.0,0.0,0,0
2026-06-16 15:57:50.448,1483706,L_Hip,0.1102,-0.0661,0.99,-4.11,4.5,3.29,1.01,29.83,-28.76,0.993774,-0.024323,-0.072115,0.081301,0.0,0.0,0.0,0,0
2026-06-16 15:57:50.449,1483567,R_Ankle,0.0145,-0.0126,1.0101,0.77,-1.71,-0.48,-15.12,33.81,-26.08,0.101962,0.085849,0.029328,0.990631,0.0,0.0,0.0,0,0
2026-06-16 15:57:50.451,1483726,L_Hip,0.1274,-0.0646,0.9657,-4.1,4.5,3.31,0.0,0.0,0.0,0.993774,-0.024323,-0.072115,0.081301,0.0,0.0,0.0,0,0
2026-06-16 15:57:50.452,1483587,R_Ankle,0.0057,-0.0141,0.9938,0.76,-1.72,-0.5,-13.59,33.35,-25.91,0.101962,0.085879,0.029359,0.990631,0.0,0.0,0.0,0,0
2026-06-16 15:57:50.453,1483746,L_Hip,0.1342,-0.0666,0.9962,-4.09,4.48,3.27,2.0,30.16,-27.03,0.993774,-0.024354,-0.072085,0.081301,0.0,0.0,0.0,0,0
2026-06-16 15:57:50.455,1483607,R_Ankle,0.014,-0.0072,0.9895,0.76,-1.73,-0.48,-13.41,32.54,-24.51,0.101962,0.085849,0.029359,0.990631,0.0,0.0,0.0,0,0
2026-06-16 15:57:50.458,1483707,L_Hip,0.1298,-0.0739,0.9759,-4.12,4.48,3.16,0.13,29.32,-27.15,0.993774,-0.024354,-0.072085,0.081301,0.0,0.0,0.0,0,0
2026-06-16 15:57:50.459,1483627,R_Ankle,0.0145,-0.0126,1.0081,0.76,-1.72,-0.48,0.0,0.0,0.0,0.101962,0.085849,0.029328,0.990631,0.0,0.0,0.0,0,0
2026-06-16 15:57:50.462,1483711,L_Shank,-0.8127,0.6659,0.0529,1.73,-2.08,0.12,13.36,-44.7,-13.66,0.554949,0.677633,0.125034,-0.465987,0.0,0.0,0.0,0,0
2026-06-16 15:57:50.463,1483587,R_Hip,0.0525,0.0045,0.9803,0.27,-1.58,1.78,-20.14,28.9,-31.63,0.943602,-0.00351,-0.041505,-0.32841,0.0,0.0,0.0,0,0
2026-06-16 15:57:50.466,1483607,R_Hip,0.0387,0.0089,0.9986,0.25,-1.58,1.79,0.0,0.0,0.0,0.943602,-0.003479,-0.041475,-0.32841,0.0,0.0,0.0,0,0
2026-06-16 15:57:50.467,1483731,L_Shank,-0.779,0.6307,0.0026,1.87,-1.87,0.24,12.85,-42.14,-15.09,0.55446,0.677847,0.125065,-0.466262,0.0,0.0,0.0,0,0
2026-06-16 15:57:50.469,1483627,R_Hip,0.0402,0.0049,0.9938,0.25,-1.58,1.78,-19.96,28.71,-30.43,0.943602,-0.00351,-0.041505,-0.32841,0.0,0.0,0.0,0,0
2026-06-16 15:57:50.470,1483751,L_Shank,-0.7644,0.6135,-0.0098,1.8,-1.53,0.11,12.5,-43.5,-14.76,0.554765,0.677511,0.124363,-0.466597,0.0,0.0,0.0,0,0
2026-06-16 15:57:50.472,1483647,R_Hip,0.0456,0.0045,0.9784,0.27,-1.58,1.77,-19.42,28.54,-31.97,0.943602,-0.00351,-0.041505,-0.32841,0.0,0.0,0.0,0,0
2026-06-16 15:57:50.473,1483771,L_Shank,-0.7893,0.6116,-0.0151,1.56,-0.7,-0.33,14.08,-43.32,-15.24,0.555193,0.677084,0.123875,-0.466842,0.0,0.0,0.0,0,0
2026-06-16 15:57:50.475,1483608,R_Shank,0.0443,3.1396,1.0157,-0.09,-1.47,-8.43,-12.19,24.54,-22.19,0.903745,0.035859,-0.017762,0.42613,0.0,0.0,0.0,0,0
2026-06-16 15:57:50.476,1483736,L_Shank,-0.8132,0.6165,-0.0002,1.31,-0.72,-0.55,14.43,-42.98,-15.56,0.555742,0.676565,0.123539,-0.467025,0.0,0.0,0.0,0,0
2026-06-16 15:57:50.478,1483628,R_Shank,0.034,-3.1552,0.9931,-0.09,-1.45,-8.44,-10.89,26.51,-20.99,0.903745,0.035859,-0.017762,0.42613,0.0,0.0,0.0,0,0
2026-06-16 15:57:50.479,1483756,L_Shank,-0.8162,0.6101,0.0314,1.37,-0.98,-0.49,13.55,-43.49,-15.39,0.556352,0.675893,0.123478,-0.467238,0.0,0.0,0.0,0,0
2026-06-16 15:57:50.480,1483648,R_Shank,0.0365,3.1396,1.0047,-0.08,-1.45,-8.42,0.0,0.0,0.0,0.903745,0.035859,-0.017762,0.42613,0.0,0.0,0.0,0,0
2026-06-16 15:57:50.482,1483776,L_Shank,-0.8132,0.6243,0.0568,1.51,-1.35,-0.37,12.68,-44.34,-15.22,0.557054,0.6751,0.123661,-0.467544,0.0,0.0,0.0,0,0
2026-06-16 15:57:50.483,1483668,R_Shank,0.0443,2.2392,1.0138,-0.09,-1.47,-8.42,-14.26,26.57,-21.55,0.903745,0.035859,-0.017762,0.42613,0.0,0.0,0.0,0,0
2026-06-16 15:57:50.484,1483796,L_Shank,-0.7873,0.6404,0.063,2.02,-2.04,-0.13,13.04,-42.97,-16.17,0.557665,0.674337,0.124027,-0.467818,0.0,0.0,0.0,0,0
2026-06-16 15:57:50.486,1483630,R_Shank,0.0448,2.628,1.0133,-0.08,-1.46,-8.44,-12.73,26.37,-22.02,0.903745,0.035859,-0.017762,0.42613,0.0,0.0,0.0,0,0
2026-06-16 15:57:50.487,1483741,L_Ankle,0.1109,0.0197,0.9866,5.39,-0.86,-10.29,-18.87,1.79,-42.4,0.997192,0.023621,-0.069308,0.013825,0.0,0.0,0.0,0,0
2026-06-16 15:57:50.489,1483650,R_Shank,0.034,-0.8432,1.01,-0.09,-1.45,-8.42,-12.75,27.36,-22.32,0.903745,0.035859,-0.017792,0.42613,0.0,0.0,0.0,0,0
2026-06-16 15:57:50.489,1483761,L_Ankle,0.1114,0.0217,0.9933,5.4,-0.85,-10.3,0.0,0.0,0.0,0.997192,0.023591,-0.069338,0.013825,0.0,0.0,0.0,0,0
2026-06-16 15:57:50.491,1483670,R_Shank,0.0438,3.2692,1.0128,-0.08,-1.46,-8.42,0.0,0.0,0.0,0.903745,0.035829,-0.017792,0.42613,0.0,0.0,0.0,0,0
2026-06-16 15:57:50.492,1483781,L_Ankle,0.1138,0.0256,0.975,5.4,-0.83,-10.29,-19.05,2.68,-41.89,0.997192,0.023591,-0.069338,0.013825,0.0,0.0,0.0,0,0
2026-06-16 15:57:50.494,1483690,R_Shank,0.0384,-1.8728,1.0052,-0.09,-1.48,-8.41,-12.39,25.7,-21.73,0.903745,0.035829,-0.017792,0.42613,0.0,0.0,0.0,0,0
2026-06-16 15:57:50.495,1483801,L_Ankle,0.1188,0.0163,0.9894,5.41,-0.85,-10.3,-20.65,1.81,-44.13,0.997192,0.023591,-0.069338,0.013855,0.0,0.0,0.0,0,0
2026-06-16 15:57:50.496,1483636,R_Ankle,0.0165,-0.0086,1.0096,0.75,-1.72,-0.48,-14.61,33.02,-25.6,0.101962,0.085849,0.029328,0.990631,0.0,0.0,0.0,0,0
2026-06-16 15:57:50.497,1483751,L_Hip,0.1254,-0.0681,0.988,-4.18,4.52,2.77,1.88,30.97,-28.63,0.993774,-0.024384,-0.072085,0.081271,0.0,0.0,0.0,0,0
2026-06-16 15:57:50.499,1483771,L_Hip,0.1264,-0.0646,0.9827,-4.21,4.54,2.62,0.0,0.0,0.0,0.993774,-0.024445,-0.071993,0.081088,0.0,0.0,0.0,0,0
2026-06-16 15:57:50.499,1483656,R_Ankle,0.0145,-0.0067,1.0048,0.75,-1.73,-0.48,-14.1,32.54,-25.44,0.101932,0.085879,0.029298,0.990631,0.0,0.0,0.0,0,0
2026-06-16 15:57:50.501,1483676,R_Ankle,0.0081,-0.0111,1.0048,0.75,-1.73,-0.49,0.0,0.0,0.0,0.101932,0.085879,0.029298,0.990631,0.0,0.0,0.0,0,0
2026-06-16 15:57:50.503,1483791,L_Hip,0.1146,-0.0784,1.0021,-4.22,4.53,2.63,1.52,31.29,-27.47,0.993805,-0.024506,-0.071993,0.080752,0.0,0.0,0.0,0,0
2026-06-16 15:57:50.504,1483696,R_Ankle,0.0228,-0.0116,1.0034,0.76,-1.73,-0.51,-13.59,33.66,-25.91,0.101962,0.085879,0.029298,0.990631,0.0,0.0,0.0,0,0
2026-06-16 15:57:50.506,1483811,L_Hip,0.1146,-0.0862,1.0001,-4.22,4.53,2.6,0.87,31.6,-28.33,0.993835,-0.024537,-0.071902,0.080355,0.0,0.0,0.0,0,0
2026-06-16 15:57:50.506,1483716,R_Ankle,0.0116,-0.0076,1.001,0.76,-1.72,-0.51,-14.44,34.14,-26.08,0.101962,0.08591,0.029298,0.990631,0.0,0.0,0.0,0,0
2026-06-16 15:57:50.508,1483761,L_Shank,-0.7917,0.639,0.0218,2.53,-2.64,0.14,12.67,-43.68,-13.98,0.558245,0.673544,0.124546,-0.468154,0.0,0.0,0.0,0,0
2026-06-16 15:57:50.509,1483736,R_Ankle,0.0145,-0.0096,1.0,0.76,-1.72,-0.5,-14.3,32.73,-27.76,0.101962,0.08591,0.029298,0.990631,0.0,0.0,0.0,0,0
2026-06-16 15:57:50.510,1483781,L_Shank,-0.7673,0.5176,0.063,2.45,-2.77,-0.05,0.0,0.0,0.0,0.558916,0.672658,0.125217,-0.468429,0.0,0.0,0.0,0,0
2026-06-16 15:57:50.512,1483801,L_Shank,-0.6744,0.6722,-0.0506,2.85,-3.47,-1.1,13.73,-44.0,-15.54,0.559618,0.671682,0.126255,-0.468703,0.0,0.0,0.0,0,0
2026-06-16 15:57:50.513,1483756,R_Ankle,0.015,-0.0116,0.9971,0.76,-1.74,-0.49,-13.59,33.02,-25.59,0.101962,0.08591,0.029298,0.990631,0.0,0.0,0.0,0,0
2026-06-16 15:57:50.515,1483821,L_Shank,-0.7766,0.6233,0.0112,1.87,-2.37,-0.67,14.95,-43.83,-15.4,0.560167,0.670827,0.127201,-0.469008,0.0,0.0,0.0,0,0
2026-06-16 15:57:50.517,1483776,R_Ankle,0.013,-0.021,1.0062,0.76,-1.74,-0.5,0.0,0.0,0.0,0.101962,0.08594,0.029298,0.990631,0.0,0.0,0.0,0,0
2026-06-16 15:57:50.518,1483796,L_Hip,0.1171,-0.0848,0.9924,-4.21,4.51,2.75,1.66,30.16,-27.03,0.993866,-0.024567,-0.07181,0.080081,0.0,0.0,0.0,0,0
2026-06-16 15:57:50.519,1483663,R_Hip,0.0496,0.0069,0.9876,0.25,-1.57,1.77,-19.42,28.54,-32.99,0.943602,-0.00351,-0.041505,-0.32841,0.0,0.0,0.0,0,0
2026-06-16 15:57:50.521,1483816,L_Hip,0.1195,-0.0735,0.9798,-4.16,4.52,2.65,1.89,31.3,-29.21,0.993896,-0.024506,-0.07178,0.08005,0.0,0.0,0.0,0,0
2026-06-16 15:57:50.522,1483683,R_Hip,0.0348,0.0069,0.9991,0.25,-1.56,1.77,0.0,0.0,0.0,0.943602,-0.00351,-0.041475,-0.32841,0.0,0.0,0.0,0,0
2026-06-16 15:57:50.523,1483797,L_Hip,0.1357,-0.0656,0.9711,-4.19,4.51,2.76,0.0,0.0,0.0,0.993866,-0.024476,-0.07181,0.080264,0.0,0.0,0.0,0,0
2026-06-16 15:57:50.524,1483703,R_Hip,0.0481,0.0064,0.9856,0.26,-1.58,1.77,-19.42,27.81,-33.33,0.943602,-0.00354,-0.041475,-0.32841,0.0,0.0,0.0,0,0
2026-06-16 15:57:50.526,1483817,L_Hip,0.1146,-0.0852,0.9846,-4.17,4.51,2.96,1.36,30.8,-28.19,0.993835,-0.024415,-0.07181,0.080508,0.0,0.0,0.0,0,0
2026-06-16 15:57:50.527,1483723,R_Hip,0.0481,0.0098,0.9779,0.26,-1.57,1.77,-18.69,27.44,-32.3,0.943602,-0.00354,-0.041475,-0.32841,0.0,0.0,0.0,0,0
2026-06-16 15:57:50.530,1483675,R_Shank,0.0355,-2.6436,1.0167,-0.08,-1.46,-8.42,-13.56,25.56,-21.87,0.903745,0.035859,-0.017823,0.42613,0.0,0.0,0.0,0,0
2026-06-16 15:57:50.531,1483810,L_Ankle,0.1119,0.0236,0.9798,5.4,-0.84,-10.31,-21.51,2.71,-42.95,0.997192,0.023591,-0.069369,0.013855,0.0,0.0,0.0,0,0
2026-06-16 15:57:50.533,1483695,R_Shank,0.0404,-2.6436,1.0028,-0.08,-1.48,-8.41,0.0,0.0,0.0,0.903745,0.035829,-0.017823,0.42613,0.0,0.0,0.0,0,0
2026-06-16 15:57:50.534,1483830,L_Ankle,0.1114,0.0271,0.9899,5.41,-0.86,-10.29,0.0,0.0,0.0,0.997192,0.023591,-0.069369,0.013855,0.0,0.0,0.0,0,0
2026-06-16 15:57:50.535,1483715,R_Shank,0.036,3.1396,0.9946,-0.09,-1.48,-8.43,-13.39,25.72,-22.02,0.903745,0.035859,-0.017823,0.42613,0.0,0.0,0.0,0,0
2026-06-16 15:57:50.536,1483850,L_Ankle,0.1119,0.0222,1.0058,5.4,-0.84,-10.29,-20.31,3.58,-43.1,0.997192,0.02356,-0.069369,0.013855,0.0,0.0,0.0,0,0
2026-06-16 15:57:50.538,1483735,R_Shank,0.0335,-1.6136,0.9975,-0.08,-1.46,-8.41,-11.71,25.69,-22.34,0.903745,0.035859,-0.017823,0.42613,0.0,0.0,0.0,0,0
2026-06-16 15:57:50.539,1483870,L_Ankle,0.1109,0.0212,0.988,5.39,-0.83,-10.28,-18.39,3.01,-43.92,0.997192,0.02353,-0.069399,0.013855,0.0,0.0,0.0,0,0
2026-06-16 15:57:50.542,1483811,L_Shank,-0.911,0.5778,0.0184,1.3,-0.73,-0.47,14.26,-43.83,-15.7,0.560808,0.669912,0.127598,-0.469466,0.0,0.0,0.0,0,0
2026-06-16 15:57:50.542,1483687,R_Hip,0.0515,0.0108,0.9881,0.27,-1.58,1.77,-19.05,28.17,-32.99,0.943602,-0.00354,-0.041475,-0.32841,0.0,0.0,0.0,0,0
2026-06-16 15:57:50.544,1483831,L_Shank,-0.8543,0.5896,0.0179,1.46,-1.12,-0.18,0.0,0.0,0.0,0.561327,0.669179,0.127445,-0.469893,0.0,0.0,0.0,0,0
2026-06-16 15:57:50.545,1483707,R_Hip,0.0422,-0.0028,0.9876,0.28,-1.57,1.78,0.0,0.0,0.0,0.943602,-0.00354,-0.041475,-0.32841,0.0,0.0,0.0,0,0
2026-06-16 15:57:50.547,1483851,L_Shank,-0.8122,0.6096,0.0237,1.35,-1.51,0.16,13.03,-42.98,-15.55,0.561724,0.668722,0.126926,-0.470229,0.0,0.0,0.0,0,0
2026-06-16 15:57:50.548,1483727,R_Hip,0.0397,0.0045,0.9885,0.26,-1.56,1.77,-19.6,26.53,-32.82,0.943602,-0.00351,-0.041505,-0.32841,0.0,0.0,0.0,0,0
2026-06-16 15:57:50.550,1483871,L_Shank,-0.7585,0.5876,-0.029,1.07,-1.68,-0.05,13.38,-44.34,-15.53,0.561998,0.668447,0.126286,-0.470443,0.0,0.0,0.0,0,0
2026-06-16 15:57:50.550,1483747,R_Hip,0.0466,0.0098,0.989,0.27,-1.57,1.77,-19.23,27.99,-32.14,0.943602,-0.00354,-0.041475,-0.32844,0.0,0.0,0.0,0,0
2026-06-16 15:57:50.552,1483831,L_Ankle,0.1202,0.0139,0.9938,5.39,-0.85,-10.29,-20.26,0.74,-43.11,0.997192,0.023499,-0.069399,0.013886,0.0,0.0,0.0,0,0
2026-06-16 15:57:50.553,1483697,R_Shank,0.0257,1.728,1.0109,-0.09,-1.47,-8.42,-12.57,26.21,-21.27,0.903745,0.035859,-0.017823,0.42616,0.0,0.0,0.0,0,0
2026-06-16 15:57:50.555,1483851,L_Ankle,0.1114,0.0295,0.9861,5.39,-0.83,-10.29,0.0,0.0,0.0,0.997192,0.023499,-0.06943,0.013886,0.0,0.0,0.0,0,0
2026-06-16 15:57:50.555,1483717,R_Shank,0.0404,-0.9728,1.0018,-0.09,-1.48,-8.43,0.0,0.0,0.0,0.903745,0.035859,-0.017823,0.42616,0.0,0.0,0.0,0,0
2026-06-16 15:57:50.559,1483871,L_Ankle,0.1178,0.0202,0.9774,5.39,-0.87,-10.29,-20.29,2.52,-43.44,0.997192,0.023469,-0.06943,0.013886,0.0,0.0,0.0,0,0
2026-06-16 15:57:50.559,1483737,R_Shank,0.0473,0.5684,1.0167,-0.09,-1.48,-8.43,-12.91,26.87,-22.17,0.903745,0.035859,-0.017823,0.42616,0.0,0.0,0.0,0,0
2026-06-16 15:57:50.562,1483832,L_Ankle,0.1148,0.0251,0.9856,5.38,-0.84,-10.29,-19.04,1.61,-42.57,0.997192,0.023469,-0.06943,0.013916,0.0,0.0,0.0,0,0
2026-06-16 15:57:50.563,1483757,R_Shank,0.035,-2.7732,1.0023,-0.1,-1.48,-8.43,-13.56,24.9,-21.27,0.903745,0.03589,-0.017823,0.42616,0.0,0.0,0.0,0,0
2026-06-16 15:57:50.565,1483841,L_Hip,0.1126,-0.0779,0.9817,-4.16,4.5,3.04,1.0,29.19,-29.05,0.993835,-0.024354,-0.071871,0.080691,0.0,0.0,0.0,0,0
2026-06-16 15:57:50.567,1483702,R_Ankle,0.0106,-0.0151,1.0014,0.77,-1.7,-0.48,-14.95,33.97,-25.93,0.101962,0.08594,0.029267,0.990631,0.0,0.0,0.0,0,0
2026-06-16 15:57:50.569,1483861,L_Hip,0.1087,-0.0857,0.9895,-4.13,4.5,3.06,0.32,29.81,-27.59,0.993805,-0.024323,-0.071963,0.080752,0.0,0.0,0.0,0,0
2026-06-16 15:57:50.569,1483722,R_Ankle,0.0091,-0.0076,0.9947,0.77,-1.74,-0.48,-13.59,32.71,-25.9,0.101962,0.08591,0.029267,0.990631,0.0,0.0,0.0,0,0
2026-06-16 15:57:50.571,1483881,L_Hip,0.1239,-0.0749,0.9895,-4.12,4.51,3.08,0.0,0.0,0.0,0.993835,-0.024354,-0.071932,0.08066,0.0,0.0,0.0,0,0
2026-06-16 15:57:50.572,1483742,R_Ankle,0.0091,-0.0156,0.9861,0.76,-1.73,-0.5,-13.93,33.67,-26.53,0.101962,0.08591,0.029267,0.990631,0.0,0.0,0.0,0,0
2026-06-16 15:57:50.574,1483901,L_Hip,0.1244,-0.073,0.9832,-4.15,4.51,3.05,1.51,30.0,-28.33,0.993835,-0.024323,-0.071932,0.080416,0.0,0.0,0.0,0,0
2026-06-16 15:57:50.575,1483762,R_Ankle,0.0179,-0.0141,1.0115,0.76,-1.72,-0.48,0.0,0.0,0.0,0.101962,0.085879,0.029298,0.990631,0.0,0.0,0.0,0,0
2026-06-16 15:57:50.577,1483854,L_Ankle,0.1129,0.0168,0.9933,5.4,-0.85,-10.3,-19.77,2.68,-43.26,0.997192,0.023469,-0.06946,0.013916,0.0,0.0,0.0,0,0
2026-06-16 15:57:50.579,1483712,R_Hip,0.051,0.0118,0.9914,0.26,-1.57,1.8,-18.87,27.99,-32.14,0.943602,-0.00354,-0.041475,-0.32844,0.0,0.0,0.0,0,0
2026-06-16 15:57:50.580,1483874,L_Ankle,0.1114,0.0158,0.9726,5.39,-0.84,-10.29,-19.56,0.73,-43.1,0.997192,0.023469,-0.06946,0.013916,0.0,0.0,0.0,0,0
2026-06-16 15:57:50.581,1483732,R_Hip,0.0407,-0.0008,0.99,0.27,-1.57,1.78,0.0,0.0,0.0,0.943602,-0.00351,-0.041475,-0.32841,0.0,0.0,0.0,0,0
2026-06-16 15:57:50.583,1483894,L_Ankle,0.1168,0.0202,0.9856,5.39,-0.83,-10.3,0.0,0.0,0.0,0.997192,0.023469,-0.06943,0.013916,0.0,0.0,0.0,0,0
2026-06-16 15:57:50.583,1483752,R_Hip,0.0431,0.0074,0.9885,0.25,-1.58,1.78,-19.6,29.08,-32.14,0.943602,-0.00351,-0.041475,-0.32841,0.0,0.0,0.0,0,0
2026-06-16 15:57:50.585,1483914,L_Ankle,0.1168,0.0139,0.9818,5.39,-0.84,-10.3,-20.07,1.63,-41.57,0.997192,0.023438,-0.06946,0.013916,0.0,0.0,0.0,0,0
2026-06-16 15:57:50.586,1483772,R_Hip,0.0461,0.0108,0.9847,0.25,-1.58,1.79,-18.32,28.17,-31.96,0.943602,-0.00354,-0.041444,-0.32841,0.0,0.0,0.0,0,0
2026-06-16 15:57:50.588,1483862,L_Shank,-0.7736,0.5646,-0.0487,0.21,-1.11,-0.67,13.04,-43.98,-16.47,0.56212,0.668447,0.126102,-0.470351,0.0,0.0,0.0,0,0
2026-06-16 15:57:50.588,1483720,R_Shank,0.0404,2.2392,0.997,-0.09,-1.45,-8.42,-12.58,26.54,-20.97,0.903745,0.03589,-0.017792,0.42616,0.0,0.0,0.0,0,0
2026-06-16 15:57:50.590,1483882,L_Shank,-0.778,0.5641,-0.0549,-0.1,-0.93,-0.82,0.0,0.0,0.0,0.56212,0.668569,0.126499,-0.470107,0.0,0.0,0.0,0,0
2026-06-16 15:57:50.591,1483740,R_Shank,0.0375,-1.1024,1.008,-0.09,-1.47,-8.41,0.0,0.0,0.0,0.903745,0.03589,-0.017792,0.42616,0.0,0.0,0.0,0,0
2026-06-16 15:57:50.593,1483902,L_Shank,-0.7922,0.5485,-0.0564,-0.45,-0.81,-0.92,12.87,-43.48,-16.32,0.56209,0.66863,0.12711,-0.469893,0.0,0.0,0.0,0,0
2026-06-16 15:57:50.594,1483760,R_Shank,0.0384,1.4688,1.0128,-0.09,-1.47,-8.42,-13.41,26.38,-21.71,0.903745,0.03592,-0.017792,0.42616,0.0,0.0,0.0,0,0
2026-06-16 15:57:50.596,1483922,L_Shank,-0.8069,0.5299,-0.0468,-1.37,-0.78,-1.09,13.56,-42.81,-15.71,0.562151,0.668508,0.127567,-0.469863,0.0,0.0,0.0,0,0
2026-06-16 15:57:50.598,1483864,L_Hip,0.1068,-0.0754,0.9846,-4.16,4.51,2.98,1.5,30.0,-27.46,0.993866,-0.024354,-0.071932,0.080172,0.0,0.0,0.0,0,0
2026-06-16 15:57:50.599,1483780,R_Shank,0.0389,-2.6436,0.996,-0.08,-1.48,-8.43,-14.08,25.74,-20.81,0.903745,0.03592,-0.017792,0.42616,0.0,0.0,0.0,0,0
2026-06-16 15:57:50.600,1483884,L_Hip,0.12,-0.0676,1.0016,-4.16,4.5,2.97,0.68,30.15,-28.76,0.993896,-0.024384,-0.071902,0.079897,0.0,0.0,0.0,0,0
2026-06-16 15:57:50.602,1483725,R_Ankle,0.0184,-0.0131,1.0048,0.76,-1.72,-0.49,-12.89,33.66,-24.98,0.101962,0.085849,0.029267,0.990631,0.0,0.0,0.0,0,0
2026-06-16 15:57:50.603,1483904,L_Hip,0.1205,-0.0779,0.9962,-4.15,4.49,2.96,0.0,0.0,0.0,0.993896,-0.024384,-0.071871,0.079745,0.0,0.0,0.0,0,0
2026-06-16 15:57:50.604,1483745,R_Ankle,0.0062,-0.0166,1.0038,0.75,-1.72,-0.49,-13.25,33.36,-26.52,0.101962,0.085879,0.029298,0.990631,0.0,0.0,0.0,0,0
2026-06-16 15:57:50.606,1483924,L_Hip,0.118,-0.0739,0.9856,-4.16,4.5,2.98,0.33,30.46,-27.88,0.993927,-0.024384,-0.071871,0.079531,0.0,0.0,0.0,0,0
2026-06-16 15:57:50.607,1483765,R_Ankle,0.0037,-0.0136,1.0129,0.76,-1.73,-0.51,-14.96,32.7,-26.22,0.101962,0.085849,0.029267,0.990631,0.0,0.0,0.0,0,0
2026-06-16 15:57:50.609,1483886,L_Shank,-0.7727,0.547,0.015,-2.41,-1.19,-1.48,14.08,-43.66,-15.55,0.562273,0.668233,0.127506,-0.470138,0.0,0.0,0.0,0,0
2026-06-16 15:57:50.609,1483785,R_Ankle,0.014,-0.0086,1.0053,0.76,-1.74,-0.5,0.0,0.0,0.0,0.101962,0.085849,0.029298,0.990631,0.0,0.0,0.0,0,0
2026-06-16 15:57:50.611,1483906,L_Shank,-0.7648,0.5729,0.0218,-2.26,-1.37,-1.52,0.0,0.0,0.0,0.562365,0.667928,0.126865,-0.470626,0.0,0.0,0.0,0,0
2026-06-16 15:57:50.612,1483737,R_Hip,0.0471,0.003,0.9962,0.27,-1.58,1.79,-19.05,28.9,-31.63,0.943602,-0.00351,-0.041475,-0.32841,0.0,0.0,0.0,0,0
2026-06-16 15:57:50.614,1483926,L_Shank,-0.7766,0.5793,0.0477,-2.13,-1.58,-1.51,13.73,-43.66,-15.55,0.562365,0.667684,0.125858,-0.471236,0.0,0.0,0.0,0,0
2026-06-16 15:57:50.614,1483757,R_Hip,0.0486,0.0074,0.9948,0.27,-1.57,1.79,0.0,0.0,0.0,0.943602,-0.00351,-0.041444,-0.32841,0.0,0.0,0.0,0,0
2026-06-16 15:57:50.616,1483946,L_Shank,-0.8044,0.6003,0.1182,-1.64,-2.19,-1.39,13.39,-42.97,-16.17,0.562243,0.667531,0.124821,-0.471816,0.0,0.0,0.0,0,0
2026-06-16 15:57:50.617,1483777,R_Hip,0.0431,0.0054,0.9784,0.26,-1.57,1.77,-20.14,27.07,-31.28,0.943602,-0.00351,-0.041444,-0.32841,0.0,0.0,0.0,0,0
2026-06-16 15:57:50.619,1483797,R_Hip,0.0422,0.0128,0.9938,0.27,-1.58,1.78,-18.87,26.89,-32.13,0.943602,-0.00354,-0.041444,-0.32841,0.0,0.0,0.0,0,0
2026-06-16 15:57:50.620,1483899,L_Ankle,0.105,0.0197,1.0082,5.4,-0.84,-10.3,-19.06,3.39,-42.23,0.997192,0.023438,-0.06946,0.013916,0.0,0.0,0.0,0,0
2026-06-16 15:57:50.622,1483747,R_Ankle,0.017,-0.0007,1.001,0.77,-1.72,-0.48,-13.23,33.97,-24.68,0.101962,0.085849,0.029298,0.990631,0.0,0.0,0.0,0,0
2026-06-16 15:57:50.622,1483919,L_Ankle,0.1143,0.0236,0.9914,5.38,-0.85,-10.29,-19.58,2.86,-42.41,0.997192,0.023408,-0.06946,0.013916,0.0,0.0,0.0,0,0
2026-06-16 15:57:50.625,1483767,R_Ankle,0.0165,-0.0007,1.012,0.76,-1.74,-0.48,-13.77,33.19,-26.37,0.101962,0.085849,0.029328,0.990631,0.0,0.0,0.0,0,0
2026-06-16 15:57:50.626,1483939,L_Ankle,0.1129,0.0271,0.9837,5.38,-0.86,-10.29,0.0,0.0,0.0,0.997192,0.023408,-0.06943,0.013947,0.0,0.0,0.0,0,0
2026-06-16 15:57:50.628,1483787,R_Ankle,0.013,-0.0037,1.012,0.77,-1.73,-0.51,-14.44,33.5,-25.76,0.101962,0.085879,0.029328,0.990631,0.0,0.0,0.0,0,0
2026-06-16 15:57:50.629,1483959,L_Ankle,0.1143,0.0285,0.9851,5.39,-0.85,-10.29,-19.59,3.22,-42.41,0.997192,0.023408,-0.06943,0.013947,0.0,0.0,0.0,0,0
2026-06-16 15:57:50.631,1483807,R_Ankle,0.0096,-0.0086,1.0129,0.76,-1.73,-0.49,0.0,0.0,0.0,0.101993,0.085849,0.029328,0.990631,0.0,0.0,0.0,0,0
2026-06-16 15:57:50.632,1483909,L_Hip,0.1215,-0.0784,0.987,-4.15,4.51,2.96,0.84,29.99,-28.32,0.993927,-0.024354,-0.071902,0.07944,0.0,0.0,0.0,0,0
2026-06-16 15:57:50.634,1483929,L_Hip,0.1161,-0.0754,0.9885,-4.16,4.51,2.97,1.2,30.64,-28.91,0.993927,-0.024354,-0.071932,0.079409,0.0,0.0,0.0,0,0
2026-06-16 15:57:50.635,1483949,L_Hip,0.1293,-0.0749,0.9841,-4.16,4.51,2.97,0.0,0.0,0.0,0.993927,-0.024323,-0.071902,0.07947,0.0,0.0,0.0,0,0
2026-06-16 15:57:50.637,1483969,L_Hip,0.1176,-0.0808,0.9812,-4.17,4.52,2.96,1.4,32.42,-28.48,0.993927,-0.024323,-0.071871,0.079531,0.0,0.0,0.0,0,0
2026-06-16 15:57:50.642,1483787,R_Hip,0.0491,-0.0013,0.9991,0.27,-1.57,1.77,-18.87,27.62,-33.16,0.943602,-0.00351,-0.041444,-0.32841,0.0,0.0,0.0,0,0
2026-06-16 15:57:50.644,1483807,R_Hip,0.0387,-0.0057,0.9746,0.27,-1.58,1.78,0.0,0.0,0.0,0.943602,-0.003479,-0.041444,-0.32841,0.0,0.0,0.0,0,0
2026-06-16 15:57:50.646,1483827,R_Hip,0.0451,0.0079,0.9775,0.28,-1.58,1.78,-18.5,27.62,-32.13,0.943602,-0.00351,-0.041414,-0.32841,0.0,0.0,0.0,0,0
2026-06-16 15:57:50.647,1483847,R_Hip,0.0422,0.0079,1.0073,0.26,-1.58,1.77,-20.33,27.99,-32.48,0.943602,-0.00351,-0.041414,-0.32841,0.0,0.0,0.0,0,0
2026-06-16 15:57:50.650,1483792,R_Ankle,0.015,-0.0101,1.0,0.77,-1.73,-0.5,-14.28,32.39,-26.52,0.101993,0.085849,0.029359,0.990631,0.0,0.0,0.0,0,0
2026-06-16 15:57:50.651,1483812,R_Ankle,0.0135,-0.0161,0.9823,0.77,-1.72,-0.5,-13.76,34.15,-27.0,0.101993,0.085849,0.029359,0.990631,0.0,0.0,0.0,0,0
2026-06-16 15:57:50.654,1483832,R_Ankle,0.0155,-0.02,1.0048,0.77,-1.73,-0.48,-16.31,32.68,-25.31,0.101993,0.085879,0.029359,0.990631,0.0,0.0,0.0,0,0
2026-06-16 15:57:50.657,1483852,R_Ankle,0.017,-0.0121,1.0067,0.75,-1.74,-0.48,-12.73,32.87,-25.12,0.101993,0.085879,0.029359,0.990631,0.0,0.0,0.0,0,0
2026-06-16 15:57:50.658,1483936,L_Shank,-0.8289,0.6669,0.0841,-0.4,-2.54,-0.88,13.56,-44.5,-16.0,0.561876,0.667074,0.123966,-0.473159,0.0,0.0,0.0,0,0
2026-06-16 15:57:50.660,1483956,L_Shank,-0.8357,0.6082,0.0947,-0.38,-2.57,-0.81,0.0,0.0,0.0,0.561724,0.666829,0.123844,-0.473708,0.0,0.0,0.0,0,0
2026-06-16 15:57:50.662,1483976,L_Shank,-0.8396,0.6326,0.0433,-0.36,-2.65,-0.67,12.88,-43.12,-17.57,0.561205,0.666952,0.125095,-0.473861,0.0,0.0,0.0,0,0
2026-06-16 15:57:50.664,1483996,L_Shank,-0.8328,0.6228,0.0227,-0.45,-2.8,-0.36,13.91,-43.14,-16.33,0.561113,0.66686,0.125675,-0.473922,0.0,0.0,0.0,0,0
2026-06-16 15:57:50.666,1483811,R_Shank,0.0512,-1.6136,0.9951,-0.09,-1.46,-8.44,-12.91,26.86,-22.47,0.903745,0.03592,-0.017792,0.42616,0.0,0.0,0.0,0,0
2026-06-16 15:57:50.667,1483944,L_Ankle,0.1119,0.0236,0.9822,5.4,-0.85,-10.29,-19.61,1.79,-45.13,0.997192,0.023377,-0.06946,0.013947,0.0,0.0,0.0,0,0
2026-06-16 15:57:50.668,1483831,R_Shank,0.0414,-0.8432,1.0133,-0.09,-1.46,-8.43,0.0,0.0,0.0,0.903745,0.03592,-0.017823,0.42616,0.0,0.0,0.0,0,0
2026-06-16 15:57:50.671,1483964,L_Ankle,0.1222,0.0222,0.9918,5.38,-0.84,-10.29,-20.26,1.46,-42.43,0.997192,0.023347,-0.06946,0.013947,0.0,0.0,0.0,0,0
2026-06-16 15:57:50.672,1483851,R_Shank,0.0438,-0.9728,0.998,-0.09,-1.47,-8.43,-13.6,27.54,-21.85,0.903745,0.03592,-0.017823,0.42616,0.0,0.0,0.0,0,0
2026-06-16 15:57:50.673,1483984,L_Ankle,0.1197,0.0256,0.9875,5.38,-0.84,-10.29,0.0,0.0,0.0,0.997192,0.023347,-0.06946,0.013977,0.0,0.0,0.0,0,0
2026-06-16 15:57:50.675,1483871,R_Shank,0.033,-2.3844,1.0114,-0.09,-1.46,-8.44,-12.41,27.02,-22.02,0.903745,0.03589,-0.017823,0.42616,0.0,0.0,0.0,0,0
2026-06-16 15:57:50.676,1484004,L_Ankle,0.1148,0.0217,0.9942,5.39,-0.84,-10.3,-19.41,2.68,-42.58,0.997192,0.023347,-0.069491,0.013977,0.0,0.0,0.0,0,0
2026-06-16 15:57:50.677,1483891,R_Shank,0.0335,-1.4844,0.9989,-0.09,-1.46,-8.43,-13.21,25.54,-23.08,0.903745,0.03589,-0.017823,0.42616,0.0,0.0,0.0,0,0
2026-06-16 15:57:50.679,1483911,R_Shank,0.0365,-3.1552,1.0052,-0.09,-1.46,-8.42,0.0,0.0,0.0,0.903745,0.03589,-0.017823,0.42616,0.0,0.0,0.0,0,0
2026-06-16 15:57:50.682,1483931,R_Shank,0.0316,2.2392,1.0176,-0.1,-1.48,-8.41,-12.74,26.7,-22.02,0.903745,0.035859,-0.017823,0.42616,0.0,0.0,0.0,0,0
2026-06-16 15:57:50.682,1483961,L_Shank,-0.779,0.5715,-0.0348,-2.07,-2.65,-0.29,12.35,-42.96,-16.79,0.56148,0.666524,0.125553,-0.474013,0.0,0.0,0.0,0,0
2026-06-16 15:57:50.685,1483981,L_Shank,-0.7619,0.5837,-0.0727,-2.73,-2.29,-0.53,14.09,-41.95,-16.2,0.561846,0.666158,0.125614,-0.474075,0.0,0.0,0.0,0,0
2026-06-16 15:57:50.686,1483951,R_Shank,0.0384,3.2692,0.9946,-0.09,-1.46,-8.43,-12.9,26.21,-21.87,0.903745,0.035859,-0.017823,0.42616,0.0,0.0,0.0,0,0
2026-06-16 15:57:50.687,1484001,L_Shank,-0.7722,0.5734,-0.0257,-3.78,-1.1,-1.29,0.0,0.0,0.0,0.562212,0.665792,0.126072,-0.474013,0.0,0.0,0.0,0,0
2026-06-16 15:57:50.689,1484021,L_Shank,-0.8122,0.5984,-0.0247,-4.09,-0.65,-1.63,13.39,-42.62,-16.8,0.5627,0.665273,0.126988,-0.473922,0.0,0.0,0.0,0,0
2026-06-16 15:57:50.692,1483837,R_Hip,0.0491,0.0015,0.9818,0.27,-1.57,1.77,-17.96,29.27,-32.31,0.943602,-0.00351,-0.041414,-0.32841,0.0,0.0,0.0,0,0
2026-06-16 15:57:50.693,1483857,R_Hip,0.0461,0.001,1.0025,0.28,-1.57,1.78,0.0,0.0,0.0,0.943602,-0.00351,-0.041444,-0.32841,0.0,0.0,0.0,0,0
2026-06-16 15:57:50.695,1483877,R_Hip,0.057,0.0054,0.9818,0.27,-1.58,1.8,-19.78,27.08,-33.67,0.943602,-0.00351,-0.041444,-0.32841,0.0,0.0,0.0,0,0
2026-06-16 15:57:50.697,1483976,L_Hip,0.1166,-0.0754,0.9866,-4.14,4.51,2.96,0.8,29.66,-26.29,0.993927,-0.024293,-0.071871,0.079592,0.0,0.0,0.0,0,0
2026-06-16 15:57:50.698,1483897,R_Hip,0.0427,0.0103,0.9972,0.27,-1.57,1.77,-19.05,27.81,-32.31,0.943602,-0.00354,-0.041444,-0.32841,0.0,0.0,0.0,0,0
2026-06-16 15:57:50.699,1483996,L_Hip,0.1156,-0.0641,0.9851,-4.16,4.51,2.98,1.48,29.03,-27.46,0.993927,-0.024262,-0.071871,0.079623,0.0,0.0,0.0,0,0
2026-06-16 15:57:50.702,1484016,L_Hip,0.1171,-0.0739,0.9764,-4.16,4.5,2.97,1.88,30.65,-29.21,0.993927,-0.024262,-0.071871,0.079653,0.0,0.0,0.0,0,0
2026-06-16 15:57:50.703,1484036,L_Hip,0.1156,-0.0793,0.99,-4.14,4.5,2.98,0.0,0.0,0.0,0.993927,-0.024232,-0.071841,0.079653,0.0,0.0,0.0,0,0
2026-06-16 15:57:50.709,1483989,L_Ankle,0.105,0.0236,0.9904,5.39,-0.87,-10.29,-20.11,2.34,-42.93,0.997192,0.023377,-0.069521,0.013977,0.0,0.0,0.0,0,0
2026-06-16 15:57:50.710,1483855,R_Shank,0.0394,0.8276,1.0023,-0.09,-1.46,-8.41,-12.9,26.53,-22.47,0.903745,0.035859,-0.017823,0.42616,0.0,0.0,0.0,0,0
2026-06-16 15:57:50.712,1484009,L_Ankle,0.1222,0.0192,0.987,5.38,-0.84,-10.3,-20.46,2.34,-42.94,0.997192,0.023347,-0.069521,0.013977,0.0,0.0,0.0,0,0
2026-06-16 15:57:50.714,1484029,L_Ankle,0.1163,0.0168,0.9866,5.4,-0.83,-10.29,0.0,0.0,0.0,0.997192,0.023316,-0.069521,0.013977,0.0,0.0,0.0,0,0
2026-06-16 15:57:50.714,1483875,R_Shank,0.034,0.9572,1.0056,-0.07,-1.48,-8.41,-12.38,25.7,-22.63,0.903745,0.035829,-0.017853,0.42616,0.0,0.0,0.0,0,0
2026-06-16 15:57:50.717,1484049,L_Ankle,0.1173,0.0188,0.9808,5.41,-0.84,-10.28,-18.71,2.31,-43.25,0.997192,0.023286,-0.069521,0.013977,0.0,0.0,0.0,0,0
2026-06-16 15:57:50.718,1483895,R_Shank,0.0345,0.0572,1.0008,-0.09,-1.48,-8.43,-13.06,26.04,-22.32,0.903745,0.035829,-0.017853,0.426191,0.0,0.0,0.0,0,0
2026-06-16 15:57:50.720,1483999,L_Hip,0.1288,-0.0862,0.9958,-4.16,4.5,2.92,2.19,30.65,-27.47,0.993927,-0.024232,-0.071871,0.079623,0.0,0.0,0.0,0,0
2026-06-16 15:57:50.721,1483915,R_Shank,0.0375,0.1864,0.9984,-0.09,-1.47,-8.42,0.0,0.0,0.0,0.903745,0.035798,-0.017853,0.426191,0.0,0.0,0.0,0,0
2026-06-16 15:57:50.723,1484019,L_Hip,0.1303,-0.0779,0.987,-4.17,4.5,2.84,2.21,30.66,-28.64,0.993927,-0.024232,-0.071871,0.079653,0.0,0.0,0.0,0,0
2026-06-16 15:57:50.723,1483860,R_Ankle,0.0155,-0.0131,1.0029,0.76,-1.72,-0.5,-13.44,31.92,-26.35,0.101993,0.085879,0.029389,0.990631,0.0,0.0,0.0,0,0
2026-06-16 15:57:50.725,1484039,L_Hip,0.0901,-0.1044,0.9861,-4.29,4.58,2.34,1.84,29.36,-28.34,0.993927,-0.024201,-0.071871,0.079623,0.0,0.0,0.0,0,0
2026-06-16 15:57:50.726,1483880,R_Ankle,0.0204,-0.0027,1.0019,0.76,-1.73,-0.48,-13.24,33.67,-25.91,0.101993,0.085879,0.029389,0.990631,0.0,0.0,0.0,0,0
2026-06-16 15:57:50.728,1484059,L_Hip,0.0994,-0.0946,1.0079,-4.33,4.57,1.72,0.0,0.0,0.0,0.993927,-0.024201,-0.071871,0.079623,0.0,0.0,0.0,0,0
2026-06-16 15:57:50.729,1483900,R_Ankle,0.0121,-0.0131,1.0,0.77,-1.72,-0.49,-14.11,32.23,-26.05,0.101962,0.08591,0.02942,0.990631,0.0,0.0,0.0,0,0
2026-06-16 15:57:50.731,1483920,R_Ankle,0.0052,-0.0166,1.0149,0.77,-1.74,-0.5,-12.23,33.04,-26.2,0.101993,0.08594,0.02942,0.9906,0.0,0.0,0.0,0,0
2026-06-16 15:57:50.734,1484011,L_Shank,-0.9769,0.5592,0.2833,-2.85,-1.77,-1.0,12.54,-42.08,-18.82,0.563372,0.664541,0.128422,-0.473769,0.0,0.0,0.0,0,0
2026-06-16 15:57:50.735,1483877,R_Shank,0.0399,-0.3316,1.0023,-0.09,-1.47,-8.41,-12.07,27.34,-22.63,0.903745,0.035798,-0.017853,0.426191,0.0,0.0,0.0,0,0
2026-06-16 15:57:50.737,1484031,L_Shank,-0.9334,0.6654,0.1873,-2.75,-2.83,-0.45,14.11,-41.25,-18.07,0.564348,0.663411,0.130284,-0.473678,0.0,0.0,0.0,0,0
2026-06-16 15:57:50.737,1483897,R_Shank,0.0424,0.8276,1.0066,-0.08,-1.45,-8.43,-13.43,27.37,-22.01,0.903714,0.035798,-0.017853,0.426191,0.0,0.0,0.0,0,0
2026-06-16 15:57:50.739,1484051,L_Shank,-0.8284,0.7011,0.2996,-2.26,-3.77,0.2,0.0,0.0,0.0,0.5656,0.661977,0.132389,-0.473647,0.0,0.0,0.0,0,0
2026-06-16 15:57:50.740,1483917,R_Shank,0.0375,3.2692,1.0056,-0.09,-1.45,-8.42,0.0,0.0,0.0,0.903714,0.035768,-0.017853,0.426191,0.0,0.0,0.0,0,0
2026-06-16 15:57:50.742,1484071,L_Shank,-0.7854,0.662,0.2478,-1.32,-4.19,0.12,13.4,-42.27,-17.43,0.567003,0.660176,0.134373,-0.473861,0.0,0.0,0.0,0,0
2026-06-16 15:57:50.743,1483937,R_Shank,0.0384,2.2392,1.0138,-0.09,-1.47,-8.42,-13.08,26.38,-21.42,0.903714,0.035768,-0.017853,0.426191,0.0,0.0,0.0,0,0
2026-06-16 15:57:50.745,1484021,L_Hip,0.0916,-0.0848,0.9909,-4.24,4.59,1.69,2.02,30.17,-27.9,0.993927,-0.024201,-0.071902,0.079653,0.0,0.0,0.0,0,0
2026-06-16 15:57:50.746,1483882,R_Ankle,0.0116,-0.0081,1.0101,0.75,-1.74,-0.5,-15.3,33.66,-26.54,0.101993,0.08591,0.02942,0.990631,0.0,0.0,0.0,0,0
2026-06-16 15:57:50.747,1484041,L_Hip,0.1063,-0.042,0.9541,-4.13,4.54,2.15,0.69,31.11,-28.18,0.993927,-0.024232,-0.071902,0.079623,0.0,0.0,0.0,0,0
2026-06-16 15:57:50.748,1483902,R_Ankle,0.0062,-0.0106,1.0053,0.76,-1.73,-0.49,-13.25,32.71,-25.59,0.101993,0.08591,0.02942,0.9906,0.0,0.0,0.0,0,0
2026-06-16 15:57:50.750,1484061,L_Hip,0.1073,-0.0602,0.9648,-4.15,4.5,3.18,1.86,30.01,-28.92,0.993927,-0.024201,-0.071902,0.079653,0.0,0.0,0.0,0,0
2026-06-16 15:57:50.751,1483922,R_Ankle,0.0175,-0.0176,1.001,0.76,-1.74,-0.48,-13.93,33.67,-26.53,0.101993,0.085879,0.02942,0.990631,0.0,0.0,0.0,0,0
2026-06-16 15:57:50.753,1484022,L_Hip,0.096,-0.0636,0.9996,-4.06,4.45,3.74,0.18,30.62,-28.61,0.993927,-0.024201,-0.071902,0.079653,0.0,0.0,0.0,0,0
2026-06-16 15:57:50.754,1483942,R_Ankle,0.0121,-0.0116,1.0067,0.77,-1.74,-0.5,-13.58,33.34,-25.6,0.101993,0.085879,0.02942,0.990631,0.0,0.0,0.0,0,0
2026-06-16 15:57:50.755,1484034,L_Ankle,0.108,0.0261,1.0077,5.4,-0.84,-10.3,-19.76,2.33,-43.26,0.997192,0.023286,-0.069552,0.013977,0.0,0.0,0.0,0,0
2026-06-16 15:57:50.756,1483887,R_Hip,0.0441,0.0089,0.9803,0.26,-1.59,1.78,-19.05,29.26,-31.28,0.943602,-0.00354,-0.041444,-0.32841,0.0,0.0,0.0,0,0
2026-06-16 15:57:50.758,1484054,L_Ankle,0.1153,0.0163,1.001,5.39,-0.85,-10.29,-19.92,1.8,-42.76,0.997192,0.023255,-0.069521,0.013977,0.0,0.0,0.0,0,0
2026-06-16 15:57:50.759,1483907,R_Hip,0.0471,0.0176,0.989,0.26,-1.58,1.78,0.0,0.0,0.0,0.943602,-0.00354,-0.041444,-0.32841,0.0,0.0,0.0,0,0
2026-06-16 15:57:50.761,1484074,L_Ankle,0.1099,0.0207,0.9726,5.4,-0.84,-10.29,-20.64,2.52,-43.11,0.997192,0.023225,-0.069521,0.014008,0.0,0.0,0.0,0,0
2026-06-16 15:57:50.761,1483927,R_Hip,0.0471,0.0079,0.9929,0.25,-1.57,1.8,-20.14,28.9,-31.97,0.943602,-0.00354,-0.041444,-0.32841,0.0,0.0,0.0,0,0
2026-06-16 15:57:50.763,1484094,L_Ankle,0.1163,0.0222,0.9971,5.39,-0.84,-10.28,0.0,0.0,0.0,0.997192,0.023255,-0.069521,0.014008,0.0,0.0,0.0,0,0
2026-06-16 15:57:50.763,1483947,R_Hip,0.0422,-0.0018,0.9847,0.25,-1.58,1.78,-19.23,28.72,-31.45,0.943602,-0.00354,-0.041444,-0.32841,0.0,0.0,0.0,0,0
2026-06-16 15:57:50.777,1483922,R_Shank,0.0458,-0.0724,1.0176,-0.09,-1.47,-8.42,-12.4,26.36,-22.03,0.903714,0.035798,-0.017823,0.426191,0.0,0.0,0.0,0,0
2026-06-16 15:57:50.779,1483942,R_Shank,0.0311,-1.8728,0.9999,-0.09,-1.48,-8.41,-12.73,26.37,-22.02,0.903714,0.035768,-0.017853,0.426191,0.0,0.0,0.0,0,0
2026-06-16 15:57:50.781,1483962,R_Shank,0.033,3.2692,0.9922,-0.09,-1.45,-8.43,0.0,0.0,0.0,0.903714,0.035798,-0.017853,0.426191,0.0,0.0,0.0,0,0
2026-06-16 15:57:50.783,1483982,R_Shank,0.0399,3.2692,1.0061,-0.09,-1.46,-8.42,-11.59,28.5,-22.17,0.903714,0.035768,-0.017853,0.426191,0.0,0.0,0.0,0,0
2026-06-16 15:57:50.785,1483927,R_Ankle,0.0111,-0.0101,1.0062,0.75,-1.73,-0.49,-14.96,32.7,-26.22,0.101993,0.085879,0.02945,0.990631,0.0,0.0,0.0,0,0
2026-06-16 15:57:50.787,1483947,R_Ankle,0.0072,-0.0086,1.0048,0.76,-1.74,-0.49,0.0,0.0,0.0,0.101993,0.085879,0.02945,0.990631,0.0,0.0,0.0,0,0
2026-06-16 15:57:50.788,1484066,L_Hip,0.1514,-0.1206,0.9996,-4.03,4.45,4.28,0.47,28.69,-28.02,0.993927,-0.024201,-0.071902,0.079653,0.0,0.0,0.0,0,0
2026-06-16 15:57:50.790,1483967,R_Ankle,0.0121,-0.0121,0.9952,0.76,-1.74,-0.49,-14.61,33.98,-26.23,0.101993,0.085849,0.02945,0.990631,0.0,0.0,0.0,0,0
2026-06-16 15:57:50.790,1484086,L_Hip,0.1229,-0.0695,0.9943,-3.9,4.41,4.18,0.0,0.0,0.0,0.993927,-0.024171,-0.071932,0.079653,0.0,0.0,0.0,0,0
2026-06-16 15:57:50.793,1484106,L_Hip,0.1215,-0.0572,0.9856,-3.93,4.45,4.16,1.89,31.94,-28.34,0.993927,-0.02414,-0.071963,0.079623,0.0,0.0,0.0,0,0
2026-06-16 15:57:50.793,1483987,R_Ankle,0.017,-0.0166,1.011,0.77,-1.71,-0.49,-14.96,32.7,-26.22,0.101993,0.085879,0.02945,0.990631,0.0,0.0,0.0,0,0
2026-06-16 15:57:50.796,1484126,L_Hip,0.118,-0.0553,0.9895,-4.09,4.46,4.08,2.18,30.01,-28.05,0.993927,-0.024171,-0.071993,0.07947,0.0,0.0,0.0,0,0
2026-06-16 15:57:50.799,1484079,L_Ankle,0.1119,0.0276,0.9808,5.41,-0.84,-10.28,-18.81,0.02,-41.05,0.997192,0.023225,-0.069521,0.014008,0.0,0.0,0.0,0,0
2026-06-16 15:57:50.801,1484099,L_Ankle,0.1163,0.0183,0.9707,5.4,-0.86,-10.26,-19.42,2.32,-43.6,0.997192,0.023225,-0.069521,0.014008,0.0,0.0,0.0,0,0
2026-06-16 15:57:50.803,1484119,L_Ankle,0.1143,0.0276,0.9842,5.39,-0.87,-10.29,-20.45,2.7,-42.26,0.997192,0.023225,-0.069521,0.014008,0.0,0.0,0.0,0,0
2026-06-16 15:57:50.805,1484139,L_Ankle,0.1143,0.0241,0.9827,5.39,-0.86,-10.3,-18.53,3.2,-42.05,0.997192,0.023194,-0.069521,0.014039,0.0,0.0,0.0,0,0
2026-06-16 15:57:50.808,1484088,L_Shank,-0.8362,0.6419,0.1964,-0.73,-4.44,0.17,13.43,-41.9,-19.92,0.568438,0.658284,0.136021,-0.474319,0.0,0.0,0.0,0,0
2026-06-16 15:57:50.810,1484108,L_Shank,-0.8152,0.6448,0.1686,-0.57,-4.89,0.41,13.06,-41.93,-18.05,0.569811,0.656331,0.137089,-0.475051,0.0,0.0,0.0,0,0
2026-06-16 15:57:50.812,1484128,L_Shank,-0.8147,0.6585,0.1628,-0.28,-5.16,0.48,0.0,0.0,0.0,0.571062,0.6545,0.1377,-0.475936,0.0,0.0,0.0,0,0
2026-06-16 15:57:50.815,1484148,L_Shank,-0.7795,0.637,0.1129,0.4,-5.16,0.65,13.77,-42.24,-19.61,0.57213,0.652974,0.138035,-0.476638,0.0,0.0,0.0,0,0
2026-06-16 15:57:50.817,1483962,R_Hip,0.0402,0.0069,0.9914,0.28,-1.58,1.77,-18.5,29.81,-31.11,0.943602,-0.003571,-0.041444,-0.32841,0.0,0.0,0.0,0,0
2026-06-16 15:57:50.819,1483982,R_Hip,0.0382,0.0093,1.0025,0.28,-1.57,1.77,0.0,0.0,0.0,0.943602,-0.003571,-0.041475,-0.328379,0.0,0.0,0.0,0,0
2026-06-16 15:57:50.821,1484002,R_Hip,0.0451,0.0089,0.9958,0.27,-1.58,1.77,-19.96,28.72,-32.14,0.943602,-0.00354,-0.041475,-0.32841,0.0,0.0,0.0,0,0
2026-06-16 15:57:50.823,1484101,L_Ankle,0.1148,0.031,0.9803,5.39,-0.84,-10.29,-19.95,3.22,-43.09,0.997192,0.023225,-0.069521,0.014039,0.0,0.0,0.0,0,0
2026-06-16 15:57:50.824,1484022,R_Hip,0.0417,0.0093,0.9799,0.26,-1.57,1.77,-19.05,29.27,-31.97,0.943602,-0.00354,-0.041444,-0.32841,0.0,0.0,0.0,0,0
2026-06-16 15:57:50.826,1484121,L_Ankle,0.1124,0.0315,0.9851,5.39,-0.83,-10.29,-19.4,1.62,-42.92,0.997192,0.023194,-0.069491,0.014039,0.0,0.0,0.0,0,0
2026-06-16 15:57:50.827,1483967,R_Shank,0.034,0.698,0.997,-0.08,-1.46,-8.42,-14.1,27.06,-21.4,0.903714,0.035768,-0.017853,0.426191,0.0,0.0,0.0,0,0
2026-06-16 15:57:50.829,1484102,L_Ankle,0.1021,0.0202,0.9856,5.38,-0.84,-10.28,-18.87,2.5,-42.06,0.997192,0.023194,-0.069521,0.014039,0.0,0.0,0.0,0,0
2026-06-16 15:57:50.830,1483987,R_Shank,0.0355,-1.7432,1.0071,-0.08,-1.46,-8.42,-12.73,26.36,-22.63,0.903714,0.035768,-0.017853,0.426222,0.0,0.0,0.0,0,0
2026-06-16 15:57:50.832,1484122,L_Ankle,0.1094,0.0207,0.9914,5.4,-0.85,-10.29,-20.29,3.58,-42.42,0.997192,0.023164,-0.069521,0.014069,0.0,0.0,0.0,0,0
2026-06-16 15:57:50.833,1484007,R_Shank,0.0301,2.8804,1.0114,-0.09,-1.47,-8.41,0.0,0.0,0.0,0.903714,0.035768,-0.017853,0.426222,0.0,0.0,0.0,0,0
2026-06-16 15:57:50.834,1484111,L_Shank,-0.7243,0.5861,0.0923,0.58,-3.32,-0.61,13.25,-40.71,-19.78,0.573199,0.651509,0.13831,-0.477309,0.0,0.0,0.0,0,0
2026-06-16 15:57:50.835,1484027,R_Shank,0.0414,2.3688,1.009,-0.09,-1.47,-8.42,-12.74,26.7,-22.32,0.903714,0.035768,-0.017853,0.426222,0.0,0.0,0.0,0,0
2026-06-16 15:57:50.837,1484131,L_Shank,-0.7433,0.549,0.1398,0.54,-2.43,-1.41,12.74,-40.53,-20.87,0.574328,0.650075,0.138432,-0.477828,0.0,0.0,0.0,0,0
2026-06-16 15:57:50.839,1484151,L_Shank,-0.7819,0.5984,0.1009,0.54,-1.54,-1.96,0.0,0.0,0.0,0.575701,0.648549,0.138768,-0.478164,0.0,0.0,0.0,0,0
2026-06-16 15:57:50.842,1484171,L_Shank,-0.8196,0.6243,0.1206,0.35,-0.33,-2.58,13.07,-41.22,-19.62,0.577471,0.646626,0.139805,-0.478317,0.0,0.0,0.0,0,0
2026-06-16 15:57:50.844,1483988,R_Hip,0.0466,0.0118,0.9914,0.28,-1.58,1.79,-17.96,28.17,-31.96,0.943602,-0.00351,-0.041444,-0.32841,0.0,0.0,0.0,0,0
2026-06-16 15:57:50.846,1484008,R_Hip,0.0407,0.0079,1.0035,0.27,-1.58,1.79,0.0,0.0,0.0,0.943602,-0.00354,-0.041475,-0.32841,0.0,0.0,0.0,0,0
2026-06-16 15:57:50.849,1484028,R_Hip,0.0476,0.0079,0.989,0.28,-1.57,1.78,-18.51,29.82,-32.82,0.943602,-0.00351,-0.041475,-0.32841,0.0,0.0,0.0,0,0
2026-06-16 15:57:50.851,1484048,R_Hip,0.0451,0.001,0.9905,0.29,-1.57,1.77,-19.05,28.54,-32.65,0.943602,-0.00351,-0.041475,-0.32841,0.0,0.0,0.0,0,0
2026-06-16 15:57:50.854,1483995,R_Ankle,0.017,-0.0111,1.0101,0.77,-1.73,-0.48,-13.76,32.87,-26.06,0.101993,0.085849,0.02945,0.990631,0.0,0.0,0.0,0,0
2026-06-16 15:57:50.856,1484134,L_Hip,0.0974,-0.0577,0.9924,-4.03,4.45,3.93,2.35,29.21,-28.78,0.993988,-0.024323,-0.071871,0.07889,0.0,0.0,0.0,0,0
2026-06-16 15:57:50.860,1484015,R_Ankle,0.0165,-0.0057,1.0053,0.76,-1.73,-0.5,0.0,0.0,0.0,0.101993,0.085818,0.02945,0.990631,0.0,0.0,0.0,0,0
2026-06-16 15:57:50.860,1484154,L_Hip,0.0906,-0.0916,0.9996,-4.09,4.46,3.82,0.0,0.0,0.0,0.994049,-0.024445,-0.07181,0.077944,0.0,0.0,0.0,0,0
2026-06-16 15:57:50.864,1484035,R_Ankle,0.0135,-0.0136,1.0067,0.77,-1.72,-0.51,-13.59,33.99,-26.53,0.101993,0.085849,0.02945,0.990631,0.0,0.0,0.0,0,0
2026-06-16 15:57:50.865,1484174,L_Hip,0.1156,-0.0902,0.9929,-4.08,4.47,3.77,2.03,30.49,-28.2,0.99414,-0.024567,-0.071657,0.076968,0.0,0.0,0.0,0,0
2026-06-16 15:57:50.867,1484055,R_Ankle,0.0091,-0.0195,1.0053,0.77,-1.74,-0.49,-13.74,34.77,-25.15,0.101993,0.085849,0.02945,0.990631,0.0,0.0,0.0,0,0
2026-06-16 15:57:50.869,1484194,L_Hip,0.1161,-0.0892,0.9875,-4.03,4.44,3.59,1.86,30.65,-28.34,0.994171,-0.024506,-0.071566,0.076601,0.0,0.0,0.0,0,0
2026-06-16 15:57:50.871,1484012,R_Hip,0.0441,0.0079,0.9991,0.27,-1.56,1.79,-18.87,29.45,-32.82,0.943602,-0.00354,-0.041475,-0.32841,0.0,0.0,0.0,0,0
2026-06-16 15:57:50.872,1484136,L_Shank,-0.7878,0.6512,0.1691,0.65,-1.06,-2.04,13.25,-42.41,-20.07,0.579424,0.644612,0.141911,-0.478072,0.0,0.0,0.0,0,0
2026-06-16 15:57:50.874,1484032,R_Hip,0.0431,0.0054,0.989,0.27,-1.57,1.77,0.0,0.0,0.0,0.943602,-0.00354,-0.041475,-0.328379,0.0,0.0,0.0,0,0
2026-06-16 15:57:50.876,1484156,L_Shank,-1.2276,0.2774,0.5722,1.12,-0.79,-2.23,14.13,-41.21,-20.56,0.581408,0.642476,0.144841,-0.477645,0.0,0.0,0.0,0,0
2026-06-16 15:57:50.877,1484052,R_Hip,0.0456,0.002,0.9722,0.26,-1.57,1.77,-18.69,28.54,-32.31,0.943602,-0.00354,-0.041475,-0.328379,0.0,0.0,0.0,0,0
2026-06-16 15:57:50.878,1484176,L_Shank,-0.9637,0.5411,0.3433,5.37,0.83,-1.4,0.0,0.0,0.0,0.583544,0.63979,0.14771,-0.477767,0.0,0.0,0.0,0,0
2026-06-16 15:57:50.881,1484072,R_Hip,0.0377,0.003,1.0049,0.27,-1.58,1.77,-18.51,29.45,-32.48,0.943602,-0.00354,-0.041475,-0.328379,0.0,0.0,0.0,0,0
2026-06-16 15:57:50.883,1484196,L_Shank,-0.8118,0.4765,0.4815,12.05,-4.7,-1.48,12.22,-41.36,-21.94,0.585711,0.636952,0.149174,-0.478469,0.0,0.0,0.0,0,0
2026-06-16 15:57:50.884,1484017,R_Ankle,0.0116,-0.0062,0.9952,0.77,-1.73,-0.49,-11.71,33.2,-25.73,0.101993,0.085849,0.02945,0.990631,0.0,0.0,0.0,0,0
2026-06-16 15:57:50.887,1484146,L_Ankle,0.1124,0.0149,0.975,5.39,-0.83,-10.3,-19.57,2.15,-42.41,0.997192,0.023164,-0.069521,0.014069,0.0,0.0,0.0,0,0
2026-06-16 15:57:50.889,1484037,R_Ankle,0.0042,-0.0161,0.9909,0.75,-1.74,-0.48,0.0,0.0,0.0,0.101993,0.085849,0.02945,0.990631,0.0,0.0,0.0,0,0
2026-06-16 15:57:50.891,1484166,L_Ankle,0.1119,0.0192,0.9957,5.39,-0.83,-10.3,0.0,0.0,0.0,0.997192,0.023164,-0.069521,0.014069,0.0,0.0,0.0,0,0
2026-06-16 15:57:50.894,1484057,R_Ankle,0.0081,-0.0195,1.0096,0.75,-1.74,-0.48,-14.44,33.5,-26.07,0.101962,0.085849,0.02945,0.990631,0.0,0.0,0.0,0,0
2026-06-16 15:57:50.894,1484186,L_Ankle,0.1138,0.0173,0.9866,5.4,-0.85,-10.3,-19.59,2.86,-42.75,0.997192,0.023164,-0.069521,0.014069,0.0,0.0,0.0,0,0
2026-06-16 15:57:50.897,1484077,R_Ankle,0.0111,-0.0116,1.0,0.77,-1.73,-0.49,-13.76,33.18,-25.75,0.101962,0.085818,0.02942,0.990631,0.0,0.0,0.0,0,0
2026-06-16 15:57:50.897,1484206,L_Ankle,0.1134,0.0183,0.976,5.41,-0.85,-10.29,-18.87,2.14,-42.4,0.997192,0.023133,-0.069521,0.0141,0.0,0.0,0.0,0,0
2026-06-16 15:57:50.900,1484036,R_Shank,0.0384,-2.7732,1.0047,-0.09,-1.46,-8.42,-11.9,26.52,-21.58,0.903714,0.035768,-0.017823,0.426222,0.0,0.0,0.0,0,0
2026-06-16 15:57:50.900,1484161,L_Shank,-1.1343,0.546,-0.0401,-1.41,2.67,-2.96,14.64,-41.06,-19.48,0.588122,0.634114,0.148869,-0.479385,0.0,0.0,0.0,0,0
2026-06-16 15:57:50.903,1484056,R_Shank,0.0404,2.2392,1.0056,-0.09,-1.46,-8.44,-11.4,27.01,-21.43,0.903714,0.035798,-0.017823,0.426222,0.0,0.0,0.0,0,0
2026-06-16 15:57:50.903,1484181,L_Shank,-1.103,0.4296,-0.0285,0.06,4.02,-3.03,13.78,-42.23,-20.23,0.590136,0.631703,0.148259,-0.48027,0.0,0.0,0.0,0,0
2026-06-16 15:57:50.907,1484076,R_Shank,0.0463,1.728,1.009,-0.09,-1.46,-8.42,0.0,0.0,0.0,0.903714,0.035798,-0.017823,0.426222,0.0,0.0,0.0,0,0
2026-06-16 15:57:50.907,1484201,L_Shank,-0.9364,0.4712,0.0501,0.13,1.85,-2.54,0.0,0.0,0.0,0.591815,0.629658,0.147679,-0.481063,0.0,0.0,0.0,0,0
2026-06-16 15:57:50.909,1484221,L_Shank,-0.7986,0.5416,0.1292,-0.02,-0.41,-1.28,13.43,-40.54,-20.25,0.593646,0.627338,0.146672,-0.482162,0.0,0.0,0.0,0,0
2026-06-16 15:57:50.910,1484096,R_Shank,0.0355,-0.8432,1.0052,-0.09,-1.45,-8.41,-12.55,26.19,-22.78,0.903714,0.035798,-0.017823,0.426222,0.0,0.0,0.0,0,0
2026-06-16 15:57:50.913,1484169,L_Ankle,0.1114,0.0266,1.0019,5.4,-0.85,-10.3,-19.57,1.09,-43.44,0.997192,0.023133,-0.069521,0.0141,0.0,0.0,0.0,0,0
2026-06-16 15:57:50.914,1484037,R_Hip,0.0565,0.0093,0.9876,0.25,-1.58,1.79,-19.06,30.0,-33.68,0.943602,-0.003571,-0.041444,-0.32841,0.0,0.0,0.0,0,0
2026-06-16 15:57:50.915,1484189,L_Ankle,0.1173,0.0256,0.9827,5.39,-0.84,-10.29,0.0,0.0,0.0,0.997192,0.023133,-0.069521,0.0141,0.0,0.0,0.0,0,0
2026-06-16 15:57:50.916,1484057,R_Hip,0.0422,0.0045,0.9924,0.25,-1.58,1.77,0.0,0.0,0.0,0.943602,-0.003571,-0.041444,-0.32841,0.0,0.0,0.0,0,0
2026-06-16 15:57:50.918,1484209,L_Ankle,0.1104,0.0183,0.9803,5.39,-0.86,-10.28,-19.4,1.97,-42.92,0.997192,0.023133,-0.069521,0.0141,0.0,0.0,0.0,0,0
2026-06-16 15:57:50.919,1484077,R_Hip,0.0471,0.0089,0.9881,0.27,-1.57,1.77,-19.05,28.9,-32.31,0.943602,-0.003601,-0.041475,-0.32841,0.0,0.0,0.0,0,0
2026-06-16 15:57:50.922,1484229,L_Ankle,0.1045,0.0173,0.9861,5.39,-0.85,-10.29,-19.76,2.69,-42.92,0.997192,0.023133,-0.069521,0.0141,0.0,0.0,0.0,0,0
2026-06-16 15:57:50.924,1484097,R_Hip,0.0456,0.0103,0.989,0.28,-1.57,1.77,-19.96,29.08,-31.8,0.943602,-0.003601,-0.041475,-0.32841,0.0,0.0,0.0,0,0
2026-06-16 15:57:50.926,1484178,L_Hip,0.1112,-0.1108,0.9967,-4.32,4.53,3.22,1.17,29.35,-28.91,0.99414,-0.024476,-0.071535,0.076846,0.0,0.0,0.0,0,0
2026-06-16 15:57:50.927,1484057,R_Shank,0.0345,-0.9728,1.009,-0.09,-1.47,-8.43,-12.55,25.54,-21.88,0.903714,0.035798,-0.017853,0.426222,0.0,0.0,0.0,0,0
2026-06-16 15:57:50.928,1484198,L_Hip,0.0862,-0.0415,0.987,-4.0,4.45,2.99,0.0,0.0,0.0,0.99411,-0.024384,-0.071474,0.077425,0.0,0.0,0.0,0,0
2026-06-16 15:57:50.931,1484077,R_Shank,0.0355,-2.7732,1.0119,-0.09,-1.46,-8.42,-12.62,28.2,-20.65,0.903714,0.035798,-0.017853,0.426222,0.0,0.0,0.0,0,0
2026-06-16 15:57:50.931,1484218,L_Hip,0.0999,-0.0779,0.9745,-4.11,4.51,3.11,1.19,30.32,-28.62,0.994049,-0.024323,-0.071505,0.07828,0.0,0.0,0.0,0,0
2026-06-16 15:57:50.934,1484097,R_Shank,0.0414,-0.3316,1.01,-0.09,-1.46,-8.43,0.0,0.0,0.0,0.903714,0.035798,-0.017853,0.426222,0.0,0.0,0.0,0,0
2026-06-16 15:57:50.934,1484238,L_Hip,0.122,-0.0631,0.9701,-4.03,4.44,3.69,1.15,29.67,-27.16,0.993957,-0.024293,-0.071596,0.079165,0.0,0.0,0.0,0,0
2026-06-16 15:57:50.938,1484201,L_Hip,0.0999,-0.0813,0.9967,-3.9,4.41,4.61,1.16,29.67,-27.45,0.993896,-0.024171,-0.071627,0.079989,0.0,0.0,0.0,0,0
2026-06-16 15:57:50.938,1484117,R_Shank,0.0365,2.1096,1.0066,-0.09,-1.46,-8.43,-14.06,25.08,-21.42,0.903714,0.035829,-0.017823,0.426222,0.0,0.0,0.0,0,0
2026-06-16 15:57:50.941,1484221,L_Hip,0.1283,-0.0764,0.9793,-3.94,4.38,4.69,0.0,0.0,0.0,0.993835,-0.02411,-0.071657,0.080752,0.0,0.0,0.0,0,0
2026-06-16 15:57:50.942,1484080,R_Shank,0.0414,-0.0724,0.9999,-0.09,-1.47,-8.42,-14.11,27.06,-21.1,0.903714,0.035829,-0.017853,0.426222,0.0,0.0,0.0,0,0
2026-06-16 15:57:50.944,1484241,L_Hip,0.1225,-0.073,0.9633,-3.94,4.42,4.48,2.34,29.53,-27.62,0.993805,-0.02411,-0.071566,0.081454,0.0,0.0,0.0,0,0
2026-06-16 15:57:50.944,1484100,R_Shank,0.0365,-2.7732,1.0133,-0.09,-1.46,-8.43,0.0,0.0,0.0,0.903714,0.035829,-0.017853,0.426222,0.0,0.0,0.0,0,0
2026-06-16 15:57:50.947,1484202,L_Hip,0.1279,-0.0995,1.0011,-4.22,4.51,3.29,2.2,29.37,-29.5,0.993744,-0.024049,-0.071566,0.082064,0.0,0.0,0.0,0,0
2026-06-16 15:57:50.948,1484120,R_Shank,0.0399,-2.514,1.0114,-0.07,-1.47,-8.41,-12.2,25.2,-22.19,0.903714,0.035859,-0.017853,0.426222,0.0,0.0,0.0,0,0
2026-06-16 15:57:50.951,1484211,L_Shank,-0.7951,0.5406,0.1077,0.32,-1.19,-0.73,13.96,-41.04,-20.41,0.595325,0.625172,0.145116,-0.483352,0.0,0.0,0.0,0,0
2026-06-16 15:57:50.951,1484140,R_Shank,0.0345,-2.6436,1.008,-0.09,-1.47,-8.41,-12.74,26.05,-20.52,0.903714,0.035859,-0.017823,0.426252,0.0,0.0,0.0,0,0
2026-06-16 15:57:50.954,1484231,L_Shank,-0.7707,0.5397,0.0966,0.42,-1.26,-0.75,14.65,-41.39,-20.1,0.596637,0.623341,0.143437,-0.484603,0.0,0.0,0.0,0,0
2026-06-16 15:57:50.955,1484086,R_Ankle,0.0106,-0.0101,0.9899,0.77,-1.73,-0.49,-14.27,33.02,-25.29,0.101993,0.085818,0.02942,0.990631,0.0,0.0,0.0,0,0
2026-06-16 15:57:50.956,1484251,L_Shank,-0.7795,0.5367,0.1033,0.75,-0.74,-0.83,15.35,-42.07,-20.1,0.597644,0.621754,0.142186,-0.485763,0.0,0.0,0.0,0,0
2026-06-16 15:57:50.958,1484271,L_Shank,-0.8254,0.5191,0.1168,0.76,-0.8,-0.77,0.0,0.0,0.0,0.598132,0.620655,0.142094,-0.486618,0.0,0.0,0.0,0,0
2026-06-16 15:57:50.959,1484106,R_Ankle,0.0028,-0.0106,1.0134,0.76,-1.74,-0.5,0.0,0.0,0.0,0.101993,0.085818,0.02942,0.990631,0.0,0.0,0.0,0,0
2026-06-16 15:57:50.961,1484214,L_Ankle,0.1119,0.0246,0.9813,5.39,-0.83,-10.29,-19.59,2.86,-42.75,0.997192,0.023103,-0.069552,0.01413,0.0,0.0,0.0,0,0
2026-06-16 15:57:50.962,1484126,R_Ankle,0.0155,-0.0027,1.0014,0.77,-1.74,-0.5,-12.56,32.38,-24.34,0.101993,0.085818,0.02945,0.990631,0.0,0.0,0.0,0,0
2026-06-16 15:57:50.964,1484234,L_Ankle,0.1227,0.0173,0.9933,5.39,-0.84,-10.31,0.0,0.0,0.0,0.997192,0.023133,-0.069521,0.01413,0.0,0.0,0.0,0,0
2026-06-16 15:57:50.965,1484146,R_Ankle,0.015,-0.0086,1.0153,0.77,-1.74,-0.49,-14.6,34.29,-25.93,0.101993,0.085849,0.02945,0.990631,0.0,0.0,0.0,0,0
2026-06-16 15:57:50.967,1484254,L_Ankle,0.1143,0.0207,0.9789,5.39,-0.83,-10.31,-18.56,2.84,-43.75,0.997192,0.023133,-0.069521,0.01413,0.0,0.0,0.0,0,0
2026-06-16 15:57:50.968,1484087,R_Hip,0.0481,0.0128,0.9982,0.25,-1.57,1.77,-19.23,28.72,-31.45,0.943602,-0.003601,-0.041505,-0.32841,0.0,0.0,0.0,0,0
2026-06-16 15:57:50.970,1484274,L_Ankle,0.1129,0.029,0.9981,5.39,-0.84,-10.3,-19.22,1.44,-42.75,0.997192,0.023103,-0.069491,0.01413,0.0,0.0,0.0,0,0
2026-06-16 15:57:50.972,1484107,R_Hip,0.0471,0.0074,0.9948,0.27,-1.58,1.77,0.0,0.0,0.0,0.943602,-0.00354,-0.041505,-0.32841,0.0,0.0,0.0,0,0
2026-06-16 15:57:50.974,1484224,L_Hip,0.1117,-0.0848,0.9788,-4.35,4.6,1.51,0.69,30.47,-28.76,0.993713,-0.024079,-0.071535,0.082614,0.0,0.0,0.0,0,0
2026-06-16 15:57:50.975,1484127,R_Hip,0.0372,0.0132,0.9881,0.27,-1.57,1.79,-18.87,27.62,-31.45,0.943602,-0.00354,-0.041536,-0.32841,0.0,0.0,0.0,0,0
2026-06-16 15:57:50.977,1484244,L_Hip,0.118,-0.0793,0.9967,-4.38,4.68,1.38,0.0,0.0,0.0,0.993683,-0.024049,-0.071566,0.08298,0.0,0.0,0.0,0,0
2026-06-16 15:57:50.979,1484147,R_Hip,0.0456,0.0235,1.0006,0.27,-1.58,1.79,-17.41,29.45,-32.48,0.943602,-0.00354,-0.041536,-0.32841,0.0,0.0,0.0,0,0
2026-06-16 15:57:50.980,1484264,L_Hip,0.0965,-0.0902,0.9609,-4.32,4.67,1.37,0.7,30.79,-29.05,0.993652,-0.024079,-0.071627,0.083224,0.0,0.0,0.0,0,0
2026-06-16 15:57:50.981,1484107,R_Ankle,0.0091,-0.0141,1.0081,0.77,-1.73,-0.49,-14.11,33.51,-26.68,0.101993,0.085849,0.02945,0.990631,0.0,0.0,0.0,0,0
2026-06-16 15:57:50.985,1484284,L_Hip,0.0724,-0.0366,0.9982,-4.23,4.53,1.9,1.69,30.81,-27.61,0.993652,-0.02411,-0.071566,0.083254,0.0,0.0,0.0,0,0
2026-06-16 15:57:50.986,1484127,R_Ankle,0.0145,-0.0185,1.0105,0.77,-1.72,-0.48,0.0,0.0,0.0,0.101993,0.085818,0.02945,0.990631,0.0,0.0,0.0,0,0
2026-06-16 15:57:50.988,1484260,L_Ankle,0.1109,0.0158,0.9866,5.4,-0.85,-10.29,-18.17,3.2,-41.36,0.997192,0.023072,-0.069521,0.014161,0.0,0.0,0.0,0,0
2026-06-16 15:57:50.989,1484147,R_Ankle,0.013,-0.0007,1.0101,0.77,-1.72,-0.49,-14.26,33.97,-25.3,0.101993,0.085818,0.02942,0.990631,0.0,0.0,0.0,0,0
2026-06-16 15:57:50.991,1484280,L_Ankle,0.1143,0.0251,0.9746,5.4,-0.84,-10.29,0.0,0.0,0.0,0.997192,0.023072,-0.069491,0.014161,0.0,0.0,0.0,0,0
