python_time,esp32_hw_time,sensor_name,ax,ay,az,gx,gy,gz,mx,my,mz,q0,q1,q2,q3,quat_roll,quat_pitch,quat_yaw,is_paused_flag,t_pose_flag
2026-06-16 16:24:43.096,93213,L_Hip,0.1112,-0.0759,0.9846,0.19,-0.25,0.77,-28.73,20.91,-35.25,0.990661,-0.033357,-0.063692,-0.115604,0.0,0.0,0.0,0,0
2026-06-16 16:24:43.099,93184,L_Shank,0.0189,-0.0102,0.981,1.7,-0.74,-0.4,-0.19,12.1,-34.68,0.999298,-0.002289,-0.035493,0.009247,0.0,0.0,0.0,0,0
2026-06-16 16:24:43.102,93204,L_Shank,0.0248,-0.0107,0.959,1.7,-0.74,-0.38,-1.42,11.24,-34.19,0.999298,-0.002319,-0.035432,0.009247,0.0,0.0,0.0,0,0
2026-06-16 16:24:43.105,93224,L_Shank,0.0189,-0.0082,0.9863,1.7,-0.74,-0.39,-1.24,11.08,-34.65,0.999298,-0.002319,-0.035463,0.009247,0.0,0.0,0.0,0,0
2026-06-16 16:24:43.108,93244,L_Shank,0.0199,-0.0033,0.9734,1.69,-0.74,-0.4,0.0,0.0,0.0,0.999298,-0.002289,-0.035463,0.009247,0.0,0.0,0.0,0,0
2026-06-16 16:24:43.111,93202,L_Ankle,0.0913,0.0149,0.9909,-0.67,-0.36,-1.93,-18.08,23.61,-28.2,0.987335,0.029145,-0.056246,0.145299,0.0,0.0,0.0,0,0
2026-06-16 16:24:43.114,93222,L_Ankle,0.0928,0.0202,0.9789,-0.68,-0.35,-1.93,0.0,0.0,0.0,0.987335,0.029115,-0.056246,0.145299,0.0,0.0,0.0,0,0
2026-06-16 16:24:43.117,93242,L_Ankle,0.0982,0.0139,0.9837,-0.67,-0.36,-1.93,-17.41,25.73,-28.18,0.987335,0.029115,-0.056246,0.145299,0.0,0.0,0.0,0,0
2026-06-16 16:24:43.120,93262,L_Ankle,0.0942,0.0197,0.9914,-0.67,-0.35,-1.93,-19.14,23.63,-28.9,0.987335,0.029115,-0.056246,0.145299,0.0,0.0,0.0,0,0
2026-06-16 16:24:43.123,93207,L_Hip,0.1117,-0.0666,0.9745,0.19,-0.25,0.78,-28.89,21.39,-35.11,0.990661,-0.033357,-0.063723,-0.115635,0.0,0.0,0.0,0,0
2026-06-16 16:24:43.126,93227,L_Hip,0.1058,-0.0646,0.9832,0.19,-0.25,0.78,-27.56,21.73,-33.97,0.990661,-0.033387,-0.063692,-0.115604,0.0,0.0,0.0,0,0
2026-06-16 16:24:43.127,93247,L_Hip,0.1112,-0.0725,0.9788,0.2,-0.25,0.77,0.0,0.0,0.0,0.990661,-0.033387,-0.063692,-0.115604,0.0,0.0,0.0,0,0
2026-06-16 16:24:43.129,93267,L_Hip,0.1151,-0.0739,0.9929,0.19,-0.25,0.8,-29.23,21.06,-35.39,0.990661,-0.033387,-0.063692,-0.115604,0.0,0.0,0.0,0,0
2026-06-16 16:24:43.131,93225,L_Ankle,0.0977,0.0144,0.987,-0.67,-0.35,-1.93,-18.98,25.22,-28.38,0.987335,0.029084,-0.056276,0.145299,0.0,0.0,0.0,0,0
2026-06-16 16:24:43.133,93245,L_Ankle,0.0987,0.0246,0.9962,-0.67,-0.35,-1.93,0.0,0.0,0.0,0.987335,0.029115,-0.056246,0.145299,0.0,0.0,0.0,0,0
2026-06-16 16:24:43.135,93265,L_Ankle,0.0923,0.0168,0.9789,-0.67,-0.36,-1.93,-19.14,23.27,-28.9,0.987335,0.029084,-0.056246,0.145299,0.0,0.0,0.0,0,0
2026-06-16 16:24:43.142,93285,L_Ankle,0.1031,0.0163,0.9909,-0.67,-0.35,-1.92,-17.58,24.49,-28.7,0.987335,0.029115,-0.056276,0.145268,0.0,0.0,0.0,0,0
2026-06-16 16:24:43.145,93232,L_Hip,0.1171,-0.071,0.9875,0.19,-0.25,0.79,-29.09,20.58,-34.09,0.990661,-0.033387,-0.063692,-0.115604,0.0,0.0,0.0,0,0
2026-06-16 16:24:43.148,93252,L_Hip,0.0994,-0.0705,0.9895,0.18,-0.25,0.8,-30.1,20.56,-34.36,0.990661,-0.033418,-0.063692,-0.115604,0.0,0.0,0.0,0,0
2026-06-16 16:24:43.152,93272,L_Hip,0.1166,-0.0646,0.9798,0.19,-0.25,0.78,0.0,0.0,0.0,0.990661,-0.033418,-0.063692,-0.115604,0.0,0.0,0.0,0,0
2026-06-16 16:24:43.157,93292,L_Hip,0.1171,-0.0681,0.9749,0.19,-0.25,0.77,-29.05,21.23,-36.12,0.990661,-0.033448,-0.063662,-0.115604,0.0,0.0,0.0,0,0
2026-06-16 16:24:43.160,93252,L_Shank,0.0223,-0.0107,0.9897,1.69,-0.74,-0.4,0.68,11.59,-35.14,0.999298,-0.002289,-0.035463,0.009247,0.0,0.0,0.0,0,0
2026-06-16 16:24:43.169,93272,L_Shank,0.0272,-0.0023,0.9714,1.7,-0.74,-0.38,0.32,10.57,-34.5,0.999298,-0.002289,-0.035463,0.009247,0.0,0.0,0.0,0,0
2026-06-16 16:24:43.171,93292,L_Shank,0.0292,-0.0058,0.9777,1.7,-0.74,-0.39,-0.02,11.24,-34.2,0.999298,-0.002289,-0.035463,0.009247,0.0,0.0,0.0,0,0
2026-06-16 16:24:43.175,93312,L_Shank,0.0228,-0.0082,0.9738,1.7,-0.73,-0.39,0.13,12.07,-33.12,0.999298,-0.002289,-0.035463,0.009278,0.0,0.0,0.0,0,0
2026-06-16 16:24:43.177,93275,L_Shank,0.0194,-0.0033,0.9906,1.68,-0.72,-0.39,0.16,10.42,-36.21,0.999298,-0.002289,-0.035493,0.009278,0.0,0.0,0.0,0,0
2026-06-16 16:24:43.180,93295,L_Shank,0.0233,-0.0092,0.9815,1.68,-0.72,-0.39,0.0,0.0,0.0,0.999298,-0.002258,-0.035493,0.009278,0.0,0.0,0.0,0,0
2026-06-16 16:24:43.182,93315,L_Shank,0.0277,-0.0126,0.9782,1.69,-0.74,-0.4,-0.89,9.71,-34.33,0.999298,-0.002289,-0.035493,0.009278,0.0,0.0,0.0,0,0
2026-06-16 16:24:43.184,93335,L_Shank,0.036,-0.0048,0.9786,1.7,-0.74,-0.4,-0.37,10.56,-34.19,0.999298,-0.002289,-0.035493,0.009278,0.0,0.0,0.0,0,0
2026-06-16 16:24:43.187,93282,L_Hip,0.1107,-0.0725,0.9972,0.2,-0.24,0.79,-28.91,20.74,-35.11,0.990661,-0.033448,-0.063662,-0.115604,0.0,0.0,0.0,0,0
2026-06-16 16:24:43.189,93302,L_Hip,0.1126,-0.0646,0.989,0.19,-0.25,0.77,-29.26,21.06,-33.94,0.990661,-0.033448,-0.063662,-0.115604,0.0,0.0,0.0,0,0
2026-06-16 16:24:43.191,93322,L_Hip,0.1087,-0.072,0.989,0.19,-0.24,0.8,-29.9,21.69,-35.09,0.990661,-0.033448,-0.063692,-0.115574,0.0,0.0,0.0,0,0
2026-06-16 16:24:43.193,93342,L_Hip,0.1087,-0.0597,0.9851,0.19,-0.23,0.77,0.0,0.0,0.0,0.990661,-0.033448,-0.063692,-0.115574,0.0,0.0,0.0,0,0
2026-06-16 16:24:43.196,93292,L_Ankle,0.0996,0.0251,0.9803,-0.67,-0.37,-1.91,-18.07,22.9,-28.2,0.987335,0.029084,-0.056276,0.145268,0.0,0.0,0.0,0,0
2026-06-16 16:24:43.198,93312,L_Ankle,0.0908,0.0251,0.9966,-0.66,-0.36,-1.91,0.0,0.0,0.0,0.987335,0.029115,-0.056276,0.145268,0.0,0.0,0.0,0,0
2026-06-16 16:24:43.200,93332,L_Ankle,0.0957,0.0202,0.9923,-0.67,-0.37,-1.91,-18.48,24.32,-30.24,0.987335,0.029084,-0.056307,0.145299,0.0,0.0,0.0,0,0
2026-06-16 16:24:43.202,93352,L_Ankle,0.0972,0.0168,0.9794,-0.67,-0.35,-1.91,-18.59,23.44,-27.7,0.987335,0.029115,-0.056307,0.145299,0.0,0.0,0.0,0,0
2026-06-16 16:24:43.204,93297,L_Shank,0.0316,-0.0028,0.9834,1.7,-0.74,-0.4,0.31,12.26,-33.91,0.999298,-0.002319,-0.035493,0.009278,0.0,0.0,0.0,0,0
2026-06-16 16:24:43.206,93317,L_Shank,0.0292,-0.0023,0.9873,1.68,-0.74,-0.42,0.0,0.0,0.0,0.999298,-0.002319,-0.035493,0.009278,0.0,0.0,0.0,0,0
2026-06-16 16:24:43.208,93337,L_Shank,0.0287,0.0039,0.9772,1.7,-0.74,-0.4,-0.53,10.75,-35.28,0.999298,-0.002289,-0.035493,0.009278,0.0,0.0,0.0,0,0
2026-06-16 16:24:43.209,93357,L_Shank,0.0301,0.0015,0.9902,1.7,-0.73,-0.39,0.49,10.73,-33.73,0.999298,-0.002289,-0.035524,0.009278,0.0,0.0,0.0,0,0
2026-06-16 16:24:43.212,93307,L_Hip,0.1082,-0.0676,0.9885,0.19,-0.24,0.79,-29.05,21.55,-35.83,0.990661,-0.033448,-0.063662,-0.115574,0.0,0.0,0.0,0,0
2026-06-16 16:24:43.214,93327,L_Hip,0.1063,-0.0715,0.9924,0.19,-0.24,0.77,-28.74,20.91,-34.96,0.990661,-0.033448,-0.063662,-0.115574,0.0,0.0,0.0,0,0
2026-06-16 16:24:43.216,93347,L_Hip,0.1102,-0.0774,0.9841,0.2,-0.25,0.78,0.0,0.0,0.0,0.990661,-0.033418,-0.063631,-0.115574,0.0,0.0,0.0,0,0
2026-06-16 16:24:43.218,93367,L_Hip,0.1117,-0.0666,0.9929,0.21,-0.25,0.8,-29.24,20.42,-35.39,0.990692,-0.033418,-0.063631,-0.115574,0.0,0.0,0.0,0,0
2026-06-16 16:24:43.220,93315,L_Ankle,0.0977,0.0212,0.9851,-0.67,-0.36,-1.92,-18.99,24.51,-29.06,0.987335,0.029115,-0.056337,0.145299,0.0,0.0,0.0,0,0
2026-06-16 16:24:43.222,93335,L_Ankle,0.0957,0.0114,0.9918,-0.66,-0.35,-1.9,0.0,0.0,0.0,0.987335,0.029145,-0.056337,0.145299,0.0,0.0,0.0,0,0
2026-06-16 16:24:43.224,93355,L_Ankle,0.0928,0.0212,0.9957,-0.67,-0.35,-1.91,-16.88,23.41,-29.71,0.987335,0.029145,-0.056337,0.145299,0.0,0.0,0.0,0,0
2026-06-16 16:24:43.226,93375,L_Ankle,0.0913,0.0227,0.9957,-0.67,-0.35,-1.92,-18.6,23.44,-28.04,0.987335,0.029145,-0.056337,0.145299,0.0,0.0,0.0,0,0
2026-06-16 16:24:43.228,93320,L_Shank,0.0238,-0.0107,0.9887,1.69,-0.73,-0.39,-0.01,9.9,-35.12,0.999298,-0.002258,-0.035554,0.009278,0.0,0.0,0.0,0,0
2026-06-16 16:24:43.230,93340,L_Shank,0.0257,-0.0077,0.9791,1.69,-0.73,-0.41,0.0,0.0,0.0,0.999298,-0.002258,-0.035524,0.009278,0.0,0.0,0.0,0,0
2026-06-16 16:24:43.232,93360,L_Shank,0.0252,0.0,0.9825,1.69,-0.74,-0.41,0.49,11.75,-34.06,0.999298,-0.002258,-0.035524,0.009278,0.0,0.0,0.0,0,0
2026-06-16 16:24:43.234,93380,L_Shank,0.0257,-0.0107,0.9834,1.69,-0.74,-0.38,0.67,10.56,-34.2,0.999298,-0.002289,-0.035554,0.009278,0.0,0.0,0.0,0,0
2026-06-16 16:24:43.260,93357,L_Hip,0.1156,-0.0739,0.9822,0.19,-0.25,0.79,-28.24,20.76,-34.83,0.990692,-0.033448,-0.063631,-0.115574,0.0,0.0,0.0,0,0
2026-06-16 16:24:43.262,93377,L_Hip,0.1073,-0.0681,0.9914,0.19,-0.25,0.77,-28.9,20.42,-35.98,0.990692,-0.033448,-0.063631,-0.115543,0.0,0.0,0.0,0,0
2026-06-16 16:24:43.264,93397,L_Hip,0.12,-0.0646,0.9895,0.2,-0.25,0.78,-29.06,21.23,-35.54,0.990692,-0.033448,-0.063631,-0.115543,0.0,0.0,0.0,0,0
2026-06-16 16:24:43.267,93417,L_Hip,0.121,-0.0651,0.9793,0.19,-0.24,0.8,-30.42,20.56,-35.52,0.990692,-0.033448,-0.063631,-0.115543,0.0,0.0,0.0,0,0
2026-06-16 16:24:43.269,93360,L_Ankle,0.0849,0.0158,0.9899,-0.67,-0.36,-1.94,-18.44,24.68,-27.52,0.987335,0.029145,-0.056337,0.145299,0.0,0.0,0.0,0,0
2026-06-16 16:24:43.271,93380,L_Ankle,0.0879,0.0183,0.999,-0.67,-0.36,-1.92,0.0,0.0,0.0,0.987335,0.029145,-0.056337,0.145299,0.0,0.0,0.0,0,0
2026-06-16 16:24:43.273,93400,L_Ankle,0.0957,0.0105,0.9794,-0.67,-0.35,-1.9,-19.33,24.16,-29.07,0.987335,0.029145,-0.056337,0.145299,0.0,0.0,0.0,0,0
2026-06-16 16:24:43.275,93420,L_Ankle,0.0996,0.0222,0.9942,-0.67,-0.35,-1.92,-17.73,23.96,-27.85,0.987335,0.029145,-0.056307,0.145299,0.0,0.0,0.0,0,0
2026-06-16 16:24:43.283,93382,L_Hip,0.1112,-0.0676,0.9846,0.2,-0.25,0.77,-28.24,20.75,-34.53,0.990692,-0.033448,-0.063631,-0.115543,0.0,0.0,0.0,0,0
2026-06-16 16:24:43.285,93402,L_Hip,0.1043,-0.0607,0.9895,0.19,-0.25,0.77,-29.23,21.7,-34.52,0.990692,-0.033448,-0.063662,-0.115543,0.0,0.0,0.0,0,0
2026-06-16 16:24:43.287,93422,L_Hip,0.1077,-0.0636,0.9769,0.19,-0.25,0.77,-28.2,22.37,-35.12,0.990692,-0.033418,-0.063631,-0.115543,0.0,0.0,0.0,0,0
2026-06-16 16:24:43.290,93442,L_Hip,0.1122,-0.0671,0.9962,0.19,-0.25,0.78,-28.72,22.2,-34.68,0.990692,-0.033418,-0.063631,-0.115543,0.0,0.0,0.0,0,0
2026-06-16 16:24:43.292,93387,L_Shank,0.0204,-0.0058,0.9858,1.69,-0.73,-0.4,-0.2,11.07,-34.35,0.999298,-0.002258,-0.035554,0.009278,0.0,0.0,0.0,0,0
2026-06-16 16:24:43.294,93407,L_Shank,0.016,-0.0033,0.9858,1.7,-0.74,-0.41,0.0,0.0,0.0,0.999298,-0.002258,-0.035554,0.009278,0.0,0.0,0.0,0,0
2026-06-16 16:24:43.296,93427,L_Shank,0.0262,-0.0121,0.994,1.71,-0.73,-0.41,-0.19,10.74,-34.66,0.999298,-0.002258,-0.035524,0.009278,0.0,0.0,0.0,0,0
2026-06-16 16:24:43.298,93447,L_Shank,0.0287,-0.0116,0.9844,1.7,-0.73,-0.41,-1.07,10.9,-33.87,0.999298,-0.002258,-0.035524,0.009278,0.0,0.0,0.0,0,0
2026-06-16 16:24:43.306,93405,L_Ankle,0.0898,0.0158,1.0086,-0.68,-0.35,-1.92,-18.61,23.8,-28.38,0.987335,0.029145,-0.056307,0.145299,0.0,0.0,0.0,0,0
2026-06-16 16:24:43.308,93425,L_Ankle,0.0923,0.0144,0.9837,-0.67,-0.35,-1.91,-20.36,24.18,-28.07,0.987335,0.029145,-0.056307,0.145299,0.0,0.0,0.0,0,0
2026-06-16 16:24:43.310,93445,L_Ankle,0.0996,0.0241,0.9866,-0.67,-0.36,-1.93,0.0,0.0,0.0,0.987335,0.029145,-0.056307,0.145299,0.0,0.0,0.0,0,0
2026-06-16 16:24:43.311,93465,L_Ankle,0.0908,0.0207,0.9866,-0.67,-0.34,-1.93,-18.44,23.97,-28.54,0.987335,0.029145,-0.056307,0.145268,0.0,0.0,0.0,0,0
2026-06-16 16:24:43.328,93427,L_Ankle,0.0908,0.029,0.9899,-0.67,-0.36,-1.93,-19.65,23.1,-28.4,0.987335,0.029145,-0.056276,0.145268,0.0,0.0,0.0,0,0
2026-06-16 16:24:43.330,93447,L_Ankle,0.0933,0.0119,0.9928,-0.67,-0.35,-1.92,-19.32,23.81,-29.07,0.987335,0.029145,-0.056276,0.145268,0.0,0.0,0.0,0,0
2026-06-16 16:24:43.331,93467,L_Ankle,0.1016,0.0192,0.975,-0.67,-0.38,-1.93,0.0,0.0,0.0,0.987335,0.029145,-0.056276,0.145268,0.0,0.0,0.0,0,0
2026-06-16 16:24:43.333,93487,L_Ankle,0.0869,0.0178,0.9894,-0.67,-0.35,-1.93,-19.16,24.33,-29.24,0.987335,0.029145,-0.056276,0.145268,0.0,0.0,0.0,0,0
2026-06-16 16:24:43.335,93432,L_Hip,0.1058,-0.071,0.9885,0.19,-0.24,0.77,-29.73,22.18,-34.66,0.990692,-0.033418,-0.063601,-0.115543,0.0,0.0,0.0,0,0
2026-06-16 16:24:43.337,93452,L_Hip,0.1092,-0.0735,0.9817,0.18,-0.24,0.79,0.0,0.0,0.0,0.990692,-0.033418,-0.063601,-0.115543,0.0,0.0,0.0,0,0
2026-06-16 16:24:43.339,93472,L_Hip,0.1171,-0.0685,0.9846,0.19,-0.24,0.79,-29.59,20.73,-34.8,0.990692,-0.033418,-0.06357,-0.115543,0.0,0.0,0.0,0,0
2026-06-16 16:24:43.341,93492,L_Hip,0.1112,-0.0759,0.9817,0.19,-0.25,0.78,-28.71,21.56,-35.55,0.990692,-0.033418,-0.06357,-0.115513,0.0,0.0,0.0,0,0
2026-06-16 16:24:43.356,93456,L_Shank,0.0257,-0.0107,0.9734,1.68,-0.74,-0.38,0.14,11.07,-34.04,0.999298,-0.002258,-0.035493,0.009278,0.0,0.0,0.0,0,0
2026-06-16 16:24:43.358,93476,L_Shank,0.0292,-0.0077,0.9647,1.68,-0.72,-0.4,0.0,0.0,0.0,0.999298,-0.002258,-0.035524,0.009278,0.0,0.0,0.0,0,0
2026-06-16 16:24:43.360,93496,L_Shank,0.0301,-0.0092,0.9887,1.68,-0.73,-0.4,0.5,11.42,-34.67,0.999298,-0.002258,-0.035493,0.009278,0.0,0.0,0.0,0,0
2026-06-16 16:24:43.361,93516,L_Shank,0.0208,-0.0058,0.995,1.68,-0.73,-0.4,0.15,10.06,-34.65,0.999298,-0.002258,-0.035493,0.009278,0.0,0.0,0.0,0,0
2026-06-16 16:24:43.369,3096491,R_Hip,0.0397,0.0069,0.99,0.37,-0.29,9.37,-22.7,12.47,-37.4,0.996918,0.00528,-0.038148,-0.067904,0.0,0.0,0.0,0,0
2026-06-16 16:24:43.371,3096511,R_Hip,0.0397,-0.0037,0.9876,0.38,-0.29,9.37,-24.89,12.11,-37.75,0.996918,0.00528,-0.038148,-0.067934,0.0,0.0,0.0,0,0
2026-06-16 16:24:43.372,3096531,R_Hip,0.0367,0.0059,0.9722,0.38,-0.3,9.35,-24.89,13.21,-37.75,0.996918,0.00531,-0.038179,-0.067904,0.0,0.0,0.0,0,0
2026-06-16 16:24:43.374,3096551,R_Hip,0.0377,0.0103,0.99,0.38,-0.31,9.35,-21.97,13.94,-38.09,0.996918,0.00531,-0.038179,-0.067934,0.0,0.0,0.0,0,0
2026-06-16 16:24:43.376,3096492,R_Shank,-0.0989,1.346,1.009,-0.03,-0.9,-1.56,-13.41,6.34,-46.88,0.919065,0.024659,0.020478,-0.392743,0.0,0.0,0.0,0,0
2026-06-16 16:24:43.377,3096512,R_Shank,-0.0906,-2.7664,0.9946,-0.02,-0.89,-1.57,0.0,0.0,0.0,0.919065,0.024628,0.020478,-0.392743,0.0,0.0,0.0,0,0
2026-06-16 16:24:43.380,93478,L_Shank,0.0208,-0.0131,0.9959,1.68,-0.74,-0.39,0.5,10.4,-34.66,0.999298,-0.002258,-0.035493,0.009278,0.0,0.0,0.0,0,0
2026-06-16 16:24:43.380,3096532,R_Shank,-0.091,2.246,0.9941,-0.03,-0.88,-1.56,-13.87,4.52,-47.34,0.919065,0.024659,0.020478,-0.392743,0.0,0.0,0.0,0,0
2026-06-16 16:24:43.382,93498,L_Shank,0.0262,-0.0004,0.983,1.68,-0.74,-0.41,0.0,0.0,0.0,0.999298,-0.002258,-0.035463,0.009278,0.0,0.0,0.0,0,0
2026-06-16 16:24:43.382,3096552,R_Shank,-0.0881,2.246,0.9989,-0.03,-0.88,-1.56,-13.55,5.51,-47.64,0.919065,0.024659,0.020478,-0.392743,0.0,0.0,0.0,0,0
2026-06-16 16:24:43.384,93518,L_Shank,0.0233,-0.0116,0.982,1.7,-0.73,-0.39,-0.54,10.74,-34.97,0.999298,-0.002258,-0.035493,0.009278,0.0,0.0,0.0,0,0
2026-06-16 16:24:43.385,3096492,R_Ankle,0.0179,-0.0136,1.0153,0.77,-1.74,-0.48,-10.82,11.57,-50.74,0.33021,0.091769,0.007599,0.93939,0.0,0.0,0.0,0,0
2026-06-16 16:24:43.387,93538,L_Shank,0.0233,-0.0102,0.9758,1.68,-0.74,-0.4,0.49,11.41,-34.05,0.999298,-0.002289,-0.035493,0.009278,0.0,0.0,0.0,0,0
2026-06-16 16:24:43.388,3096512,R_Ankle,0.0165,-0.0047,1.011,0.76,-1.74,-0.5,-9.96,11.42,-50.27,0.33021,0.091739,0.007599,0.93939,0.0,0.0,0.0,0,0
2026-06-16 16:24:43.389,93482,L_Hip,0.1166,-0.0676,0.9788,0.19,-0.26,0.78,-27.88,20.77,-35.7,0.990692,-0.033448,-0.06357,-0.115513,0.0,0.0,0.0,0,0
2026-06-16 16:24:43.390,3096532,R_Ankle,0.0219,-0.0111,1.0034,0.77,-1.74,-0.51,-12.17,12.52,-50.77,0.33021,0.091739,0.007599,0.93939,0.0,0.0,0.0,0,0
2026-06-16 16:24:43.392,93502,L_Hip,0.1097,-0.0666,0.9982,0.19,-0.26,0.77,0.0,0.0,0.0,0.990692,-0.033448,-0.06357,-0.115513,0.0,0.0,0.0,0,0
2026-06-16 16:24:43.392,3096552,R_Ankle,0.0219,-0.0072,1.0,0.77,-1.74,-0.5,0.0,0.0,0.0,0.33021,0.091739,0.00763,0.93939,0.0,0.0,0.0,0,0
2026-06-16 16:24:43.395,93522,L_Hip,0.1038,-0.0749,0.9929,0.19,-0.24,0.78,-27.69,21.9,-35.85,0.990692,-0.033448,-0.06357,-0.115513,0.0,0.0,0.0,0,0
2026-06-16 16:24:43.395,3096493,R_Hip,0.0308,0.002,0.9842,0.36,-0.29,9.36,-23.43,14.3,-37.41,0.996918,0.00531,-0.038179,-0.067934,0.0,0.0,0.0,0,0
2026-06-16 16:24:43.398,93542,L_Hip,0.1107,-0.0681,0.9817,0.19,-0.25,0.77,-29.06,20.9,-35.83,0.990692,-0.033448,-0.06357,-0.115513,0.0,0.0,0.0,0,0
2026-06-16 16:24:43.398,3096513,R_Hip,0.0412,-0.0081,0.9847,0.37,-0.29,9.36,-23.79,12.84,-37.75,0.996918,0.00531,-0.038179,-0.067934,0.0,0.0,0.0,0,0
2026-06-16 16:24:43.400,93494,L_Ankle,0.0918,0.0266,0.9846,-0.67,-0.37,-1.92,-17.94,23.07,-30.41,0.987335,0.029115,-0.056307,0.145268,0.0,0.0,0.0,0,0
2026-06-16 16:24:43.400,3096533,R_Hip,0.0377,0.0064,0.9808,0.37,-0.31,9.35,-23.06,12.84,-38.09,0.996918,0.00531,-0.038179,-0.067934,0.0,0.0,0.0,0,0
2026-06-16 16:24:43.402,3096553,R_Hip,0.0427,-0.0003,0.9991,0.37,-0.3,9.36,0.0,0.0,0.0,0.996918,0.00531,-0.038179,-0.067934,0.0,0.0,0.0,0,0
2026-06-16 16:24:43.403,93514,L_Ankle,0.0972,0.0149,0.9914,-0.67,-0.37,-1.93,-17.75,23.6,-29.21,0.987335,0.029115,-0.056276,0.145268,0.0,0.0,0.0,0,0
2026-06-16 16:24:43.405,93534,L_Ankle,0.0898,0.0188,0.9851,-0.67,-0.35,-1.91,0.0,0.0,0.0,0.987335,0.029115,-0.056276,0.145268,0.0,0.0,0.0,0,0
2026-06-16 16:24:43.405,3096502,R_Ankle,0.017,-0.0072,1.0081,0.78,-1.74,-0.51,-10.48,11.26,-51.04,0.33021,0.091739,0.00763,0.93939,0.0,0.0,0.0,0,0
2026-06-16 16:24:43.408,93554,L_Ankle,0.0996,0.0227,0.9942,-0.66,-0.37,-1.93,-18.45,25.03,-28.2,0.987335,0.029115,-0.056307,0.145268,0.0,0.0,0.0,0,0
2026-06-16 16:24:43.408,3096522,R_Ankle,0.0057,-0.0081,1.0014,0.77,-1.74,-0.51,-11.15,11.56,-49.82,0.33021,0.091739,0.00763,0.93939,0.0,0.0,0.0,0,0
2026-06-16 16:24:43.411,93507,L_Hip,0.1215,-0.071,0.9841,0.19,-0.24,0.78,-29.58,20.41,-35.68,0.990692,-0.033448,-0.06357,-0.115513,0.0,0.0,0.0,0,0
2026-06-16 16:24:43.411,3096542,R_Ankle,0.0224,-0.0062,1.0163,0.76,-1.75,-0.5,-10.99,11.1,-50.89,0.33021,0.091739,0.00766,0.93939,0.0,0.0,0.0,0,0
2026-06-16 16:24:43.413,93527,L_Hip,0.1141,-0.0685,0.9924,0.19,-0.24,0.77,0.0,0.0,0.0,0.990692,-0.033448,-0.06354,-0.115513,0.0,0.0,0.0,0,0
2026-06-16 16:24:43.414,3096503,R_Ankle,0.017,-0.0106,1.0163,0.77,-1.74,-0.49,0.0,0.0,0.0,0.33021,0.091739,0.00766,0.93939,0.0,0.0,0.0,0,0
2026-06-16 16:24:43.415,93547,L_Hip,0.1087,-0.0676,0.9749,0.19,-0.25,0.78,-29.25,21.06,-34.52,0.990692,-0.033448,-0.06354,-0.115513,0.0,0.0,0.0,0,0
2026-06-16 16:24:43.416,3096515,R_Hip,0.0348,-0.0013,0.9919,0.38,-0.3,9.37,-23.79,13.57,-38.09,0.996918,0.00531,-0.038179,-0.067934,0.0,0.0,0.0,0,0
2026-06-16 16:24:43.418,93567,L_Hip,0.12,-0.0656,0.9832,0.2,-0.25,0.79,-28.09,19.95,-34.39,0.990692,-0.033448,-0.06357,-0.115513,0.0,0.0,0.0,0,0
2026-06-16 16:24:43.419,3096535,R_Hip,0.0486,0.0054,0.9876,0.38,-0.3,9.36,-23.43,13.57,-38.78,0.996918,0.00531,-0.038179,-0.067934,0.0,0.0,0.0,0,0
2026-06-16 16:24:43.421,93517,L_Ankle,0.0928,0.0241,0.9875,-0.67,-0.35,-1.91,-18.43,23.97,-27.86,0.987335,0.029145,-0.056307,0.145268,0.0,0.0,0.0,0,0
2026-06-16 16:24:43.421,3096555,R_Hip,0.0372,0.0045,0.9828,0.37,-0.3,9.36,-24.52,13.57,-38.78,0.996918,0.00528,-0.038179,-0.067934,0.0,0.0,0.0,0,0
2026-06-16 16:24:43.423,3096575,R_Hip,0.0367,0.0059,0.9866,0.37,-0.3,9.37,0.0,0.0,0.0,0.996918,0.00531,-0.038209,-0.067934,0.0,0.0,0.0,0,0
2026-06-16 16:24:43.423,93537,L_Ankle,0.1036,0.0212,0.9976,-0.67,-0.35,-1.93,-18.81,24.68,-28.89,0.987335,0.029145,-0.056307,0.145268,0.0,0.0,0.0,0,0
2026-06-16 16:24:43.425,93557,L_Ankle,0.0859,0.0207,1.0034,-0.67,-0.34,-1.92,0.0,0.0,0.0,0.987335,0.029145,-0.056307,0.145268,0.0,0.0,0.0,0,0
2026-06-16 16:24:43.428,93577,L_Ankle,0.0923,0.0144,0.9827,-0.67,-0.35,-1.93,-19.0,25.93,-28.38,0.987335,0.029176,-0.056307,0.145268,0.0,0.0,0.0,0,0
2026-06-16 16:24:43.430,93522,L_Shank,0.0145,-0.0014,0.982,1.7,-0.72,-0.39,-0.03,10.55,-33.26,0.999298,-0.002289,-0.035493,0.009278,0.0,0.0,0.0,0,0
2026-06-16 16:24:43.431,93542,L_Shank,0.0252,-0.0102,0.9801,1.7,-0.72,-0.4,0.0,0.0,0.0,0.999298,-0.002289,-0.035463,0.009278,0.0,0.0,0.0,0,0
2026-06-16 16:24:43.433,93562,L_Shank,0.0252,-0.0067,0.9978,1.69,-0.73,-0.4,-0.38,10.21,-33.56,0.999298,-0.002289,-0.035463,0.009278,0.0,0.0,0.0,0,0
2026-06-16 16:24:43.435,93582,L_Shank,0.0287,0.0,0.9806,1.68,-0.74,-0.39,-0.03,10.56,-33.88,0.999298,-0.002258,-0.035401,0.009278,0.0,0.0,0.0,0,0
2026-06-16 16:24:43.438,3096560,R_Hip,0.0323,-0.0008,0.9962,0.37,-0.29,9.37,-23.97,13.38,-36.55,0.996918,0.00531,-0.038209,-0.067934,0.0,0.0,0.0,0,0
2026-06-16 16:24:43.440,3096580,R_Hip,0.0353,-0.0013,0.964,0.38,-0.29,9.36,-22.7,12.84,-38.09,0.996918,0.005341,-0.038209,-0.067934,0.0,0.0,0.0,0,0
2026-06-16 16:24:43.441,3096600,R_Hip,0.0402,0.0059,0.9789,0.37,-0.32,9.36,-23.61,14.49,-38.61,0.996918,0.005341,-0.038209,-0.067934,0.0,0.0,0.0,0,0
2026-06-16 16:24:43.443,3096620,R_Hip,0.0436,0.002,0.9982,0.38,-0.3,9.35,0.0,0.0,0.0,0.996918,0.005341,-0.038209,-0.067934,0.0,0.0,0.0,0,0
2026-06-16 16:24:43.445,93545,L_Shank,0.0282,0.0,0.9724,1.7,-0.74,-0.39,0.83,9.35,-32.78,0.999298,-0.002258,-0.035401,0.009308,0.0,0.0,0.0,0,0
2026-06-16 16:24:43.447,93565,L_Shank,0.0272,-0.0126,0.9806,1.7,-0.73,-0.4,-0.55,11.06,-33.41,0.999298,-0.002228,-0.035401,0.009308,0.0,0.0,0.0,0,0
2026-06-16 16:24:43.449,3096570,R_Ankle,0.0155,-0.0007,1.0014,0.78,-1.73,-0.49,-13.19,11.86,-49.84,0.33021,0.091708,0.00766,0.93939,0.0,0.0,0.0,0,0
2026-06-16 16:24:43.449,93585,L_Shank,0.0355,-0.0019,0.982,1.68,-0.74,-0.39,0.0,0.0,0.0,0.999298,-0.002228,-0.035401,0.009308,0.0,0.0,0.0,0,0
2026-06-16 16:24:43.452,3096590,R_Ankle,0.0175,-0.019,0.9952,0.78,-1.74,-0.5,-10.65,11.74,-51.51,0.33021,0.091708,0.00766,0.93939,0.0,0.0,0.0,0,0
2026-06-16 16:24:43.452,93605,L_Shank,0.035,-0.0082,0.994,1.7,-0.73,-0.39,0.13,9.36,-33.4,0.999298,-0.002228,-0.035401,0.009308,0.0,0.0,0.0,0,0
2026-06-16 16:24:43.454,3096610,R_Ankle,0.0194,-0.0072,1.012,0.77,-1.74,-0.5,-10.99,12.06,-51.21,0.33021,0.091708,0.007691,0.93939,0.0,0.0,0.0,0,0
2026-06-16 16:24:43.456,3096630,R_Ankle,0.0165,-0.0106,1.0216,0.78,-1.75,-0.49,0.0,0.0,0.0,0.33021,0.091708,0.007691,0.93939,0.0,0.0,0.0,0,0
2026-06-16 16:24:43.458,93557,L_Hip,0.1195,-0.0676,0.9875,0.19,-0.24,0.78,-27.01,22.56,-35.58,0.990692,-0.033448,-0.06354,-0.115513,0.0,0.0,0.0,0,0
2026-06-16 16:24:43.460,93577,L_Hip,0.1161,-0.0705,0.9982,0.19,-0.25,0.78,0.0,0.0,0.0,0.990692,-0.033448,-0.06357,-0.115513,0.0,0.0,0.0,0,0
2026-06-16 16:24:43.461,3096583,R_Hip,0.0412,0.004,0.9861,0.38,-0.29,9.38,-23.06,13.93,-37.07,0.996918,0.005341,-0.03824,-0.067934,0.0,0.0,0.0,0,0
2026-06-16 16:24:43.462,93597,L_Hip,0.1195,-0.0754,0.9827,0.19,-0.24,0.78,-29.56,21.7,-35.39,0.990692,-0.033448,-0.06357,-0.115513,0.0,0.0,0.0,0,0
2026-06-16 16:24:43.463,3096603,R_Hip,0.0412,0.0049,0.989,0.37,-0.31,9.35,-22.15,13.75,-36.89,0.996918,0.005371,-0.03824,-0.067934,0.0,0.0,0.0,0,0
2026-06-16 16:24:43.465,93617,L_Hip,0.1053,-0.0676,0.9919,0.2,-0.25,0.77,-28.91,20.42,-35.1,0.990692,-0.033448,-0.06357,-0.115513,0.0,0.0,0.0,0,0
2026-06-16 16:24:43.466,3096623,R_Hip,0.0353,-0.0013,0.9861,0.35,-0.3,9.36,-23.43,13.21,-38.78,0.996918,0.005371,-0.03824,-0.067934,0.0,0.0,0.0,0,0
2026-06-16 16:24:43.468,93562,L_Ankle,0.0957,0.0276,0.9918,-0.67,-0.35,-1.93,-19.32,25.23,-27.71,0.987335,0.029145,-0.056246,0.145268,0.0,0.0,0.0,0,0
2026-06-16 16:24:43.468,3096643,R_Hip,0.0412,0.0089,0.9905,0.37,-0.29,9.37,0.0,0.0,0.0,0.996918,0.005371,-0.03824,-0.067934,0.0,0.0,0.0,0,0
2026-06-16 16:24:43.470,93582,L_Ankle,0.0879,0.0114,0.9789,-0.66,-0.36,-1.93,-18.63,24.15,-29.06,0.987335,0.029145,-0.056246,0.145268,0.0,0.0,0.0,0,0
2026-06-16 16:24:43.471,3096587,R_Shank,-0.0979,2.1164,1.0133,-0.03,-0.9,-1.56,-13.75,6.34,-46.88,0.919065,0.024598,0.020508,-0.392743,0.0,0.0,0.0,0,0
2026-06-16 16:24:43.473,93602,L_Ankle,0.0982,0.0202,0.9904,-0.67,-0.35,-1.9,0.0,0.0,0.0,0.987335,0.029145,-0.056246,0.145268,0.0,0.0,0.0,0,0
2026-06-16 16:24:43.474,3096607,R_Shank,-0.0891,3.0168,0.9999,-0.02,-0.9,-1.55,-14.94,6.87,-46.11,0.919065,0.024628,0.020508,-0.392743,0.0,0.0,0.0,0,0
2026-06-16 16:24:43.476,93622,L_Ankle,0.0947,0.0144,1.0048,-0.67,-0.36,-1.92,-17.4,24.66,-28.52,0.987335,0.029145,-0.056246,0.145268,0.0,0.0,0.0,0,0
2026-06-16 16:24:43.476,3096627,R_Shank,-0.0896,1.346,0.9994,-0.01,-0.88,-1.55,0.0,0.0,0.0,0.919065,0.024628,0.020508,-0.392743,0.0,0.0,0.0,0,0
2026-06-16 16:24:43.478,93567,L_Shank,0.0169,-0.0116,0.9676,1.68,-0.74,-0.4,0.32,9.88,-34.18,0.999298,-0.002228,-0.035432,0.009308,0.0,0.0,0.0,0,0
2026-06-16 16:24:43.479,3096588,R_Shank,-0.0837,-1.3548,1.009,-0.01,-0.87,-1.55,-14.26,6.2,-45.52,0.919065,0.024628,0.020508,-0.392712,0.0,0.0,0.0,0,0
2026-06-16 16:24:43.481,93587,L_Shank,0.0248,-0.0043,0.9638,1.7,-0.74,-0.39,0.5,10.4,-34.66,0.999298,-0.002228,-0.035463,0.009308,0.0,0.0,0.0,0,0
2026-06-16 16:24:43.481,3096592,R_Ankle,0.015,-0.0195,1.0058,0.76,-1.76,-0.49,-12.35,11.41,-50.91,0.33021,0.091708,0.007721,0.93939,0.0,0.0,0.0,0,0
2026-06-16 16:24:43.483,93607,L_Shank,0.0243,-0.0063,0.9911,1.7,-0.74,-0.4,0.0,0.0,0.0,0.999298,-0.002228,-0.035463,0.009308,0.0,0.0,0.0,0,0
2026-06-16 16:24:43.484,3096612,R_Ankle,0.0145,-0.0106,1.0196,0.77,-1.75,-0.48,-12.7,11.09,-50.91,0.33021,0.091678,0.007721,0.93939,0.0,0.0,0.0,0,0
2026-06-16 16:24:43.486,93627,L_Shank,0.0292,-0.0121,0.9868,1.69,-0.74,-0.41,0.65,10.88,-32.65,0.999298,-0.002258,-0.035432,0.009308,0.0,0.0,0.0,0,0
2026-06-16 16:24:43.487,3096632,R_Ankle,0.0155,-0.0126,1.0062,0.77,-1.74,-0.49,-11.14,12.2,-49.83,0.33021,0.091678,0.007691,0.93939,0.0,0.0,0.0,0,0
2026-06-16 16:24:43.488,93583,L_Hip,0.1097,-0.0622,0.9827,0.2,-0.23,0.78,-28.07,20.6,-34.97,0.990692,-0.033448,-0.063601,-0.115513,0.0,0.0,0.0,0,0
2026-06-16 16:24:43.489,3096593,R_Ankle,0.0091,-0.0057,0.9962,0.77,-1.75,-0.49,0.0,0.0,0.0,0.33021,0.091678,0.007691,0.93939,0.0,0.0,0.0,0,0
2026-06-16 16:24:43.490,93603,L_Hip,0.1195,-0.0641,0.9919,0.2,-0.25,0.76,0.0,0.0,0.0,0.990692,-0.033448,-0.06357,-0.115513,0.0,0.0,0.0,0,0
2026-06-16 16:24:43.492,93623,L_Hip,0.1112,-0.0764,0.9827,0.21,-0.24,0.78,-28.56,20.75,-35.69,0.990692,-0.033479,-0.06357,-0.115513,0.0,0.0,0.0,0,0
2026-06-16 16:24:43.494,93643,L_Hip,0.1023,-0.0666,0.9962,0.2,-0.25,0.77,-29.27,19.45,-35.1,0.990692,-0.033448,-0.06357,-0.115513,0.0,0.0,0.0,0,0
2026-06-16 16:24:43.513,93612,L_Shank,0.0233,-0.0058,0.9815,1.68,-0.73,-0.39,1.37,9.56,-35.12,0.999298,-0.002258,-0.035432,0.009308,0.0,0.0,0.0,0,0
2026-06-16 16:24:43.515,93632,L_Shank,0.0204,-0.0004,0.981,1.69,-0.73,-0.39,-0.2,10.72,-33.41,0.999298,-0.002258,-0.035463,0.009308,0.0,0.0,0.0,0,0
2026-06-16 16:24:43.517,93652,L_Shank,0.0306,-0.0028,0.9791,1.7,-0.72,-0.4,0.0,0.0,0.0,0.999298,-0.002258,-0.035463,0.009308,0.0,0.0,0.0,0,0
2026-06-16 16:24:43.520,93672,L_Shank,0.0184,-0.0092,0.994,1.68,-0.74,-0.38,-0.03,10.55,-33.57,0.999298,-0.002258,-0.035432,0.009308,0.0,0.0,0.0,0,0
2026-06-16 16:24:43.528,3096650,R_Hip,0.0353,0.0059,0.9818,0.36,-0.29,9.36,-24.34,15.21,-36.9,0.996918,0.005371,-0.03824,-0.067934,0.0,0.0,0.0,0,0
2026-06-16 16:24:43.530,3096670,R_Hip,0.0358,-0.0042,0.9832,0.36,-0.29,9.36,-23.79,12.48,-38.43,0.996918,0.005371,-0.03827,-0.067904,0.0,0.0,0.0,0,0
2026-06-16 16:24:43.532,3096690,R_Hip,0.0348,0.0054,0.9924,0.38,-0.29,9.36,-23.61,14.12,-36.9,0.996918,0.005371,-0.03824,-0.067904,0.0,0.0,0.0,0,0
2026-06-16 16:24:43.533,93631,L_Ankle,0.0908,0.0144,0.9981,-0.67,-0.35,-1.9,-19.15,24.33,-28.9,0.987335,0.029145,-0.056246,0.145268,0.0,0.0,0.0,0,0
2026-06-16 16:24:43.535,3096710,R_Hip,0.0412,-0.0037,0.9929,0.36,-0.28,9.37,0.0,0.0,0.0,0.996918,0.005371,-0.038209,-0.067904,0.0,0.0,0.0,0,0
2026-06-16 16:24:43.535,93651,L_Ankle,0.0923,0.0192,1.0077,-0.66,-0.35,-1.92,-17.91,22.72,-29.05,0.987335,0.029145,-0.056246,0.145268,0.0,0.0,0.0,0,0
2026-06-16 16:24:43.538,93671,L_Ankle,0.0893,0.0188,1.0058,-0.66,-0.35,-1.93,-19.15,23.62,-29.24,0.987335,0.029145,-0.056246,0.145268,0.0,0.0,0.0,0,0
2026-06-16 16:24:43.539,3096660,R_Ankle,0.0165,-0.0057,1.0,0.77,-1.75,-0.5,-11.69,11.43,-52.44,0.33021,0.091647,0.007721,0.93939,0.0,0.0,0.0,0,0
2026-06-16 16:24:43.540,93691,L_Ankle,0.0938,0.0163,0.9885,-0.67,-0.35,-1.92,0.0,0.0,0.0,0.987335,0.029145,-0.056215,0.145268,0.0,0.0,0.0,0,0
2026-06-16 16:24:43.541,3096680,R_Ankle,0.0224,-0.0126,1.0182,0.77,-1.77,-0.5,-10.12,11.89,-49.81,0.33021,0.091678,0.007721,0.93939,0.0,0.0,0.0,0,0
2026-06-16 16:24:43.543,93632,L_Hip,0.1068,-0.0661,0.9778,0.18,-0.24,0.79,-28.38,21.24,-35.55,0.990692,-0.033448,-0.063601,-0.115513,0.0,0.0,0.0,0,0
2026-06-16 16:24:43.544,3096700,R_Ankle,0.0155,-0.0106,1.0101,0.77,-1.74,-0.5,-11.68,10.46,-51.2,0.33021,0.091678,0.007721,0.93939,0.0,0.0,0.0,0,0
2026-06-16 16:24:43.546,93652,L_Hip,0.1151,-0.0641,0.989,0.18,-0.25,0.8,-28.72,20.59,-36.12,0.990692,-0.033448,-0.06357,-0.115513,0.0,0.0,0.0,0,0
2026-06-16 16:24:43.546,3096720,R_Ankle,0.0091,-0.0294,1.0,0.77,-1.74,-0.5,-11.34,9.82,-50.57,0.33021,0.091678,0.007721,0.93939,0.0,0.0,0.0,0,0
2026-06-16 16:24:43.548,93672,L_Hip,0.0984,-0.0739,0.9745,0.19,-0.24,0.79,0.0,0.0,0.0,0.990692,-0.033448,-0.06357,-0.115482,0.0,0.0,0.0,0,0
2026-06-16 16:24:43.551,93692,L_Hip,0.1126,-0.0725,0.9759,0.19,-0.25,0.78,-28.39,21.56,-34.97,0.990692,-0.033418,-0.06357,-0.115482,0.0,0.0,0.0,0,0
2026-06-16 16:24:43.551,3096673,R_Hip,0.0333,0.0006,0.9885,0.38,-0.29,9.35,-23.61,12.29,-38.6,0.996918,0.005249,-0.038209,-0.067965,0.0,0.0,0.0,0,0
2026-06-16 16:24:43.553,3096693,R_Hip,0.0412,-0.0028,0.9803,0.37,-0.29,9.37,-23.61,13.75,-37.92,0.996918,0.00528,-0.038209,-0.067965,0.0,0.0,0.0,0,0
2026-06-16 16:24:43.555,3096713,R_Hip,0.0328,0.0064,0.9948,0.37,-0.29,9.36,-23.98,14.12,-37.92,0.996918,0.005249,-0.038209,-0.067965,0.0,0.0,0.0,0,0
2026-06-16 16:24:43.556,3096733,R_Hip,0.0431,0.0059,0.9755,0.37,-0.29,9.37,-22.7,12.1,-36.38,0.996918,0.00528,-0.038209,-0.067965,0.0,0.0,0.0,0,0
2026-06-16 16:24:43.575,93675,L_Ankle,0.0898,0.0114,0.9952,-0.67,-0.35,-1.92,-18.77,23.27,-27.87,0.987335,0.029145,-0.056215,0.145268,0.0,0.0,0.0,0,0
2026-06-16 16:24:43.578,93695,L_Ankle,0.0928,0.0246,0.9918,-0.67,-0.36,-1.92,-18.82,23.97,-29.91,0.987335,0.029145,-0.056215,0.145268,0.0,0.0,0.0,0,0
2026-06-16 16:24:43.580,3096700,R_Shank,-0.0881,0.5752,0.9883,-0.02,-0.91,-1.55,-14.07,5.36,-45.98,0.919065,0.024689,0.020539,-0.392743,0.0,0.0,0.0,0,0
2026-06-16 16:24:43.581,93715,L_Ankle,0.0898,0.0246,0.999,-0.67,-0.36,-1.92,-19.86,23.99,-29.25,0.987335,0.029145,-0.056215,0.145268,0.0,0.0,0.0,0,0
2026-06-16 16:24:43.583,3096720,R_Shank,-0.0861,-2.5072,0.9999,-0.03,-0.9,-1.54,-14.38,4.7,-47.49,0.919065,0.024689,0.020539,-0.392712,0.0,0.0,0.0,0,0
2026-06-16 16:24:43.583,93735,L_Ankle,0.0928,0.0197,0.988,-0.65,-0.35,-1.9,0.0,0.0,0.0,0.987335,0.029145,-0.056215,0.145268,0.0,0.0,0.0,0,0
2026-06-16 16:24:43.586,3096740,R_Shank,-0.0891,2.3756,0.9883,-0.04,-0.89,-1.55,0.0,0.0,0.0,0.919065,0.024659,0.020539,-0.392712,0.0,0.0,0.0,0,0
2026-06-16 16:24:43.587,93681,L_Shank,0.0179,-0.0043,0.983,1.7,-0.73,-0.39,0.31,11.23,-33.27,0.999298,-0.002228,-0.035432,0.009308,0.0,0.0,0.0,0,0
2026-06-16 16:24:43.588,3096760,R_Shank,-0.0842,-0.966,1.022,-0.02,-0.87,-1.57,-14.4,5.36,-46.58,0.919065,0.024659,0.020539,-0.392712,0.0,0.0,0.0,0,0
2026-06-16 16:24:43.589,93701,L_Shank,0.0301,-0.0097,0.9777,1.69,-0.73,-0.4,-1.25,11.07,-34.03,0.999298,-0.002258,-0.035401,0.009308,0.0,0.0,0.0,0,0
2026-06-16 16:24:43.591,93721,L_Shank,0.0296,-0.0141,0.9921,1.7,-0.72,-0.39,0.0,0.0,0.0,0.999298,-0.002228,-0.035432,0.009308,0.0,0.0,0.0,0,0
2026-06-16 16:24:43.593,93741,L_Shank,0.0194,-0.0121,0.9849,1.7,-0.73,-0.38,0.32,11.25,-34.83,0.999298,-0.002228,-0.035432,0.009308,0.0,0.0,0.0,0,0
2026-06-16 16:24:43.595,93682,L_Hip,0.119,-0.0725,0.9774,0.18,-0.25,0.78,-29.56,21.7,-35.39,0.990692,-0.033448,-0.06354,-0.115482,0.0,0.0,0.0,0,0
2026-06-16 16:24:43.597,3096717,R_Hip,0.0436,-0.0008,1.003,0.37,-0.29,9.36,-23.98,13.75,-38.26,0.996918,0.00528,-0.038209,-0.067965,0.0,0.0,0.0,0,0
2026-06-16 16:24:43.598,93702,L_Hip,0.1097,-0.071,0.988,0.19,-0.25,0.77,-28.21,21.73,-35.41,0.990692,-0.033479,-0.06354,-0.115482,0.0,0.0,0.0,0,0
2026-06-16 16:24:43.600,3096737,R_Hip,0.0333,0.0006,1.003,0.37,-0.29,9.37,-24.52,13.94,-38.78,0.996918,0.00528,-0.038179,-0.067965,0.0,0.0,0.0,0,0
2026-06-16 16:24:43.601,93722,L_Hip,0.1068,-0.07,0.9793,0.19,-0.25,0.77,-29.77,19.92,-34.65,0.990692,-0.033479,-0.06357,-0.115482,0.0,0.0,0.0,0,0
2026-06-16 16:24:43.602,3096757,R_Hip,0.0461,0.003,0.9905,0.37,-0.29,9.35,-23.43,13.2,-36.38,0.996918,0.005249,-0.038179,-0.067965,0.0,0.0,0.0,0,0
2026-06-16 16:24:43.604,93742,L_Hip,0.1023,-0.0661,0.9861,0.19,-0.25,0.79,0.0,0.0,0.0,0.990692,-0.033479,-0.06357,-0.115482,0.0,0.0,0.0,0,0
2026-06-16 16:24:43.605,3096718,R_Hip,0.0461,-0.0008,0.9943,0.36,-0.29,9.37,0.0,0.0,0.0,0.996918,0.005249,-0.038179,-0.067965,0.0,0.0,0.0,0,0
2026-06-16 16:24:43.607,93697,L_Ankle,0.0962,0.0256,0.9875,-0.68,-0.35,-1.92,-18.45,25.03,-28.2,0.987335,0.029176,-0.056185,0.145268,0.0,0.0,0.0,0,0
2026-06-16 16:24:43.608,3096727,R_Ankle,0.0194,-0.0086,1.0129,0.76,-1.74,-0.48,-10.82,11.26,-50.74,0.33021,0.091647,0.007721,0.93939,0.0,0.0,0.0,0,0
2026-06-16 16:24:43.609,93717,L_Ankle,0.0947,0.0212,0.9942,-0.67,-0.34,-1.9,-18.97,24.87,-28.04,0.987335,0.029176,-0.056185,0.145268,0.0,0.0,0.0,0,0
2026-06-16 16:24:43.611,3096728,R_Ankle,0.0214,-0.0116,1.0115,0.76,-1.74,-0.5,-12.37,10.46,-51.82,0.33021,0.091647,0.007691,0.93939,0.0,0.0,0.0,0,0
2026-06-16 16:24:43.613,93737,L_Ankle,0.1006,0.0149,1.0024,-0.67,-0.35,-1.92,-18.46,23.26,-29.91,0.987335,0.029206,-0.056185,0.145268,0.0,0.0,0.0,0,0
2026-06-16 16:24:43.614,3096748,R_Ankle,0.0175,-0.0121,1.011,0.76,-1.75,-0.5,-10.81,11.89,-50.44,0.33021,0.091647,0.007691,0.93939,0.0,0.0,0.0,0,0
2026-06-16 16:24:43.615,93757,L_Ankle,0.0903,0.0124,0.9933,-0.66,-0.35,-1.93,-16.85,23.06,-28.35,0.987335,0.029206,-0.056154,0.145268,0.0,0.0,0.0,0,0
2026-06-16 16:24:43.617,3096768,R_Ankle,0.0199,-0.0126,1.0,0.77,-1.75,-0.48,-11.48,12.51,-49.83,0.33021,0.091647,0.007691,0.93939,0.0,0.0,0.0,0,0
2026-06-16 16:24:43.618,93702,L_Shank,0.0282,-0.0019,0.9724,1.7,-0.75,-0.4,-0.36,11.94,-35.45,0.999298,-0.002258,-0.035432,0.009308,0.0,0.0,0.0,0,0
2026-06-16 16:24:43.620,93722,L_Shank,0.0287,-0.0092,0.9945,1.7,-0.74,-0.39,1.03,10.24,-35.44,0.999298,-0.002258,-0.035401,0.009339,0.0,0.0,0.0,0,0
2026-06-16 16:24:43.622,93742,L_Shank,0.0306,-0.0082,0.9916,1.69,-0.74,-0.39,0.0,0.0,0.0,0.999298,-0.002228,-0.035401,0.009339,0.0,0.0,0.0,0,0
2026-06-16 16:24:43.623,93762,L_Shank,0.0287,-0.0028,0.9988,1.7,-0.73,-0.38,-1.58,10.07,-35.26,0.999298,-0.002228,-0.035432,0.009339,0.0,0.0,0.0,0,0
2026-06-16 16:24:43.627,93707,L_Hip,0.1136,-0.0641,0.9904,0.2,-0.24,0.78,-29.55,22.02,-35.39,0.990692,-0.033479,-0.06357,-0.115482,0.0,0.0,0.0,0,0
2026-06-16 16:24:43.629,93727,L_Hip,0.1112,-0.0622,0.9827,0.19,-0.24,0.79,-28.43,19.3,-34.67,0.990692,-0.033479,-0.06357,-0.115482,0.0,0.0,0.0,0,0
2026-06-16 16:24:43.631,93747,L_Hip,0.1117,-0.0715,0.9783,0.19,-0.25,0.79,-28.26,19.46,-34.82,0.990692,-0.033448,-0.06357,-0.115482,0.0,0.0,0.0,0,0
2026-06-16 16:24:43.633,93767,L_Hip,0.1068,-0.0666,0.99,0.19,-0.24,0.77,0.0,0.0,0.0,0.990692,-0.033418,-0.06357,-0.115452,0.0,0.0,0.0,0,0
2026-06-16 16:24:43.643,93742,L_Ankle,0.0884,0.0192,0.9942,-0.64,-0.36,-1.9,-18.12,25.03,-28.88,0.987335,0.029176,-0.056185,0.145268,0.0,0.0,0.0,0,0
2026-06-16 16:24:43.646,93762,L_Ankle,0.0942,0.0212,0.988,-0.67,-0.36,-1.93,0.0,0.0,0.0,0.987335,0.029206,-0.056185,0.145268,0.0,0.0,0.0,0,0
2026-06-16 16:24:43.648,93782,L_Ankle,0.0962,0.0149,0.9981,-0.67,-0.37,-1.93,-19.13,22.56,-29.24,0.987335,0.029176,-0.056185,0.145268,0.0,0.0,0.0,0,0
2026-06-16 16:24:43.649,93802,L_Ankle,0.0908,0.0153,0.9818,-0.67,-0.35,-1.92,-17.22,24.13,-28.69,0.987335,0.029176,-0.056154,0.145268,0.0,0.0,0.0,0,0
2026-06-16 16:24:43.652,93747,L_Shank,0.0179,-0.0116,0.995,1.7,-0.74,-0.4,-0.2,10.05,-34.34,0.999298,-0.002228,-0.035463,0.009339,0.0,0.0,0.0,0,0
2026-06-16 16:24:43.654,93767,L_Shank,0.0218,-0.0141,0.9786,1.69,-0.74,-0.4,-0.2,11.07,-34.35,0.999298,-0.002228,-0.035493,0.009339,0.0,0.0,0.0,0,0
2026-06-16 16:24:43.656,93787,L_Shank,0.0252,-0.0102,0.9911,1.67,-0.73,-0.41,1.19,10.39,-34.36,0.999298,-0.002228,-0.035463,0.009339,0.0,0.0,0.0,0,0
2026-06-16 16:24:43.658,93807,L_Shank,0.0194,-0.0092,0.9777,1.7,-0.72,-0.4,0.84,11.07,-34.36,0.999298,-0.002228,-0.035432,0.009339,0.0,0.0,0.0,0,0
2026-06-16 16:24:43.661,93757,L_Hip,0.1122,-0.0651,0.9885,0.2,-0.24,0.78,-28.23,20.44,-35.7,0.990692,-0.033418,-0.06357,-0.115452,0.0,0.0,0.0,0,0
2026-06-16 16:24:43.664,93777,L_Hip,0.1102,-0.0779,0.9837,0.19,-0.25,0.78,-28.38,21.56,-35.26,0.990692,-0.033418,-0.06354,-0.115452,0.0,0.0,0.0,0,0
2026-06-16 16:24:43.664,3096785,R_Hip,0.0461,-0.0042,0.9881,0.37,-0.31,9.38,-22.88,12.29,-37.57,0.996918,0.005249,-0.038179,-0.067965,0.0,0.0,0.0,0,0
2026-06-16 16:24:43.666,93797,L_Hip,0.1097,-0.0715,0.9769,0.2,-0.23,0.77,0.0,0.0,0.0,0.990692,-0.033418,-0.06354,-0.115452,0.0,0.0,0.0,0,0
2026-06-16 16:24:43.667,3096805,R_Hip,0.0377,-0.0101,0.99,0.38,-0.29,9.38,-23.61,13.38,-36.89,0.996918,0.005249,-0.038209,-0.067934,0.0,0.0,0.0,0,0
2026-06-16 16:24:43.670,3096825,R_Hip,0.0471,0.0069,0.9789,0.4,-0.3,9.36,0.0,0.0,0.0,0.996918,0.005219,-0.038209,-0.067934,0.0,0.0,0.0,0,0
2026-06-16 16:24:43.670,93817,L_Hip,0.1259,-0.0715,0.9778,0.2,-0.25,0.77,-29.4,21.22,-35.24,0.990692,-0.033418,-0.06354,-0.115452,0.0,0.0,0.0,0,0
2026-06-16 16:24:43.673,3096845,R_Hip,0.0382,0.002,0.9909,0.36,-0.3,9.36,-23.25,13.02,-38.6,0.996918,0.005249,-0.03824,-0.067934,0.0,0.0,0.0,0,0
2026-06-16 16:24:43.673,93765,L_Ankle,0.0918,0.0202,0.9856,-0.68,-0.36,-1.92,-18.3,23.78,-30.75,0.987335,0.029145,-0.056154,0.145268,0.0,0.0,0.0,0,0
2026-06-16 16:24:43.675,3096790,R_Shank,-0.0866,0.7048,1.0104,-0.03,-0.88,-1.55,-14.25,6.19,-46.72,0.919065,0.024659,0.020508,-0.392712,0.0,0.0,0.0,0,0
2026-06-16 16:24:43.676,93785,L_Ankle,0.0962,0.0207,0.9803,-0.67,-0.35,-1.91,0.0,0.0,0.0,0.987335,0.029145,-0.056154,0.145268,0.0,0.0,0.0,0,0
2026-06-16 16:24:43.678,3096810,R_Shank,-0.0969,0.5752,1.0119,-0.02,-0.87,-1.55,-15.94,6.22,-46.7,0.919065,0.024628,0.020539,-0.392712,0.0,0.0,0.0,0,0
2026-06-16 16:24:43.679,93805,L_Ankle,0.0805,0.0163,0.9818,-0.67,-0.34,-1.93,-18.62,24.5,-28.38,0.987335,0.029115,-0.056185,0.145268,0.0,0.0,0.0,0,0
2026-06-16 16:24:43.681,3096830,R_Shank,-0.0837,3.0168,1.0037,-0.03,-0.87,-1.55,0.0,0.0,0.0,0.919065,0.024628,0.020569,-0.392712,0.0,0.0,0.0,0,0
2026-06-16 16:24:43.682,93825,L_Ankle,0.0884,0.0197,0.9914,-0.68,-0.35,-1.93,-20.02,23.82,-29.08,0.987335,0.029145,-0.056185,0.145268,0.0,0.0,0.0,0,0
2026-06-16 16:24:43.683,3096850,R_Shank,-0.0945,-0.066,1.0076,-0.03,-0.9,-1.56,-14.79,7.69,-46.56,0.919065,0.024628,0.020539,-0.392712,0.0,0.0,0.0,0,0
2026-06-16 16:24:43.686,3096807,R_Hip,0.0466,0.0035,0.9967,0.37,-0.3,9.36,-23.8,13.57,-39.46,0.996918,0.005249,-0.03824,-0.067934,0.0,0.0,0.0,0,0
2026-06-16 16:24:43.688,3096827,R_Hip,0.0407,-0.0013,0.9818,0.37,-0.31,9.36,-23.25,13.03,-39.29,0.996918,0.005219,-0.038209,-0.067934,0.0,0.0,0.0,0,0
2026-06-16 16:24:43.688,93787,L_Ankle,0.0903,0.0256,0.9914,-0.68,-0.35,-1.93,-18.79,23.27,-28.89,0.987335,0.029115,-0.056154,0.145268,0.0,0.0,0.0,0,0
2026-06-16 16:24:43.691,3096847,R_Hip,0.0328,0.004,0.9818,0.38,-0.32,9.38,0.0,0.0,0.0,0.996918,0.005219,-0.03824,-0.067934,0.0,0.0,0.0,0,0
2026-06-16 16:24:43.691,93807,L_Ankle,0.0918,0.0241,0.9798,-0.67,-0.36,-1.91,0.0,0.0,0.0,0.987335,0.029115,-0.056154,0.145268,0.0,0.0,0.0,0,0
2026-06-16 16:24:43.694,3096808,R_Hip,0.0417,0.0015,0.9784,0.36,-0.29,9.36,-21.97,12.84,-37.4,0.996918,0.005249,-0.03824,-0.067934,0.0,0.0,0.0,0,0
2026-06-16 16:24:43.695,93827,L_Ankle,0.0957,0.0173,0.9938,-0.67,-0.36,-1.92,-19.31,23.81,-28.05,0.987365,0.029115,-0.056154,0.145268,0.0,0.0,0.0,0,0
2026-06-16 16:24:43.697,3096817,R_Ankle,0.0238,-0.0116,1.0062,0.77,-1.75,-0.5,-10.99,10.77,-50.27,0.330302,0.091433,0.007447,0.93939,0.0,0.0,0.0,0,0
2026-06-16 16:24:43.698,93847,L_Ankle,0.0987,0.0217,0.9803,-0.67,-0.36,-1.91,-18.78,23.62,-28.21,0.987365,0.029115,-0.056124,0.145268,0.0,0.0,0.0,0,0
2026-06-16 16:24:43.700,3096837,R_Ankle,0.0184,-0.0062,0.9971,0.76,-1.75,-0.49,-10.8,12.52,-50.13,0.330302,0.091403,0.007477,0.93939,0.0,0.0,0.0,0,0
2026-06-16 16:24:43.701,93792,L_Shank,0.0296,-0.0077,0.9743,1.69,-0.73,-0.4,0.14,11.07,-34.04,0.999298,-0.002258,-0.035432,0.009339,0.0,0.0,0.0,0,0
2026-06-16 16:24:43.703,3096818,R_Ankle,0.0116,-0.0151,0.9986,0.76,-1.74,-0.5,0.0,0.0,0.0,0.330302,0.091403,0.007477,0.93939,0.0,0.0,0.0,0,0
2026-06-16 16:24:43.703,93812,L_Shank,0.0233,-0.0126,0.9734,1.69,-0.72,-0.41,0.0,0.0,0.0,0.999298,-0.002258,-0.035432,0.009339,0.0,0.0,0.0,0,0
2026-06-16 16:24:43.706,93832,L_Shank,0.0233,-0.0092,0.9863,1.68,-0.74,-0.41,0.49,11.41,-34.36,0.999298,-0.002228,-0.035401,0.009339,0.0,0.0,0.0,0,0
2026-06-16 16:24:43.706,3096838,R_Ankle,0.0145,-0.0052,0.9986,0.76,-1.74,-0.51,-10.16,11.28,-52.27,0.330302,0.091403,0.007477,0.93939,0.0,0.0,0.0,0,0
2026-06-16 16:24:43.708,93852,L_Shank,0.0272,-0.0097,0.9887,1.69,-0.74,-0.4,0.0,0.0,0.0,0.999298,-0.002228,-0.035401,0.009339,0.0,0.0,0.0,0,0
2026-06-16 16:24:43.710,93807,L_Hip,0.118,-0.0641,0.9798,0.19,-0.25,0.77,-28.7,22.2,-35.55,0.990692,-0.033418,-0.063509,-0.115452,0.0,0.0,0.0,0,0
2026-06-16 16:24:43.712,93827,L_Hip,0.1053,-0.0631,0.9706,0.18,-0.24,0.77,-29.28,19.12,-34.8,0.990692,-0.033448,-0.06357,-0.115452,0.0,0.0,0.0,0,0
2026-06-16 16:24:43.714,93847,L_Hip,0.1112,-0.0676,0.9817,0.19,-0.25,0.79,-28.24,20.43,-35.11,0.990692,-0.033448,-0.06357,-0.115452,0.0,0.0,0.0,0,0
2026-06-16 16:24:43.716,93867,L_Hip,0.1126,-0.0671,0.9841,0.19,-0.25,0.77,0.0,0.0,0.0,0.990692,-0.033448,-0.06357,-0.115452,0.0,0.0,0.0,0,0
2026-06-16 16:24:43.731,3096853,R_Hip,0.0397,-0.0047,0.9914,0.35,-0.3,9.35,-22.7,12.48,-39.11,0.996918,0.005219,-0.038209,-0.067934,0.0,0.0,0.0,0,0
2026-06-16 16:24:43.733,3096873,R_Hip,0.0397,0.0079,0.989,0.38,-0.29,9.35,-23.07,12.84,-38.43,0.996918,0.005219,-0.03824,-0.067934,0.0,0.0,0.0,0,0
2026-06-16 16:24:43.734,93832,L_Hip,0.1112,-0.0735,0.9827,0.2,-0.25,0.78,-29.73,21.21,-35.53,0.990692,-0.033448,-0.06357,-0.115452,0.0,0.0,0.0,0,0
2026-06-16 16:24:43.736,3096893,R_Hip,0.0466,0.0064,0.9905,0.36,-0.31,9.36,0.0,0.0,0.0,0.996918,0.005219,-0.038209,-0.067934,0.0,0.0,0.0,0,0
2026-06-16 16:24:43.737,93852,L_Hip,0.1107,-0.0695,0.9808,0.2,-0.24,0.78,-27.56,20.77,-35.13,0.990692,-0.033448,-0.06357,-0.115452,0.0,0.0,0.0,0,0
2026-06-16 16:24:43.738,3096913,R_Hip,0.0358,-0.0003,0.9866,0.37,-0.3,9.36,-23.07,13.94,-38.09,0.996918,0.005219,-0.03824,-0.067934,0.0,0.0,0.0,0,0
2026-06-16 16:24:43.740,93872,L_Hip,0.1107,-0.0661,0.9924,0.19,-0.25,0.78,-28.91,20.74,-34.81,0.990692,-0.033448,-0.06357,-0.115452,0.0,0.0,0.0,0,0
2026-06-16 16:24:43.741,3096858,R_Shank,-0.0832,-0.1956,1.0071,-0.02,-0.9,-1.56,-14.26,6.52,-46.42,0.919065,0.024628,0.020631,-0.392773,0.0,0.0,0.0,0,0
2026-06-16 16:24:43.743,93892,L_Hip,0.1151,-0.0685,0.9861,0.18,-0.24,0.78,0.0,0.0,0.0,0.990692,-0.033448,-0.06357,-0.115452,0.0,0.0,0.0,0,0
2026-06-16 16:24:43.744,3096878,R_Shank,-0.0906,-2.7664,0.996,-0.03,-0.88,-1.56,-13.9,5.19,-46.13,0.919065,0.024598,0.020631,-0.392773,0.0,0.0,0.0,0,0
2026-06-16 16:24:43.746,3096898,R_Shank,-0.0906,-2.6368,0.9903,-0.02,-0.87,-1.58,-14.09,6.35,-46.27,0.919065,0.024628,0.0206,-0.392773,0.0,0.0,0.0,0,0
2026-06-16 16:24:43.748,3096918,R_Shank,-0.0866,-0.1956,1.009,-0.03,-0.87,-1.56,0.0,0.0,0.0,0.919065,0.024598,0.020631,-0.392773,0.0,0.0,0.0,0,0
2026-06-16 16:24:43.753,3096875,R_Hip,0.0328,0.001,0.9847,0.38,-0.32,9.37,-22.7,13.57,-36.72,0.996918,0.005219,-0.03824,-0.067934,0.0,0.0,0.0,0,0
2026-06-16 16:24:43.755,3096895,R_Hip,0.0417,0.002,1.0035,0.36,-0.31,9.35,-23.43,13.2,-37.75,0.996918,0.005219,-0.03824,-0.067934,0.0,0.0,0.0,0,0
2026-06-16 16:24:43.756,3096915,R_Hip,0.0417,0.001,0.9909,0.35,-0.31,9.35,0.0,0.0,0.0,0.996918,0.005219,-0.03827,-0.067934,0.0,0.0,0.0,0,0
2026-06-16 16:24:43.758,3096935,R_Hip,0.0362,0.0059,0.989,0.37,-0.29,9.36,-23.25,11.56,-37.92,0.996918,0.005188,-0.03827,-0.067934,0.0,0.0,0.0,0,0
2026-06-16 16:24:43.761,93860,L_Shank,0.0238,0.0024,0.9834,1.69,-0.74,-0.4,-0.2,10.39,-33.72,0.999298,-0.002228,-0.035401,0.009339,0.0,0.0,0.0,0,0
2026-06-16 16:24:43.763,93880,L_Shank,0.0218,-0.0063,0.9916,1.69,-0.74,-0.4,1.18,9.7,-33.1,0.999298,-0.002258,-0.035401,0.009339,0.0,0.0,0.0,0,0
2026-06-16 16:24:43.764,3096885,R_Ankle,0.016,-0.0136,1.0077,0.76,-1.76,-0.49,-12.69,11.72,-50.92,0.330302,0.091403,0.007477,0.93939,0.0,0.0,0.0,0,0
2026-06-16 16:24:43.766,93900,L_Shank,0.0262,-0.0146,0.9959,1.7,-0.74,-0.41,-0.9,10.05,-33.71,0.999298,-0.002228,-0.035401,0.009339,0.0,0.0,0.0,0,0
2026-06-16 16:24:43.768,3096905,R_Ankle,0.0263,-0.0255,1.0067,0.77,-1.74,-0.48,-11.0,10.78,-51.2,0.330302,0.091403,0.007477,0.93939,0.0,0.0,0.0,0,0
2026-06-16 16:24:43.768,93920,L_Shank,0.0204,-0.0063,0.9834,1.7,-0.74,-0.41,0.0,0.0,0.0,0.999298,-0.002228,-0.035401,0.009339,0.0,0.0,0.0,0,0
2026-06-16 16:24:43.769,3096925,R_Ankle,0.0175,-0.0136,0.9971,0.77,-1.75,-0.51,0.0,0.0,0.0,0.330271,0.091403,0.007447,0.93939,0.0,0.0,0.0,0,0
2026-06-16 16:24:43.772,3096945,R_Ankle,0.0199,-0.0161,1.0072,0.77,-1.75,-0.49,-10.65,12.38,-51.21,0.330271,0.091403,0.007416,0.93939,0.0,0.0,0.0,0,0
2026-06-16 16:24:43.776,3096898,R_Hip,0.0343,-0.0076,0.9803,0.37,-0.3,9.37,-22.7,12.11,-37.06,0.996918,0.005188,-0.03827,-0.067965,0.0,0.0,0.0,0,0
2026-06-16 16:24:43.779,3096918,R_Hip,0.0387,0.0006,0.9929,0.38,-0.31,9.36,-21.79,12.66,-38.6,0.996918,0.005219,-0.03827,-0.067934,0.0,0.0,0.0,0,0
2026-06-16 16:24:43.780,93878,L_Ankle,0.0942,0.0114,0.9846,-0.66,-0.35,-1.93,-18.63,24.5,-28.72,0.987335,0.029115,-0.056154,0.145268,0.0,0.0,0.0,0,0
2026-06-16 16:24:43.782,3096938,R_Hip,0.0476,-0.0042,0.9832,0.38,-0.3,9.37,0.0,0.0,0.0,0.996918,0.005188,-0.03827,-0.067934,0.0,0.0,0.0,0,0
2026-06-16 16:24:43.784,93898,L_Ankle,0.1031,0.0246,0.9885,-0.67,-0.35,-1.91,0.0,0.0,0.0,0.987335,0.029115,-0.056154,0.145268,0.0,0.0,0.0,0,0
2026-06-16 16:24:43.785,3096958,R_Hip,0.0412,-0.0062,0.9905,0.38,-0.3,9.37,-23.61,13.39,-38.61,0.996918,0.005188,-0.038301,-0.067934,0.0,0.0,0.0,0,0
2026-06-16 16:24:43.787,93918,L_Ankle,0.1045,0.0315,0.9861,-0.66,-0.36,-1.92,-18.44,23.26,-28.89,0.987335,0.029145,-0.056185,0.145268,0.0,0.0,0.0,0,0
2026-06-16 16:24:43.789,93938,L_Ankle,0.0957,0.0202,1.0029,-0.66,-0.35,-1.92,-18.47,24.68,-29.22,0.987335,0.029145,-0.056215,0.145268,0.0,0.0,0.0,0,0
2026-06-16 16:24:43.792,93882,L_Hip,0.1126,-0.0749,0.9919,0.2,-0.25,0.79,-28.57,20.43,-35.11,0.990692,-0.033448,-0.06357,-0.115452,0.0,0.0,0.0,0,0
2026-06-16 16:24:43.795,93902,L_Hip,0.1122,-0.0705,0.9856,0.19,-0.25,0.78,-27.2,21.1,-35.71,0.990692,-0.033448,-0.06357,-0.115452,0.0,0.0,0.0,0,0
2026-06-16 16:24:43.797,93922,L_Hip,0.1141,-0.0641,0.9725,0.19,-0.24,0.77,-28.54,22.04,-35.41,0.990692,-0.033448,-0.063601,-0.115452,0.0,0.0,0.0,0,0
2026-06-16 16:24:43.800,93942,L_Hip,0.1151,-0.0656,0.9953,0.19,-0.24,0.77,-29.24,20.42,-35.39,0.990692,-0.033479,-0.063601,-0.115421,0.0,0.0,0.0,0,0
2026-06-16 16:24:43.802,93900,L_Ankle,0.1036,0.01,0.9741,-0.68,-0.37,-1.92,-18.63,25.57,-27.69,0.987335,0.029206,-0.056215,0.145268,0.0,0.0,0.0,0,0
2026-06-16 16:24:43.805,93920,L_Ankle,0.0942,0.0153,0.9822,-0.66,-0.37,-1.92,0.0,0.0,0.0,0.987335,0.029176,-0.056215,0.145268,0.0,0.0,0.0,0,0
2026-06-16 16:24:43.807,93940,L_Ankle,0.0889,0.0192,0.988,-0.66,-0.35,-1.93,-20.04,24.17,-29.42,0.987335,0.029176,-0.056215,0.145268,0.0,0.0,0.0,0,0
2026-06-16 16:24:43.809,93960,L_Ankle,0.0982,0.0251,0.9976,-0.67,-0.36,-1.93,-17.39,23.6,-28.53,0.987335,0.029145,-0.056246,0.145268,0.0,0.0,0.0,0,0
2026-06-16 16:24:43.812,93907,L_Hip,0.1156,-0.0656,0.987,0.19,-0.25,0.79,-29.41,21.22,-34.66,0.990692,-0.033448,-0.063631,-0.115452,0.0,0.0,0.0,0,0
2026-06-16 16:24:43.814,93927,L_Hip,0.1156,-0.0744,0.9914,0.19,-0.25,0.77,0.0,0.0,0.0,0.990692,-0.033479,-0.063631,-0.115452,0.0,0.0,0.0,0,0
2026-06-16 16:24:43.816,93947,L_Hip,0.1087,-0.0681,0.9904,0.19,-0.25,0.77,-29.25,21.38,-34.23,0.990692,-0.033479,-0.063601,-0.115421,0.0,0.0,0.0,0,0
2026-06-16 16:24:43.820,93967,L_Hip,0.1077,-0.07,0.9793,0.19,-0.24,0.77,-27.75,20.28,-34.39,0.990692,-0.033479,-0.063631,-0.115421,0.0,0.0,0.0,0,0
2026-06-16 16:24:43.821,3096943,R_Hip,0.0397,0.0089,0.9914,0.38,-0.29,9.35,-23.43,13.94,-38.09,0.996918,0.005188,-0.038301,-0.067934,0.0,0.0,0.0,0,0
2026-06-16 16:24:43.822,3096963,R_Hip,0.0417,0.0006,0.9847,0.36,-0.3,9.36,-23.79,14.3,-37.41,0.996918,0.005188,-0.038301,-0.067934,0.0,0.0,0.0,0,0
2026-06-16 16:24:43.824,3096983,R_Hip,0.0353,-0.0008,0.9779,0.37,-0.29,9.38,0.0,0.0,0.0,0.996918,0.005219,-0.038331,-0.067934,0.0,0.0,0.0,0,0
2026-06-16 16:24:43.826,3097003,R_Hip,0.0407,-0.0013,0.9972,0.38,-0.3,9.37,-21.97,13.93,-36.72,0.996918,0.005188,-0.038331,-0.067934,0.0,0.0,0.0,0,0
2026-06-16 16:24:43.828,93927,L_Shank,0.0272,-0.0028,0.9935,1.69,-0.74,-0.4,-0.89,10.74,-34.65,0.999298,-0.002228,-0.035401,0.009339,0.0,0.0,0.0,0,0
2026-06-16 16:24:43.831,93947,L_Shank,0.0257,-0.0067,0.9767,1.67,-0.72,-0.39,0.13,10.04,-33.41,0.999298,-0.002228,-0.035401,0.009308,0.0,0.0,0.0,0,0
2026-06-16 16:24:43.832,3096952,R_Ankle,0.0243,-0.0116,1.0081,0.77,-1.75,-0.5,-12.36,11.73,-51.84,0.330271,0.091403,0.007416,0.93939,0.0,0.0,0.0,0,0
2026-06-16 16:24:43.834,93967,L_Shank,0.036,-0.0058,0.9916,1.7,-0.74,-0.39,-0.38,10.88,-32.95,0.999298,-0.002258,-0.035432,0.009308,0.0,0.0,0.0,0,0
2026-06-16 16:24:43.835,3096972,R_Ankle,0.0204,-0.0106,1.0034,0.76,-1.75,-0.48,-11.5,11.57,-51.06,0.330271,0.091403,0.007416,0.93939,0.0,0.0,0.0,0,0
2026-06-16 16:24:43.838,93987,L_Shank,0.0257,-0.0048,0.9825,1.67,-0.73,-0.41,0.49,11.74,-33.74,0.999298,-0.002258,-0.035432,0.009308,0.0,0.0,0.0,0,0
2026-06-16 16:24:43.838,3096992,R_Ankle,0.0248,-0.0166,1.0134,0.76,-1.74,-0.49,0.0,0.0,0.0,0.330271,0.091403,0.007416,0.93939,0.0,0.0,0.0,0,0
2026-06-16 16:24:43.840,3096953,R_Ankle,0.0165,-0.0096,1.0062,0.76,-1.75,-0.49,-12.36,11.09,-50.9,0.330271,0.091433,0.007416,0.93939,0.0,0.0,0.0,0,0
2026-06-16 16:24:43.843,3096965,R_Hip,0.0387,0.0035,0.9909,0.35,-0.29,9.37,-23.98,14.49,-38.27,0.996918,0.005219,-0.038331,-0.067934,0.0,0.0,0.0,0,0
2026-06-16 16:24:43.845,3096985,R_Hip,0.0397,0.0064,0.9837,0.36,-0.29,9.35,-20.15,12.11,-37.74,0.996918,0.005219,-0.038331,-0.067934,0.0,0.0,0.0,0,0
2026-06-16 16:24:43.847,93945,L_Ankle,0.0982,0.0236,0.9842,-0.68,-0.35,-1.91,-18.8,23.97,-28.89,0.987335,0.029145,-0.056246,0.145268,0.0,0.0,0.0,0,0
2026-06-16 16:24:43.848,3097005,R_Hip,0.0377,0.0074,0.9948,0.37,-0.3,9.36,0.0,0.0,0.0,0.996918,0.005219,-0.038301,-0.067934,0.0,0.0,0.0,0,0
2026-06-16 16:24:43.850,93965,L_Ankle,0.0844,0.0183,0.9899,-0.67,-0.35,-1.93,-18.43,22.91,-28.89,0.987335,0.029145,-0.056215,0.145268,0.0,0.0,0.0,0,0
2026-06-16 16:24:43.851,3097025,R_Hip,0.0427,-0.0028,0.989,0.36,-0.3,9.37,-23.61,13.75,-37.58,0.996918,0.005249,-0.038301,-0.067934,0.0,0.0,0.0,0,0
2026-06-16 16:24:43.853,93985,L_Ankle,0.0879,0.0105,0.9981,-0.67,-0.36,-1.91,0.0,0.0,0.0,0.987335,0.029145,-0.056215,0.145268,0.0,0.0,0.0,0,0
2026-06-16 16:24:43.855,3096975,R_Ankle,0.0096,-0.0181,1.0019,0.76,-1.75,-0.5,-11.33,12.37,-51.22,0.330271,0.091433,0.007416,0.93939,0.0,0.0,0.0,0,0
2026-06-16 16:24:43.855,94005,L_Ankle,0.0987,0.0168,1.0019,-0.67,-0.37,-1.92,-18.29,24.5,-29.05,0.987335,0.029145,-0.056215,0.145268,0.0,0.0,0.0,0,0
2026-06-16 16:24:43.857,3096995,R_Ankle,0.0189,-0.0156,1.0144,0.77,-1.74,-0.51,-10.99,12.38,-51.52,0.330271,0.091464,0.007416,0.93939,0.0,0.0,0.0,0,0
2026-06-16 16:24:43.859,93957,L_Hip,0.1038,-0.0651,0.9841,0.2,-0.25,0.77,-30.43,20.23,-35.23,0.990692,-0.033479,-0.063601,-0.115452,0.0,0.0,0.0,0,0
2026-06-16 16:24:43.860,3097015,R_Ankle,0.013,-0.021,0.9957,0.76,-1.74,-0.5,0.0,0.0,0.0,0.330271,0.091433,0.007416,0.93939,0.0,0.0,0.0,0,0
2026-06-16 16:24:43.862,93977,L_Hip,0.1077,-0.07,0.9774,0.2,-0.23,0.8,0.0,0.0,0.0,0.990692,-0.033509,-0.063631,-0.115452,0.0,0.0,0.0,0,0
2026-06-16 16:24:43.863,3097035,R_Ankle,0.014,-0.0111,1.0129,0.76,-1.74,-0.5,-10.46,11.56,-48.89,0.330271,0.091403,0.007385,0.93939,0.0,0.0,0.0,0,0
2026-06-16 16:24:43.865,93997,L_Hip,0.1053,-0.0715,0.9837,0.2,-0.25,0.79,-28.54,21.72,-35.7,0.990692,-0.033479,-0.063601,-0.115452,0.0,0.0,0.0,0,0
2026-06-16 16:24:43.867,94017,L_Hip,0.1122,-0.0622,0.99,0.19,-0.25,0.78,-28.37,22.21,-35.26,0.990692,-0.033479,-0.06357,-0.115421,0.0,0.0,0.0,0,0
2026-06-16 16:24:43.870,93967,L_Ankle,0.0957,0.0178,0.9942,-0.67,-0.36,-1.92,-18.42,25.04,-26.5,0.987335,0.029115,-0.056215,0.145268,0.0,0.0,0.0,0,0
2026-06-16 16:24:43.871,93987,L_Ankle,0.0982,0.0188,0.9995,-0.66,-0.35,-1.92,-17.59,24.84,-29.04,0.987335,0.029115,-0.056215,0.145268,0.0,0.0,0.0,0,0
2026-06-16 16:24:43.874,94007,L_Ankle,0.0947,0.0173,0.9822,-0.67,-0.32,-1.92,0.0,0.0,0.0,0.987335,0.029115,-0.056215,0.145268,0.0,0.0,0.0,0,0
2026-06-16 16:24:43.876,3096998,R_Ankle,0.0189,-0.0121,1.012,0.75,-1.75,-0.49,-11.15,11.88,-50.13,0.330271,0.091403,0.007416,0.93939,0.0,0.0,0.0,0,0
2026-06-16 16:24:43.877,94027,L_Ankle,0.0884,0.0251,0.9846,-0.66,-0.34,-1.92,-19.14,22.92,-29.24,0.987335,0.029115,-0.056215,0.145268,0.0,0.0,0.0,0,0
2026-06-16 16:24:43.879,3097018,R_Ankle,0.016,-0.0126,1.012,0.76,-1.75,-0.5,-11.83,12.2,-50.76,0.330271,0.091372,0.007385,0.93939,0.0,0.0,0.0,0,0
2026-06-16 16:24:43.879,93972,L_Shank,0.015,-0.018,0.9849,1.69,-0.73,-0.41,0.48,11.4,-33.12,0.999298,-0.002258,-0.035432,0.009339,0.0,0.0,0.0,0,0
2026-06-16 16:24:43.882,3097038,R_Ankle,0.0145,-0.0156,1.0187,0.77,-1.75,-0.5,0.0,0.0,0.0,0.330271,0.091372,0.007385,0.93939,0.0,0.0,0.0,0,0
2026-06-16 16:24:43.882,93992,L_Shank,0.0272,-0.0121,0.9782,1.68,-0.74,-0.39,0.0,0.0,0.0,0.999298,-0.002258,-0.035432,0.009339,0.0,0.0,0.0,0,0
2026-06-16 16:24:43.885,3097058,R_Ankle,0.0219,-0.0106,1.0091,0.77,-1.74,-0.5,-11.17,10.63,-51.35,0.330302,0.091342,0.007385,0.93939,0.0,0.0,0.0,0,0
2026-06-16 16:24:43.885,94012,L_Shank,0.0189,-0.0126,0.9993,1.69,-0.74,-0.4,0.14,10.73,-33.73,0.999298,-0.002228,-0.035432,0.009339,0.0,0.0,0.0,0,0
2026-06-16 16:24:43.888,94032,L_Shank,0.0233,-0.0107,0.983,1.69,-0.74,-0.41,0.14,10.05,-34.03,0.999298,-0.002258,-0.035401,0.009339,0.0,0.0,0.0,0,0
2026-06-16 16:24:43.889,3097010,R_Hip,0.0377,-0.0013,0.9876,0.37,-0.3,9.37,-22.7,12.47,-36.72,0.996918,0.005219,-0.038331,-0.067934,0.0,0.0,0.0,0,0
2026-06-16 16:24:43.891,93982,L_Hip,0.1068,-0.0705,0.9769,0.17,-0.24,0.8,-28.39,20.27,-36.13,0.990692,-0.033479,-0.06357,-0.115421,0.0,0.0,0.0,0,0
2026-06-16 16:24:43.892,3097030,R_Hip,0.0358,-0.0037,0.9924,0.38,-0.29,9.36,-22.52,14.12,-37.24,0.996918,0.005249,-0.038331,-0.067934,0.0,0.0,0.0,0,0
2026-06-16 16:24:43.893,94002,L_Hip,0.1073,-0.0656,0.9822,0.18,-0.24,0.78,0.0,0.0,0.0,0.990692,-0.033448,-0.06357,-0.115421,0.0,0.0,0.0,0,0
2026-06-16 16:24:43.894,3097050,R_Hip,0.054,0.0059,0.989,0.36,-0.31,9.37,0.0,0.0,0.0,0.996918,0.005249,-0.038301,-0.067904,0.0,0.0,0.0,0,0
2026-06-16 16:24:43.897,94022,L_Hip,0.1102,-0.0715,0.99,0.19,-0.25,0.77,-28.52,21.72,-36.57,0.990692,-0.033448,-0.06357,-0.115421,0.0,0.0,0.0,0,0
2026-06-16 16:24:43.897,3097070,R_Hip,0.0377,-0.0028,0.9881,0.38,-0.29,9.38,-22.7,12.1,-36.72,0.996918,0.005219,-0.038331,-0.067904,0.0,0.0,0.0,0,0
2026-06-16 16:24:43.899,94042,L_Hip,0.1097,-0.071,0.9967,0.19,-0.24,0.77,-29.26,20.41,-34.23,0.990692,-0.033448,-0.06354,-0.115421,0.0,0.0,0.0,0,0
2026-06-16 16:24:43.900,3097020,R_Ankle,0.0199,-0.0146,1.001,0.77,-1.74,-0.49,-10.3,13.01,-50.91,0.330302,0.091311,0.007355,0.93939,0.0,0.0,0.0,0,0
2026-06-16 16:24:43.903,93990,L_Ankle,0.1006,0.0212,0.9957,-0.67,-0.36,-1.92,-18.61,24.15,-28.04,0.987335,0.029084,-0.056215,0.145268,0.0,0.0,0.0,0,0
2026-06-16 16:24:43.903,3097040,R_Ankle,0.0184,-0.019,1.0034,0.77,-1.75,-0.5,-11.5,12.21,-51.37,0.330302,0.091311,0.007355,0.93939,0.0,0.0,0.0,0,0
2026-06-16 16:24:43.905,94010,L_Ankle,0.0977,0.0139,0.9962,-0.67,-0.36,-1.93,-17.41,24.31,-29.21,0.987335,0.029115,-0.056215,0.145268,0.0,0.0,0.0,0,0
2026-06-16 16:24:43.905,3097060,R_Ankle,0.0243,-0.0156,1.0067,0.77,-1.76,-0.48,0.0,0.0,0.0,0.330302,0.091311,0.007324,0.93939,0.0,0.0,0.0,0,0
2026-06-16 16:24:43.909,94030,L_Ankle,0.0918,0.0188,0.988,-0.66,-0.37,-1.91,0.0,0.0,0.0,0.987335,0.029084,-0.056215,0.145268,0.0,0.0,0.0,0,0
2026-06-16 16:24:43.910,3097080,R_Ankle,0.0219,-0.0116,0.9976,0.76,-1.75,-0.5,-12.02,11.73,-51.52,0.330302,0.091311,0.007355,0.93939,0.0,0.0,0.0,0,0
2026-06-16 16:24:43.911,94050,L_Ankle,0.0987,0.0163,1.0014,-0.67,-0.36,-1.92,-16.54,25.18,-28.68,0.987335,0.029084,-0.056246,0.145268,0.0,0.0,0.0,0,0
2026-06-16 16:24:43.914,93995,L_Shank,0.0238,-0.0136,0.9791,1.68,-0.74,-0.41,0.85,11.42,-34.68,0.999298,-0.002289,-0.035401,0.009339,0.0,0.0,0.0,0,0
2026-06-16 16:24:43.916,94015,L_Shank,0.0301,-0.0116,0.995,1.68,-0.73,-0.39,0.0,0.0,0.0,0.999298,-0.002289,-0.035401,0.009308,0.0,0.0,0.0,0,0
2026-06-16 16:24:43.916,3097037,R_Shank,-0.0974,2.3756,1.0037,-0.02,-0.88,-1.57,-13.4,6.01,-46.88,0.919065,0.024598,0.0206,-0.392773,0.0,0.0,0.0,0,0
2026-06-16 16:24:43.919,94035,L_Shank,0.035,-0.0092,0.9834,1.68,-0.72,-0.39,-0.54,10.4,-34.65,0.999298,-0.002289,-0.035401,0.009308,0.0,0.0,0.0,0,0
2026-06-16 16:24:43.919,3097057,R_Shank,-0.0807,2.246,0.9999,-0.02,-0.88,-1.57,-13.59,6.51,-46.12,0.919065,0.024628,0.020631,-0.392773,0.0,0.0,0.0,0,0
2026-06-16 16:24:43.922,94055,L_Shank,0.0301,-0.0043,0.9801,1.69,-0.74,-0.41,0.32,10.91,-34.51,0.999298,-0.002258,-0.035401,0.009308,0.0,0.0,0.0,0,0
2026-06-16 16:24:43.922,3097038,R_Shank,-0.0876,1.7344,1.0066,-0.02,-0.88,-1.55,0.0,0.0,0.0,0.919065,0.024628,0.020631,-0.392773,0.0,0.0,0.0,0,0
2026-06-16 16:24:43.924,94017,L_Shank,0.0287,-0.0023,0.9844,1.7,-0.73,-0.4,-0.2,10.72,-33.72,0.999298,-0.002289,-0.035432,0.009308,0.0,0.0,0.0,0,0
2026-06-16 16:24:43.925,3097058,R_Shank,-0.0881,-1.866,0.9864,-0.02,-0.9,-1.56,-13.71,4.36,-46.59,0.919065,0.024598,0.020631,-0.392773,0.0,0.0,0.0,0,0
2026-06-16 16:24:43.927,94037,L_Shank,0.0194,-0.0048,0.983,1.7,-0.73,-0.4,0.0,0.0,0.0,0.999298,-0.002289,-0.035432,0.009308,0.0,0.0,0.0,0,0
2026-06-16 16:24:43.928,3097043,R_Ankle,0.0165,-0.0052,0.9971,0.77,-1.74,-0.5,-11.84,11.89,-51.37,0.330302,0.091342,0.007324,0.93939,0.0,0.0,0.0,0,0
2026-06-16 16:24:43.929,94057,L_Shank,0.0243,0.0024,0.9998,1.7,-0.73,-0.38,0.48,11.73,-32.81,0.999298,-0.002289,-0.035401,0.009308,0.0,0.0,0.0,0,0
2026-06-16 16:24:43.930,3097063,R_Ankle,0.0135,-0.0116,0.9986,0.76,-1.74,-0.49,-10.64,12.05,-50.59,0.330302,0.091342,0.007324,0.93939,0.0,0.0,0.0,0,0
2026-06-16 16:24:43.932,94077,L_Shank,0.0306,-0.0131,0.9786,1.7,-0.74,-0.39,-0.01,9.23,-35.73,0.999298,-0.002258,-0.035401,0.009308,0.0,0.0,0.0,0,0
2026-06-16 16:24:43.933,3097083,R_Ankle,0.0238,-0.0126,0.999,0.77,-1.75,-0.5,-10.98,12.69,-50.91,0.330302,0.091342,0.007355,0.93939,0.0,0.0,0.0,0,0
2026-06-16 16:24:43.935,3097103,R_Ankle,0.0233,-0.0205,1.0048,0.77,-1.74,-0.5,-12.01,11.4,-50.6,0.330302,0.091342,0.007355,0.93939,0.0,0.0,0.0,0,0
2026-06-16 16:24:43.935,94032,L_Hip,0.1151,-0.0779,0.9817,0.18,-0.24,0.77,-28.38,21.56,-35.26,0.990692,-0.033479,-0.06354,-0.115421,0.0,0.0,0.0,0,0
2026-06-16 16:24:43.937,3097055,R_Hip,0.0402,0.0035,1.003,0.38,-0.31,9.35,-22.88,12.29,-37.92,0.996918,0.005219,-0.038331,-0.067904,0.0,0.0,0.0,0,0
2026-06-16 16:24:43.938,94052,L_Hip,0.1117,-0.0671,0.9759,0.19,-0.24,0.77,0.0,0.0,0.0,0.990692,-0.033448,-0.06354,-0.115421,0.0,0.0,0.0,0,0
2026-06-16 16:24:43.940,3097075,R_Hip,0.0358,0.0108,0.99,0.38,-0.3,9.35,-22.52,13.75,-37.58,0.996918,0.005219,-0.038331,-0.067904,0.0,0.0,0.0,0,0
2026-06-16 16:24:43.941,94072,L_Hip,0.1195,-0.072,0.9749,0.2,-0.24,0.77,-29.61,20.73,-33.64,0.990692,-0.033448,-0.06354,-0.115421,0.0,0.0,0.0,0,0
2026-06-16 16:24:43.943,3097095,R_Hip,0.0323,-0.0067,0.9751,0.38,-0.3,9.36,0.0,0.0,0.0,0.996918,0.005219,-0.038331,-0.067904,0.0,0.0,0.0,0,0
2026-06-16 16:24:43.944,94092,L_Hip,0.1112,-0.0681,0.9725,0.19,-0.25,0.79,-29.41,20.57,-35.24,0.990692,-0.033479,-0.06357,-0.115421,0.0,0.0,0.0,0,0
2026-06-16 16:24:43.946,3097115,R_Hip,0.0387,0.0089,0.9842,0.38,-0.32,9.36,-24.34,12.66,-37.24,0.996918,0.005219,-0.038331,-0.067904,0.0,0.0,0.0,0,0
2026-06-16 16:24:43.947,94035,L_Ankle,0.0884,0.0202,0.9798,-0.67,-0.36,-1.92,-17.94,24.85,-29.04,0.987335,0.029084,-0.056246,0.145268,0.0,0.0,0.0,0,0
2026-06-16 16:24:43.949,3097060,R_Shank,-0.0974,-2.7664,1.0104,-0.03,-0.85,-1.56,-13.89,5.19,-46.73,0.919004,0.024537,0.020661,-0.392865,0.0,0.0,0.0,0,0
2026-06-16 16:24:43.950,94055,L_Ankle,0.0879,0.0212,0.9942,-0.67,-0.36,-1.92,-18.25,23.44,-28.03,0.987335,0.029084,-0.056246,0.145268,0.0,0.0,0.0,0,0
2026-06-16 16:24:43.951,3097080,R_Shank,-0.092,-1.7368,1.0186,-0.03,-0.87,-1.54,-14.93,6.21,-46.11,0.919004,0.024567,0.020692,-0.392865,0.0,0.0,0.0,0,0
2026-06-16 16:24:43.952,94075,L_Ankle,0.0913,0.0173,0.9899,-0.67,-0.36,-1.93,0.0,0.0,0.0,0.987335,0.029084,-0.056246,0.145268,0.0,0.0,0.0,0,0
2026-06-16 16:24:43.953,3097100,R_Shank,-0.096,2.246,0.9941,-0.03,-0.89,-1.56,0.0,0.0,0.0,0.919004,0.024567,0.020722,-0.392865,0.0,0.0,0.0,0,0
2026-06-16 16:24:43.955,94095,L_Ankle,0.0933,0.0178,0.9933,-0.67,-0.35,-1.92,-18.26,23.79,-28.37,0.987335,0.029115,-0.056246,0.145268,0.0,0.0,0.0,0,0
2026-06-16 16:24:43.957,3097120,R_Shank,-0.0945,-0.1956,0.9951,-0.02,-0.9,-1.57,-13.56,5.18,-46.44,0.919004,0.024567,0.020692,-0.392865,0.0,0.0,0.0,0,0
2026-06-16 16:24:43.958,94040,L_Shank,0.0208,-0.0038,0.9815,1.7,-0.75,-0.4,0.32,12.6,-34.22,0.999298,-0.002228,-0.035401,0.009308,0.0,0.0,0.0,0,0
2026-06-16 16:24:43.959,3097065,R_Ankle,0.0135,-0.0131,1.0115,0.77,-1.75,-0.5,-10.99,12.37,-51.21,0.330302,0.091342,0.007324,0.93939,0.0,0.0,0.0,0,0
2026-06-16 16:24:43.960,94060,L_Shank,0.0287,0.0,0.9863,1.7,-0.73,-0.4,0.0,0.0,0.0,0.999298,-0.002228,-0.035371,0.009339,0.0,0.0,0.0,0,0
2026-06-16 16:24:43.963,3097085,R_Ankle,0.0297,-0.0116,1.0139,0.77,-1.75,-0.51,0.0,0.0,0.0,0.330302,0.091403,0.007355,0.93939,0.0,0.0,0.0,0,0
2026-06-16 16:24:43.964,94080,L_Shank,0.0262,-0.0004,0.9897,1.69,-0.74,-0.4,-0.54,9.71,-34.33,0.999298,-0.002228,-0.035401,0.009339,0.0,0.0,0.0,0,0
2026-06-16 16:24:43.966,3097105,R_Ankle,0.014,-0.0086,1.0053,0.77,-1.75,-0.5,-11.33,11.09,-50.28,0.330302,0.091372,0.007355,0.93939,0.0,0.0,0.0,0,0
2026-06-16 16:24:43.966,94100,L_Shank,0.034,0.0015,0.9988,1.69,-0.74,-0.41,-0.02,10.22,-34.19,0.999298,-0.002228,-0.035371,0.009339,0.0,0.0,0.0,0,0
2026-06-16 16:24:43.969,3097125,R_Ankle,0.014,-0.0076,1.0201,0.76,-1.76,-0.5,0.0,0.0,0.0,0.330302,0.091372,0.007355,0.93939,0.0,0.0,0.0,0,0
2026-06-16 16:24:43.969,94062,L_Shank,0.0321,-0.0097,0.9878,1.69,-0.74,-0.4,0.14,11.07,-34.04,0.999298,-0.002197,-0.035401,0.009339,0.0,0.0,0.0,0,0
2026-06-16 16:24:43.971,3097077,R_Hip,0.0362,-0.0023,0.9832,0.37,-0.29,9.35,-22.88,13.75,-37.58,0.996918,0.005219,-0.038331,-0.067904,0.0,0.0,0.0,0,0
2026-06-16 16:24:43.972,94082,L_Shank,0.0179,-0.0038,0.9892,1.68,-0.74,-0.4,0.0,0.0,0.0,0.999298,-0.002167,-0.035401,0.009339,0.0,0.0,0.0,0,0
2026-06-16 16:24:43.974,3097078,R_Hip,0.0377,0.0015,0.9856,0.35,-0.29,9.35,-25.44,14.12,-38.95,0.996918,0.005219,-0.038331,-0.067934,0.0,0.0,0.0,0,0
2026-06-16 16:24:43.974,94102,L_Shank,0.0179,-0.0048,0.9964,1.68,-0.74,-0.39,-0.71,10.91,-35.12,0.999298,-0.002167,-0.035432,0.009339,0.0,0.0,0.0,0,0
2026-06-16 16:24:43.976,3097098,R_Hip,0.0451,0.0064,0.9832,0.38,-0.3,9.36,0.0,0.0,0.0,0.996918,0.005219,-0.038331,-0.067934,0.0,0.0,0.0,0,0
2026-06-16 16:24:43.977,94122,L_Shank,0.0277,-0.0151,0.9892,1.7,-0.73,-0.38,-0.37,10.57,-34.5,0.999298,-0.002167,-0.035463,0.009339,0.0,0.0,0.0,0,0
2026-06-16 16:24:43.978,3097118,R_Hip,0.0343,-0.0013,0.9876,0.37,-0.29,9.36,-21.61,12.47,-38.09,0.996918,0.005219,-0.038362,-0.067934,0.0,0.0,0.0,0,0
2026-06-16 16:24:43.980,3097088,R_Ankle,0.0106,-0.0067,1.0072,0.77,-1.75,-0.49,-11.31,12.04,-49.67,0.330302,0.091372,0.007355,0.93939,0.0,0.0,0.0,0,0
2026-06-16 16:24:43.981,94080,L_Ankle,0.0928,0.0271,1.0048,-0.67,-0.37,-1.92,-17.76,23.25,-29.9,0.987335,0.029115,-0.056215,0.145268,0.0,0.0,0.0,0,0
2026-06-16 16:24:43.983,3097108,R_Ankle,0.0194,-0.0121,0.9995,0.77,-1.75,-0.48,-12.34,12.67,-50.61,0.330302,0.091403,0.007355,0.93939,0.0,0.0,0.0,0,0
2026-06-16 16:24:43.984,94100,L_Ankle,0.0908,0.0149,0.987,-0.65,-0.35,-1.92,-19.65,23.82,-27.72,0.987335,0.029115,-0.056215,0.145268,0.0,0.0,0.0,0,0
2026-06-16 16:24:43.985,3097128,R_Ankle,0.0145,-0.0101,0.9981,0.76,-1.75,-0.5,-11.51,10.62,-50.74,0.330302,0.091403,0.007385,0.93939,0.0,0.0,0.0,0,0
2026-06-16 16:24:43.987,94120,L_Ankle,0.0889,0.0202,0.9909,-0.68,-0.35,-1.92,-19.0,25.22,-29.06,0.987335,0.029115,-0.056215,0.145238,0.0,0.0,0.0,0,0
2026-06-16 16:24:43.988,3097148,R_Ankle,0.0155,-0.022,0.9995,0.77,-1.74,-0.49,0.0,0.0,0.0,0.330302,0.091433,0.007385,0.93939,0.0,0.0,0.0,0,0
2026-06-16 16:24:43.990,94140,L_Ankle,0.0898,0.0222,0.9842,-0.67,-0.36,-1.93,0.0,0.0,0.0,0.987335,0.029115,-0.056185,0.145268,0.0,0.0,0.0,0,0
2026-06-16 16:24:43.991,3097110,R_Ankle,0.0189,-0.0126,1.0024,0.75,-1.74,-0.5,-10.29,12.68,-49.98,0.330302,0.091433,0.007355,0.93939,0.0,0.0,0.0,0,0
2026-06-16 16:24:43.993,94082,L_Hip,0.1077,-0.0764,0.9861,0.19,-0.23,0.78,-29.75,20.57,-35.24,0.990692,-0.033509,-0.06357,-0.115421,0.0,0.0,0.0,0,0
2026-06-16 16:24:43.993,3097130,R_Ankle,0.0238,-0.0161,0.9947,0.76,-1.75,-0.51,-8.94,11.43,-50.56,0.330302,0.091433,0.007324,0.93939,0.0,0.0,0.0,0,0
2026-06-16 16:24:43.995,94102,L_Hip,0.1122,-0.0631,0.987,0.19,-0.25,0.78,0.0,0.0,0.0,0.990692,-0.033509,-0.06357,-0.115421,0.0,0.0,0.0,0,0
2026-06-16 16:24:43.996,3097150,R_Ankle,0.0155,-0.0161,1.0024,0.77,-1.76,-0.48,-11.51,11.26,-51.67,0.330302,0.091464,0.007324,0.93939,0.0,0.0,0.0,0,0
2026-06-16 16:24:43.998,94122,L_Hip,0.1156,-0.0676,0.9788,0.19,-0.25,0.77,-28.39,20.92,-35.55,0.990692,-0.033509,-0.06357,-0.115421,0.0,0.0,0.0,0,0
2026-06-16 16:24:43.999,3097170,R_Ankle,0.016,-0.0136,1.0019,0.77,-1.75,-0.49,-10.64,12.69,-51.21,0.330302,0.091464,0.007324,0.93939,0.0,0.0,0.0,0,0
2026-06-16 16:24:44.001,94142,L_Hip,0.122,-0.0631,0.9846,0.19,-0.25,0.78,-29.45,19.92,-33.79,0.990692,-0.033509,-0.06357,-0.115421,0.0,0.0,0.0,0,0
2026-06-16 16:24:44.001,3097122,R_Hip,0.0377,-0.0023,1.0068,0.37,-0.3,9.37,-24.34,14.12,-37.24,0.996918,0.005219,-0.038331,-0.067934,0.0,0.0,0.0,0,0
2026-06-16 16:24:44.004,3097142,R_Hip,0.0387,0.0079,0.9823,0.38,-0.3,9.36,-22.15,12.29,-37.23,0.996918,0.005219,-0.038362,-0.067934,0.0,0.0,0.0,0,0
2026-06-16 16:24:44.005,94085,L_Shank,0.0228,-0.0019,0.9806,1.7,-0.73,-0.39,-0.37,10.22,-33.87,0.999298,-0.002167,-0.035432,0.009339,0.0,0.0,0.0,0,0
2026-06-16 16:24:44.007,3097162,R_Hip,0.0323,0.0045,0.9789,0.36,-0.31,9.36,0.0,0.0,0.0,0.996918,0.005219,-0.038331,-0.067934,0.0,0.0,0.0,0,0
2026-06-16 16:24:44.007,94105,L_Shank,0.0179,-0.0067,0.9897,1.7,-0.73,-0.4,0.0,0.0,0.0,0.999298,-0.002167,-0.035432,0.009339,0.0,0.0,0.0,0,0
2026-06-16 16:24:44.009,3097123,R_Hip,0.0397,0.0074,1.0063,0.36,-0.3,9.35,-23.43,13.57,-37.75,0.996918,0.005219,-0.038331,-0.067934,0.0,0.0,0.0,0,0
2026-06-16 16:24:44.010,94125,L_Shank,0.0311,-0.0116,0.9618,1.69,-0.74,-0.4,0.85,11.08,-34.67,0.999298,-0.002167,-0.035401,0.009339,0.0,0.0,0.0,0,0
2026-06-16 16:24:44.012,94145,L_Shank,0.0228,-0.0033,0.982,1.69,-0.74,-0.38,1.19,11.41,-34.06,0.999298,-0.002136,-0.035401,0.009339,0.0,0.0,0.0,0,0
2026-06-16 16:24:44.014,94107,L_Hip,0.1126,-0.0587,0.9725,0.19,-0.25,0.78,-29.41,20.57,-35.24,0.990692,-0.033509,-0.06357,-0.115421,0.0,0.0,0.0,0,0
2026-06-16 16:24:44.017,94127,L_Hip,0.0984,-0.071,0.9929,0.19,-0.25,0.78,-30.26,20.08,-35.66,0.990692,-0.033509,-0.063601,-0.115421,0.0,0.0,0.0,0,0
2026-06-16 16:24:44.018,94147,L_Hip,0.119,-0.0749,0.987,0.18,-0.25,0.78,0.0,0.0,0.0,0.990692,-0.033479,-0.063601,-0.115421,0.0,0.0,0.0,0,0
2026-06-16 16:24:44.021,94167,L_Hip,0.121,-0.0636,0.9837,0.21,-0.25,0.79,-28.23,20.76,-35.12,0.990692,-0.033479,-0.063601,-0.115421,0.0,0.0,0.0,0,0
2026-06-16 16:24:44.025,94124,L_Ankle,0.0933,0.0217,0.9933,-0.66,-0.35,-1.91,-17.94,23.78,-29.73,0.987365,0.029115,-0.056185,0.145238,0.0,0.0,0.0,0,0
2026-06-16 16:24:44.027,94144,L_Ankle,0.0864,0.0197,0.9928,-0.67,-0.36,-1.92,-17.56,23.07,-28.7,0.987335,0.029145,-0.056185,0.145268,0.0,0.0,0.0,0,0
2026-06-16 16:24:44.029,94164,L_Ankle,0.0996,0.0105,1.0072,-0.67,-0.36,-1.92,0.0,0.0,0.0,0.987335,0.029115,-0.056154,0.145268,0.0,0.0,0.0,0,0
2026-06-16 16:24:44.031,94184,L_Ankle,0.1001,0.029,0.9837,-0.67,-0.36,-1.91,-18.46,23.61,-29.91,0.987365,0.029115,-0.056154,0.145268,0.0,0.0,0.0,0,0
2026-06-16 16:24:44.034,94130,L_Shank,0.0277,0.002,0.9729,1.69,-0.74,-0.4,-0.2,10.72,-33.72,0.999298,-0.002136,-0.035401,0.009339,0.0,0.0,0.0,0,0
2026-06-16 16:24:44.036,94150,L_Shank,0.0243,-0.0023,0.9782,1.69,-0.74,-0.39,0.0,0.0,0.0,0.999298,-0.002106,-0.035401,0.009339,0.0,0.0,0.0,0,0
2026-06-16 16:24:44.038,94170,L_Shank,0.0262,-0.0082,0.9777,1.7,-0.74,-0.38,0.31,9.87,-33.56,0.999298,-0.002136,-0.035432,0.009339,0.0,0.0,0.0,0,0
2026-06-16 16:24:44.039,94190,L_Shank,0.0189,-0.0033,0.9748,1.7,-0.72,-0.39,0.3,10.54,-32.64,0.999298,-0.002136,-0.035432,0.009339,0.0,0.0,0.0,0,0
2026-06-16 16:24:44.045,3097168,R_Hip,0.0343,0.0069,0.9905,0.36,-0.3,9.36,-24.34,13.02,-36.9,0.996918,0.005249,-0.038362,-0.067934,0.0,0.0,0.0,0,0
2026-06-16 16:24:44.048,3097188,R_Hip,0.0382,0.004,0.9871,0.38,-0.29,9.35,-23.61,14.12,-37.92,0.996918,0.005249,-0.038331,-0.067934,0.0,0.0,0.0,0,0
2026-06-16 16:24:44.049,94147,L_Ankle,0.0962,0.0173,0.988,-0.66,-0.38,-1.9,-18.62,23.44,-29.4,0.987335,0.029115,-0.056154,0.145268,0.0,0.0,0.0,0,0
2026-06-16 16:24:44.051,3097208,R_Hip,0.0318,0.0001,0.99,0.37,-0.3,9.37,0.0,0.0,0.0,0.996918,0.005249,-0.038331,-0.067934,0.0,0.0,0.0,0,0
2026-06-16 16:24:44.052,94167,L_Ankle,0.0962,0.0183,0.9846,-0.66,-0.37,-1.91,-18.09,23.25,-29.22,0.987365,0.029115,-0.056154,0.145268,0.0,0.0,0.0,0,0
2026-06-16 16:24:44.054,3097228,R_Hip,0.0377,0.0035,0.9861,0.37,-0.29,9.37,-23.43,13.2,-37.75,0.996918,0.00528,-0.038301,-0.067934,0.0,0.0,0.0,0,0
2026-06-16 16:24:44.055,94187,L_Ankle,0.0903,0.0129,0.9962,-0.66,-0.36,-1.92,-17.91,23.79,-28.03,0.987335,0.029115,-0.056185,0.145268,0.0,0.0,0.0,0,0
2026-06-16 16:24:44.057,3097178,R_Ankle,0.0253,-0.0156,1.0115,0.77,-1.74,-0.51,-11.33,12.05,-50.9,0.330271,0.091464,0.007324,0.93939,0.0,0.0,0.0,0,0
2026-06-16 16:24:44.059,94207,L_Ankle,0.0893,0.0168,0.975,-0.66,-0.36,-1.92,-19.3,23.45,-28.05,0.987335,0.029115,-0.056185,0.145268,0.0,0.0,0.0,0,0
2026-06-16 16:24:44.060,3097198,R_Ankle,0.0263,-0.0057,1.0163,0.77,-1.75,-0.51,-11.49,11.88,-49.83,0.330302,0.091464,0.007324,0.93939,0.0,0.0,0.0,0,0
2026-06-16 16:24:44.061,94152,L_Shank,0.0301,0.0005,0.9791,1.7,-0.74,-0.4,-0.9,9.71,-33.7,0.999298,-0.002136,-0.035432,0.009339,0.0,0.0,0.0,0,0
2026-06-16 16:24:44.063,3097218,R_Ankle,0.0175,-0.0161,1.0034,0.77,-1.74,-0.5,-11.17,10.94,-51.04,0.330302,0.091494,0.007324,0.93939,0.0,0.0,0.0,0,0
2026-06-16 16:24:44.065,94172,L_Shank,0.0248,-0.0033,0.9767,1.69,-0.72,-0.4,-0.36,10.57,-35.12,0.999298,-0.002106,-0.035432,0.009369,0.0,0.0,0.0,0,0
2026-06-16 16:24:44.065,3097238,R_Ankle,0.0273,-0.0141,1.0144,0.77,-1.75,-0.48,-10.12,12.21,-50.12,0.330302,0.091464,0.007324,0.93939,0.0,0.0,0.0,0,0
2026-06-16 16:24:44.067,94192,L_Shank,0.0233,-0.0072,0.983,1.7,-0.74,-0.39,0.0,0.0,0.0,0.999298,-0.002106,-0.035432,0.009339,0.0,0.0,0.0,0,0
2026-06-16 16:24:44.070,94212,L_Shank,0.0282,-0.0116,0.97,1.69,-0.73,-0.39,0.32,11.24,-34.2,0.999298,-0.002106,-0.035432,0.009339,0.0,0.0,0.0,0,0
2026-06-16 16:24:44.070,3097190,R_Hip,0.0377,-0.0096,0.9967,0.37,-0.29,9.35,-22.88,13.75,-38.26,0.996918,0.005249,-0.03827,-0.067934,0.0,0.0,0.0,0,0
2026-06-16 16:24:44.073,94157,L_Hip,0.1122,-0.0676,0.9808,0.19,-0.24,0.79,-30.24,21.36,-35.38,0.990692,-0.033479,-0.063601,-0.115421,0.0,0.0,0.0,0,0
2026-06-16 16:24:44.073,3097210,R_Hip,0.0417,-0.0106,0.9823,0.38,-0.31,9.35,-23.98,12.29,-37.92,0.996918,0.00528,-0.03827,-0.067934,0.0,0.0,0.0,0,0
2026-06-16 16:24:44.075,3097230,R_Hip,0.0353,0.0006,0.9818,0.38,-0.29,9.35,0.0,0.0,0.0,0.996918,0.005249,-0.03827,-0.067934,0.0,0.0,0.0,0,0
2026-06-16 16:24:44.076,94177,L_Hip,0.1166,-0.0622,0.9793,0.2,-0.24,0.77,-29.92,21.05,-34.8,0.990692,-0.033479,-0.063601,-0.11539,0.0,0.0,0.0,0,0
2026-06-16 16:24:44.078,3097250,R_Hip,0.0382,-0.0013,0.9881,0.38,-0.29,9.36,-23.98,12.66,-37.92,0.996918,0.005249,-0.03827,-0.067965,0.0,0.0,0.0,0,0
2026-06-16 16:24:44.079,94197,L_Hip,0.1185,-0.0739,0.9822,0.19,-0.25,0.8,0.0,0.0,0.0,0.990692,-0.033479,-0.063601,-0.11539,0.0,0.0,0.0,0,0
2026-06-16 16:24:44.081,3097200,R_Ankle,0.0145,-0.0086,0.9943,0.75,-1.74,-0.5,-11.67,12.05,-51.52,0.330271,0.091494,0.007324,0.93939,0.0,0.0,0.0,0,0
2026-06-16 16:24:44.082,94217,L_Hip,0.119,-0.0793,0.9764,0.19,-0.24,0.8,-28.36,20.92,-37.0,0.990692,-0.033448,-0.063631,-0.11539,0.0,0.0,0.0,0,0
2026-06-16 16:24:44.083,3097220,R_Ankle,0.0145,-0.0181,0.9947,0.77,-1.74,-0.5,0.0,0.0,0.0,0.330302,0.091494,0.007355,0.93939,0.0,0.0,0.0,0,0
2026-06-16 16:24:44.085,94182,L_Hip,0.1028,-0.0715,0.9948,0.2,-0.25,0.79,-28.79,19.61,-33.51,0.990692,-0.033479,-0.063662,-0.11539,0.0,0.0,0.0,0,0
2026-06-16 16:24:44.086,3097240,R_Ankle,0.0179,-0.0062,1.0034,0.77,-1.74,-0.49,-11.16,11.26,-51.05,0.330302,0.091494,0.007355,0.93939,0.0,0.0,0.0,0,0
2026-06-16 16:24:44.088,94202,L_Hip,0.1092,-0.0661,0.9919,0.19,-0.24,0.77,-29.74,21.21,-34.95,0.990692,-0.033509,-0.063662,-0.11539,0.0,0.0,0.0,0,0
2026-06-16 16:24:44.089,3097260,R_Ankle,0.0243,-0.0176,1.0072,0.77,-1.74,-0.51,-10.82,11.58,-51.05,0.330302,0.091494,0.007355,0.93939,0.0,0.0,0.0,0,0
2026-06-16 16:24:44.090,94222,L_Hip,0.1102,-0.0646,0.9711,0.19,-0.23,0.79,0.0,0.0,0.0,0.990692,-0.033479,-0.063662,-0.11539,0.0,0.0,0.0,0,0
2026-06-16 16:24:44.093,94242,L_Hip,0.1141,-0.071,0.9764,0.19,-0.25,0.77,-28.88,22.03,-35.11,0.990692,-0.033479,-0.063631,-0.11536,0.0,0.0,0.0,0,0
2026-06-16 16:24:44.095,94192,L_Ankle,0.0991,0.0183,0.9914,-0.66,-0.36,-1.91,-18.09,23.25,-29.22,0.987335,0.029115,-0.056185,0.145268,0.0,0.0,0.0,0,0
2026-06-16 16:24:44.097,94212,L_Ankle,0.0957,0.0251,0.9957,-0.67,-0.36,-1.91,-17.55,23.07,-28.36,0.987335,0.029084,-0.056185,0.145268,0.0,0.0,0.0,0,0
2026-06-16 16:24:44.099,94232,L_Ankle,0.0879,0.0173,0.999,-0.67,-0.35,-1.92,-19.84,23.28,-29.25,0.987335,0.029115,-0.056185,0.145268,0.0,0.0,0.0,0,0
2026-06-16 16:24:44.102,94252,L_Ankle,0.0859,0.0227,0.9808,-0.67,-0.35,-1.91,-18.26,23.08,-28.71,0.987335,0.029115,-0.056185,0.145268,0.0,0.0,0.0,0,0
2026-06-16 16:24:44.121,94220,L_Shank,0.0233,-0.0058,0.9782,1.7,-0.73,-0.4,0.15,11.42,-34.67,0.999298,-0.002106,-0.035432,0.009369,0.0,0.0,0.0,0,0
2026-06-16 16:24:44.123,94240,L_Shank,0.0252,-0.0028,0.9868,1.69,-0.74,-0.4,-0.2,10.39,-34.34,0.999298,-0.002106,-0.035432,0.009369,0.0,0.0,0.0,0,0
2026-06-16 16:24:44.125,3097245,R_Ankle,0.0145,-0.0146,1.0024,0.77,-1.74,-0.49,-11.85,10.3,-50.74,0.330302,0.091525,0.007324,0.93939,0.0,0.0,0.0,0,0
2026-06-16 16:24:44.126,94260,L_Shank,0.0282,-0.0097,0.9815,1.69,-0.73,-0.39,0.0,0.0,0.0,0.999298,-0.002075,-0.035463,0.009369,0.0,0.0,0.0,0,0
2026-06-16 16:24:44.128,3097265,R_Ankle,0.017,-0.0047,1.0153,0.77,-1.74,-0.48,0.0,0.0,0.0,0.330271,0.091494,0.007355,0.93939,0.0,0.0,0.0,0,0
2026-06-16 16:24:44.129,94280,L_Shank,0.035,-0.0033,0.9815,1.68,-0.73,-0.39,0.14,10.05,-33.72,0.999298,-0.002075,-0.035463,0.009369,0.0,0.0,0.0,0,0
2026-06-16 16:24:44.130,3097285,R_Ankle,0.0224,-0.0205,1.0139,0.75,-1.75,-0.5,-10.3,12.69,-50.59,0.330271,0.091494,0.007385,0.93939,0.0,0.0,0.0,0,0
2026-06-16 16:24:44.132,3097305,R_Ankle,0.0243,-0.0126,1.0077,0.77,-1.74,-0.49,-10.64,11.73,-50.28,0.330271,0.091494,0.007355,0.93939,0.0,0.0,0.0,0,0
2026-06-16 16:24:44.136,3097258,R_Hip,0.0372,0.0079,0.9881,0.37,-0.3,9.36,-22.33,12.47,-37.06,0.996918,0.005249,-0.03827,-0.067965,0.0,0.0,0.0,0,0
2026-06-16 16:24:44.138,3097278,R_Hip,0.0333,0.004,0.9967,0.37,-0.29,9.35,-23.98,12.29,-38.26,0.996918,0.005249,-0.03824,-0.067934,0.0,0.0,0.0,0,0
2026-06-16 16:24:44.139,94237,L_Ankle,0.0947,0.0139,0.9909,-0.67,-0.36,-1.9,-18.26,23.79,-28.37,0.987335,0.029115,-0.056154,0.145268,0.0,0.0,0.0,0,0
2026-06-16 16:24:44.141,3097298,R_Hip,0.0313,0.0035,0.9789,0.38,-0.29,9.35,0.0,0.0,0.0,0.996918,0.005249,-0.03824,-0.067934,0.0,0.0,0.0,0,0
2026-06-16 16:24:44.141,94257,L_Ankle,0.1011,0.0197,0.9837,-0.67,-0.36,-1.93,0.0,0.0,0.0,0.987335,0.029115,-0.056154,0.145268,0.0,0.0,0.0,0,0
2026-06-16 16:24:44.144,3097318,R_Hip,0.0431,-0.0062,0.9958,0.38,-0.29,9.37,-22.52,12.66,-38.26,0.996918,0.005249,-0.03824,-0.067965,0.0,0.0,0.0,0,0
2026-06-16 16:24:44.145,94277,L_Ankle,0.0942,0.0158,0.9933,-0.67,-0.37,-1.9,-17.94,24.49,-29.04,0.987335,0.029115,-0.056154,0.145268,0.0,0.0,0.0,0,0
2026-06-16 16:24:44.147,3097267,R_Ankle,0.0184,-0.0195,0.9933,0.76,-1.74,-0.5,-11.32,12.37,-50.91,0.330271,0.091525,0.007355,0.93939,0.0,0.0,0.0,0,0
2026-06-16 16:24:44.148,94297,L_Ankle,0.0996,0.0183,0.9875,-0.66,-0.35,-1.92,-18.61,23.8,-28.38,0.987335,0.029084,-0.056185,0.145268,0.0,0.0,0.0,0,0
2026-06-16 16:24:44.150,3097287,R_Ankle,0.015,-0.0121,0.9856,0.76,-1.74,-0.5,0.0,0.0,0.0,0.330271,0.091525,0.007324,0.93939,0.0,0.0,0.0,0,0
2026-06-16 16:24:44.152,3097307,R_Ankle,0.0086,-0.0096,1.0067,0.76,-1.76,-0.49,-11.66,12.36,-50.6,0.330271,0.091525,0.007324,0.93939,0.0,0.0,0.0,0,0
2026-06-16 16:24:44.154,3097268,R_Ankle,0.0091,-0.0081,1.0101,0.77,-1.74,-0.49,-12.02,11.42,-51.52,0.330271,0.091494,0.007324,0.93939,0.0,0.0,0.0,0,0
2026-06-16 16:24:44.159,3097280,R_Hip,0.0431,-0.0028,0.9871,0.36,-0.3,9.38,-22.52,13.39,-37.58,0.996918,0.005249,-0.03824,-0.067965,0.0,0.0,0.0,0,0
2026-06-16 16:24:44.160,94258,L_Hip,0.1195,-0.0715,0.9861,0.18,-0.25,0.79,-30.96,20.06,-34.2,0.990692,-0.033479,-0.063631,-0.11536,0.0,0.0,0.0,0,0
2026-06-16 16:24:44.163,3097300,R_Hip,0.0343,0.001,0.9972,0.36,-0.3,9.38,-23.61,11.2,-38.26,0.996918,0.005219,-0.03824,-0.067965,0.0,0.0,0.0,0,0
2026-06-16 16:24:44.163,94278,L_Hip,0.1126,-0.072,0.9793,0.19,-0.24,0.79,-29.74,20.89,-35.24,0.990692,-0.033479,-0.063631,-0.11536,0.0,0.0,0.0,0,0
2026-06-16 16:24:44.165,3097320,R_Hip,0.0343,0.0045,1.001,0.37,-0.3,9.37,-22.88,13.02,-37.58,0.996918,0.005219,-0.03824,-0.067965,0.0,0.0,0.0,0,0
2026-06-16 16:24:44.166,94298,L_Hip,0.1082,-0.0646,0.9861,0.2,-0.24,0.8,0.0,0.0,0.0,0.990692,-0.033479,-0.063662,-0.11536,0.0,0.0,0.0,0,0
2026-06-16 16:24:44.168,3097340,R_Hip,0.0308,0.0049,0.9847,0.38,-0.29,9.36,0.0,0.0,0.0,0.996918,0.005219,-0.03824,-0.067965,0.0,0.0,0.0,0,0
2026-06-16 16:24:44.169,94318,L_Hip,0.1092,-0.071,0.9861,0.19,-0.25,0.77,-28.22,21.4,-35.12,0.990692,-0.033509,-0.063662,-0.11536,0.0,0.0,0.0,0,0
2026-06-16 16:24:44.171,94264,L_Shank,0.0218,-0.0077,0.9806,1.7,-0.74,-0.41,-1.76,11.24,-34.49,0.999298,-0.002075,-0.035463,0.009369,0.0,0.0,0.0,0,0
2026-06-16 16:24:44.175,94284,L_Shank,0.0282,-0.0102,0.9849,1.69,-0.74,-0.41,-0.37,11.24,-34.51,0.999298,-0.002045,-0.035463,0.009369,0.0,0.0,0.0,0,0
2026-06-16 16:24:44.177,94304,L_Shank,0.0238,-0.0072,0.9863,1.7,-0.73,-0.39,0.0,0.0,0.0,0.999298,-0.002045,-0.035493,0.009369,0.0,0.0,0.0,0,0
2026-06-16 16:24:44.179,94265,L_Shank,0.0243,-0.0033,0.9815,1.68,-0.71,-0.4,0.14,10.73,-33.73,0.999298,-0.002045,-0.035493,0.009369,0.0,0.0,0.0,0,0
2026-06-16 16:24:44.181,3097303,R_Hip,0.0451,0.004,0.9914,0.36,-0.29,9.36,-24.34,12.29,-36.89,0.996918,0.005249,-0.038209,-0.067934,0.0,0.0,0.0,0,0
2026-06-16 16:24:44.184,94282,L_Hip,0.1092,-0.07,0.9798,0.17,-0.24,0.78,-27.41,20.93,-33.82,0.990692,-0.033509,-0.063662,-0.11536,0.0,0.0,0.0,0,0
2026-06-16 16:24:44.184,3097323,R_Hip,0.0397,-0.0067,0.9789,0.38,-0.29,9.35,-22.88,14.12,-37.58,0.996918,0.005249,-0.038209,-0.067934,0.0,0.0,0.0,0,0
2026-06-16 16:24:44.187,3097343,R_Hip,0.0441,-0.0028,0.9794,0.36,-0.29,9.36,0.0,0.0,0.0,0.996918,0.00528,-0.038179,-0.067934,0.0,0.0,0.0,0,0
2026-06-16 16:24:44.188,94302,L_Hip,0.1048,-0.0646,0.9967,0.19,-0.25,0.79,-29.05,20.91,-36.41,0.990692,-0.033509,-0.063631,-0.11536,0.0,0.0,0.0,0,0
2026-06-16 16:24:44.190,3097363,R_Hip,0.0471,0.0035,0.9982,0.38,-0.3,9.35,-24.34,14.85,-36.9,0.996918,0.005249,-0.038209,-0.067934,0.0,0.0,0.0,0,0
2026-06-16 16:24:44.191,94322,L_Hip,0.1087,-0.0685,0.9788,0.2,-0.25,0.77,-28.04,21.89,-34.98,0.990692,-0.033479,-0.063631,-0.11536,0.0,0.0,0.0,0,0
2026-06-16 16:24:44.193,3097312,R_Ankle,0.0194,-0.021,1.0014,0.76,-1.74,-0.49,-9.97,12.06,-51.2,0.330271,0.091494,0.007355,0.93939,0.0,0.0,0.0,0,0
2026-06-16 16:24:44.194,94342,L_Hip,0.1151,-0.0641,0.9909,0.2,-0.25,0.78,0.0,0.0,0.0,0.990692,-0.033479,-0.063631,-0.11536,0.0,0.0,0.0,0,0
2026-06-16 16:24:44.196,3097332,R_Ankle,0.0253,-0.0101,1.0024,0.77,-1.75,-0.51,0.0,0.0,0.0,0.330271,0.091494,0.007355,0.93939,0.0,0.0,0.0,0,0
2026-06-16 16:24:44.197,94287,L_Shank,0.0179,-0.0043,0.969,1.69,-0.73,-0.4,1.19,10.73,-34.05,0.999298,-0.002045,-0.035463,0.009369,0.0,0.0,0.0,0,0
2026-06-16 16:24:44.200,94307,L_Shank,0.0272,-0.0072,0.9863,1.69,-0.73,-0.4,0.49,11.07,-34.36,0.999298,-0.002045,-0.035463,0.009369,0.0,0.0,0.0,0,0
2026-06-16 16:24:44.200,3097352,R_Ankle,0.0248,-0.0185,1.0144,0.76,-1.76,-0.49,-9.97,12.06,-51.2,0.330271,0.091525,0.007355,0.93939,0.0,0.0,0.0,0,0
2026-06-16 16:24:44.202,94327,L_Shank,0.0218,-0.0102,0.9695,1.68,-0.74,-0.4,0.0,0.0,0.0,0.999298,-0.002045,-0.035463,0.009369,0.0,0.0,0.0,0,0
2026-06-16 16:24:44.202,3097313,R_Ankle,0.0111,-0.0121,0.9962,0.77,-1.74,-0.48,-11.51,10.62,-51.04,0.330271,0.091525,0.007324,0.93939,0.0,0.0,0.0,0,0
2026-06-16 16:24:44.206,94347,L_Shank,0.0287,-0.0126,0.9887,1.68,-0.73,-0.4,-0.89,11.08,-34.66,0.999298,-0.002045,-0.035463,0.009339,0.0,0.0,0.0,0,0
2026-06-16 16:24:44.207,3097325,R_Hip,0.0417,0.0059,0.9866,0.37,-0.32,9.37,-22.52,11.93,-38.6,0.996918,0.005249,-0.03824,-0.067965,0.0,0.0,0.0,0,0
2026-06-16 16:24:44.208,94306,L_Ankle,0.0982,0.0183,0.988,-0.67,-0.36,-1.93,-18.94,23.45,-27.37,0.987335,0.029084,-0.056185,0.145299,0.0,0.0,0.0,0,0
2026-06-16 16:24:44.209,3097345,R_Hip,0.0417,0.0069,0.9991,0.38,-0.3,9.36,-24.16,14.3,-37.75,0.996918,0.005249,-0.03824,-0.067934,0.0,0.0,0.0,0,0
2026-06-16 16:24:44.212,94326,L_Ankle,0.0879,0.0168,0.9698,-0.67,-0.35,-1.93,0.0,0.0,0.0,0.987335,0.029115,-0.056215,0.145299,0.0,0.0,0.0,0,0
2026-06-16 16:24:44.213,3097365,R_Hip,0.0397,0.002,1.0006,0.38,-0.29,9.36,0.0,0.0,0.0,0.996918,0.00528,-0.03824,-0.067934,0.0,0.0,0.0,0,0
2026-06-16 16:24:44.215,3097385,R_Hip,0.0397,0.0064,0.9972,0.39,-0.3,9.37,-24.16,12.84,-36.72,0.996918,0.00528,-0.03824,-0.067934,0.0,0.0,0.0,0,0
2026-06-16 16:24:44.215,94346,L_Ankle,0.0923,0.0188,0.9851,-0.67,-0.36,-1.91,-17.56,24.49,-27.68,0.987335,0.029084,-0.056215,0.145299,0.0,0.0,0.0,0,0
2026-06-16 16:24:44.218,94366,L_Ankle,0.0898,0.0217,0.9962,-0.67,-0.36,-1.9,-18.11,23.96,-29.22,0.987335,0.029084,-0.056215,0.145299,0.0,0.0,0.0,0,0
2026-06-16 16:24:44.220,94307,L_Hip,0.1176,-0.0641,0.9745,0.19,-0.24,0.78,-29.05,20.91,-36.12,0.990692,-0.033479,-0.063631,-0.11536,0.0,0.0,0.0,0,0
2026-06-16 16:24:44.223,94327,L_Hip,0.1156,-0.0681,0.9929,0.19,-0.24,0.78,-30.59,21.36,-34.79,0.990692,-0.033448,-0.063601,-0.11536,0.0,0.0,0.0,0,0
2026-06-16 16:24:44.225,94347,L_Hip,0.1038,-0.0685,0.9856,0.19,-0.24,0.77,-28.72,21.55,-34.97,0.990692,-0.033479,-0.063601,-0.115329,0.0,0.0,0.0,0,0
2026-06-16 16:24:44.226,3097348,R_Hip,0.0372,-0.0003,0.9794,0.38,-0.31,9.35,-22.88,11.92,-37.57,0.996918,0.00531,-0.03824,-0.067934,0.0,0.0,0.0,0,0
2026-06-16 16:24:44.228,94367,L_Hip,0.1107,-0.071,0.9837,0.19,-0.25,0.79,0.0,0.0,0.0,0.990692,-0.033479,-0.063631,-0.115329,0.0,0.0,0.0,0,0
2026-06-16 16:24:44.229,3097368,R_Hip,0.0367,0.0059,0.9876,0.37,-0.29,9.37,-25.25,14.67,-37.41,0.996918,0.00528,-0.038209,-0.067965,0.0,0.0,0.0,0,0
2026-06-16 16:24:44.230,94310,L_Shank,0.0238,-0.0126,0.9786,1.68,-0.74,-0.41,0.13,11.74,-33.43,0.999298,-0.002045,-0.035463,0.009339,0.0,0.0,0.0,0,0
2026-06-16 16:24:44.231,3097388,R_Hip,0.0451,-0.0003,0.9972,0.38,-0.29,9.36,0.0,0.0,0.0,0.996918,0.00528,-0.03824,-0.067965,0.0,0.0,0.0,0,0
2026-06-16 16:24:44.234,94330,L_Shank,0.0223,-0.0077,0.9642,1.69,-0.73,-0.4,0.48,10.72,-33.11,0.999298,-0.002075,-0.035463,0.009339,0.0,0.0,0.0,0,0
2026-06-16 16:24:44.234,3097408,R_Hip,0.0402,0.003,0.9962,0.37,-0.29,9.35,-23.61,13.39,-37.58,0.996918,0.00531,-0.03824,-0.067965,0.0,0.0,0.0,0,0
2026-06-16 16:24:44.237,94350,L_Shank,0.0306,-0.0004,0.9945,1.7,-0.74,-0.4,0.0,0.0,0.0,0.999298,-0.002075,-0.035463,0.009369,0.0,0.0,0.0,0,0
2026-06-16 16:24:44.239,94370,L_Shank,0.0301,-0.0087,1.0002,1.69,-0.73,-0.4,-0.37,11.24,-34.2,0.999298,-0.002075,-0.035463,0.009339,0.0,0.0,0.0,0,0
2026-06-16 16:24:44.242,94327,L_Ankle,0.1026,0.0129,0.9827,-0.66,-0.35,-1.92,-18.8,23.97,-28.89,0.987335,0.029084,-0.056215,0.145299,0.0,0.0,0.0,0,0
2026-06-16 16:24:44.244,94347,L_Ankle,0.0938,0.0188,0.9894,-0.66,-0.35,-1.92,0.0,0.0,0.0,0.987335,0.029084,-0.056215,0.145299,0.0,0.0,0.0,0,0
2026-06-16 16:24:44.248,94367,L_Ankle,0.0933,0.0212,1.0058,-0.67,-0.36,-1.92,-18.98,23.09,-29.75,0.987335,0.029084,-0.056215,0.145299,0.0,0.0,0.0,0,0
2026-06-16 16:24:44.250,94387,L_Ankle,0.0903,0.0261,0.9904,-0.68,-0.38,-1.92,-18.78,23.62,-28.21,0.987335,0.029084,-0.056215,0.145299,0.0,0.0,0.0,0,0
2026-06-16 16:24:44.254,94350,L_Ankle,0.0893,0.0236,0.9861,-0.66,-0.36,-1.92,-18.99,23.8,-29.75,0.987335,0.029084,-0.056246,0.145299,0.0,0.0,0.0,0,0
2026-06-16 16:24:44.256,94370,L_Ankle,0.0893,0.0144,0.9966,-0.67,-0.35,-1.93,0.0,0.0,0.0,0.987335,0.029084,-0.056215,0.145299,0.0,0.0,0.0,0,0
2026-06-16 16:24:44.259,94390,L_Ankle,0.0987,0.0168,0.9938,-0.67,-0.36,-1.92,-18.1,24.67,-28.2,0.987335,0.029084,-0.056185,0.145299,0.0,0.0,0.0,0,0
2026-06-16 16:24:44.260,3097380,R_Ankle,0.0175,-0.0131,0.9981,0.77,-1.74,-0.49,-11.51,10.94,-51.66,0.330271,0.091525,0.007355,0.93939,0.0,0.0,0.0,0,0
2026-06-16 16:24:44.262,94410,L_Ankle,0.0923,0.0212,0.9928,-0.67,-0.36,-1.93,-19.86,24.34,-29.25,0.987335,0.029054,-0.056185,0.145299,0.0,0.0,0.0,0,0
2026-06-16 16:24:44.263,3097400,R_Ankle,0.0175,-0.0062,1.0058,0.77,-1.76,-0.49,0.0,0.0,0.0,0.330271,0.091556,0.007355,0.93939,0.0,0.0,0.0,0,0
2026-06-16 16:24:44.266,94355,L_Shank,0.0223,-0.0107,0.9777,1.68,-0.74,-0.4,0.15,10.06,-34.96,0.999298,-0.002075,-0.035463,0.009339,0.0,0.0,0.0,0,0
2026-06-16 16:24:44.267,3097420,R_Ankle,0.013,-0.0161,0.9957,0.77,-1.74,-0.49,-11.33,11.73,-50.59,0.330271,0.091556,0.007355,0.93939,0.0,0.0,0.0,0,0
2026-06-16 16:24:44.270,94375,L_Shank,0.0238,-0.0028,0.9719,1.69,-0.74,-0.38,-0.37,11.24,-34.2,0.999298,-0.002075,-0.035493,0.009339,0.0,0.0,0.0,0,0
2026-06-16 16:24:44.271,3097440,R_Ankle,0.0228,-0.0081,1.0235,0.77,-1.75,-0.49,-10.98,12.68,-50.6,0.330271,0.091556,0.007355,0.93939,0.0,0.0,0.0,0,0
2026-06-16 16:24:44.273,94395,L_Shank,0.0252,-0.0146,0.9806,1.68,-0.74,-0.39,-0.37,10.57,-34.5,0.999298,-0.002075,-0.035493,0.009339,0.0,0.0,0.0,0,0
2026-06-16 16:24:44.274,3097392,R_Hip,0.0358,-0.0008,0.9881,0.38,-0.29,9.35,-22.7,13.93,-36.38,0.996918,0.00531,-0.03824,-0.067965,0.0,0.0,0.0,0,0
2026-06-16 16:24:44.276,94415,L_Shank,0.0331,-0.0131,0.9897,1.67,-0.73,-0.41,0.0,0.0,0.0,0.999298,-0.002106,-0.035463,0.009339,0.0,0.0,0.0,0,0
2026-06-16 16:24:44.276,3097412,R_Hip,0.0407,-0.0037,0.9885,0.36,-0.28,9.35,-23.07,13.57,-38.78,0.996918,0.005341,-0.03824,-0.067965,0.0,0.0,0.0,0,0
2026-06-16 16:24:44.279,3097393,R_Hip,0.0436,0.0001,0.9929,0.37,-0.29,9.35,0.0,0.0,0.0,0.996918,0.005341,-0.03824,-0.067965,0.0,0.0,0.0,0,0
2026-06-16 16:24:44.280,94357,L_Hip,0.1107,-0.0622,0.9851,0.18,-0.25,0.78,-28.9,20.42,-35.98,0.990692,-0.033479,-0.063601,-0.11536,0.0,0.0,0.0,0,0
2026-06-16 16:24:44.281,3097413,R_Hip,0.0397,-0.0003,0.9876,0.37,-0.3,9.37,-23.97,13.75,-36.55,0.996918,0.005341,-0.03824,-0.067965,0.0,0.0,0.0,0,0
2026-06-16 16:24:44.283,94377,L_Hip,0.1126,-0.0739,0.9875,0.19,-0.25,0.77,-28.08,20.92,-33.81,0.990692,-0.033479,-0.063601,-0.115329,0.0,0.0,0.0,0,0
2026-06-16 16:24:44.286,94397,L_Hip,0.1117,-0.0676,0.9924,0.19,-0.23,0.78,-29.38,21.87,-35.54,0.990692,-0.033479,-0.063601,-0.11536,0.0,0.0,0.0,0,0
2026-06-16 16:24:44.286,3097402,R_Ankle,0.0253,-0.0146,1.0014,0.76,-1.75,-0.49,-9.44,11.89,-49.8,0.330271,0.091556,0.007355,0.93939,0.0,0.0,0.0,0,0
2026-06-16 16:24:44.289,3097403,R_Ankle,0.0175,-0.0106,1.0081,0.76,-1.75,-0.51,0.0,0.0,0.0,0.330271,0.091556,0.007355,0.93939,0.0,0.0,0.0,0,0
2026-06-16 16:24:44.289,94417,L_Hip,0.1136,-0.0735,0.9846,0.19,-0.24,0.77,-29.2,22.03,-35.98,0.990692,-0.033479,-0.063601,-0.11536,0.0,0.0,0.0,0,0
2026-06-16 16:24:44.291,3097423,R_Ankle,0.0101,-0.0146,0.9914,0.77,-1.75,-0.5,-12.0,11.39,-49.67,0.330271,0.091586,0.007355,0.93939,0.0,0.0,0.0,0,0
2026-06-16 16:24:44.292,94382,L_Hip,0.1161,-0.0631,0.9841,0.18,-0.24,0.78,-29.77,20.56,-34.07,0.990692,-0.033479,-0.063601,-0.115329,0.0,0.0,0.0,0,0
2026-06-16 16:24:44.294,94402,L_Hip,0.1151,-0.0725,0.988,0.19,-0.24,0.77,0.0,0.0,0.0,0.990692,-0.033479,-0.063601,-0.11536,0.0,0.0,0.0,0,0
2026-06-16 16:24:44.295,3097443,R_Ankle,0.0184,-0.0067,1.0192,0.77,-1.75,-0.5,-10.15,11.27,-51.35,0.330271,0.091586,0.007355,0.93939,0.0,0.0,0.0,0,0
2026-06-16 16:24:44.298,94422,L_Hip,0.1126,-0.0754,0.9938,0.19,-0.23,0.77,-28.21,22.05,-34.83,0.990692,-0.033479,-0.063631,-0.115329,0.0,0.0,0.0,0,0
2026-06-16 16:24:44.298,3097415,R_Hip,0.0476,0.001,0.9823,0.37,-0.31,9.37,-23.61,12.65,-36.21,0.996918,0.005341,-0.03824,-0.067965,0.0,0.0,0.0,0,0
2026-06-16 16:24:44.300,3097435,R_Hip,0.0343,0.0069,0.9842,0.38,-0.3,9.36,-23.06,12.84,-37.75,0.996918,0.005371,-0.03824,-0.067965,0.0,0.0,0.0,0,0
2026-06-16 16:24:44.302,94442,L_Hip,0.1112,-0.0671,0.9735,0.2,-0.25,0.78,-29.74,21.85,-34.37,0.990692,-0.033479,-0.063631,-0.11536,0.0,0.0,0.0,0,0
2026-06-16 16:24:44.303,3097455,R_Hip,0.0486,-0.0037,0.9924,0.38,-0.31,9.36,0.0,0.0,0.0,0.996918,0.005371,-0.03824,-0.067965,0.0,0.0,0.0,0,0
2026-06-16 16:24:44.305,94395,L_Ankle,0.0991,0.0119,0.9952,-0.66,-0.36,-1.93,-18.11,24.32,-29.22,0.987335,0.029084,-0.056185,0.145299,0.0,0.0,0.0,0,0
2026-06-16 16:24:44.305,3097475,R_Hip,0.0362,0.003,0.9842,0.38,-0.3,9.36,-23.25,11.56,-37.92,0.996918,0.005371,-0.03827,-0.067965,0.0,0.0,0.0,0,0
2026-06-16 16:24:44.308,94415,L_Ankle,0.0947,0.0202,0.9822,-0.67,-0.37,-1.93,0.0,0.0,0.0,0.987335,0.029084,-0.056185,0.145299,0.0,0.0,0.0,0,0
2026-06-16 16:24:44.310,3097420,R_Shank,-0.0788,-1.0956,0.9956,-0.02,-0.86,-1.57,-14.57,5.2,-46.43,0.919004,0.024506,0.020692,-0.392895,0.0,0.0,0.0,0,0
2026-06-16 16:24:44.311,94435,L_Ankle,0.0928,0.0168,0.9842,-0.67,-0.36,-1.91,-19.14,22.92,-29.24,0.987335,0.029084,-0.056215,0.145299,0.0,0.0,0.0,0,0
2026-06-16 16:24:44.313,3097440,R_Shank,-0.0969,2.1164,0.9994,-0.03,-0.85,-1.57,0.0,0.0,0.0,0.919004,0.024506,0.020661,-0.392895,0.0,0.0,0.0,0,0
2026-06-16 16:24:44.316,94455,L_Ankle,0.0957,0.0197,0.9846,-0.67,-0.37,-1.93,-18.99,24.15,-29.74,0.987335,0.029054,-0.056215,0.145268,0.0,0.0,0.0,0,0
2026-06-16 16:24:44.317,3097460,R_Shank,-0.0891,2.246,1.008,-0.03,-0.84,-1.57,-12.21,5.16,-46.45,0.919004,0.024506,0.020692,-0.392895,0.0,0.0,0.0,0,0
2026-06-16 16:24:44.319,94400,L_Shank,0.0208,-0.0023,0.9849,1.7,-0.72,-0.4,-0.54,10.39,-34.34,0.999298,-0.002136,-0.035463,0.009369,0.0,0.0,0.0,0,0
2026-06-16 16:24:44.321,3097480,R_Shank,-0.0984,-1.0956,0.9994,-0.03,-0.87,-1.55,-14.75,6.03,-46.87,0.919004,0.024537,0.020722,-0.392895,0.0,0.0,0.0,0,0
2026-06-16 16:24:44.322,94420,L_Shank,0.0272,-0.0009,0.9964,1.69,-0.72,-0.4,-0.55,10.05,-33.71,0.999298,-0.002167,-0.035493,0.009339,0.0,0.0,0.0,0,0
2026-06-16 16:24:44.324,3097425,R_Ankle,0.0111,-0.0111,1.0029,0.77,-1.76,-0.5,-10.81,11.89,-50.74,0.330271,0.091586,0.007355,0.93939,0.0,0.0,0.0,0,0
2026-06-16 16:24:44.324,94440,L_Shank,0.0277,-0.0063,0.9873,1.69,-0.74,-0.4,0.0,0.0,0.0,0.999298,-0.002136,-0.035463,0.009369,0.0,0.0,0.0,0,0
2026-06-16 16:24:44.327,3097445,R_Ankle,0.017,-0.0076,1.0024,0.77,-1.75,-0.5,0.0,0.0,0.0,0.330271,0.091617,0.007355,0.93939,0.0,0.0,0.0,0,0
2026-06-16 16:24:44.328,94460,L_Shank,0.0262,-0.0087,0.9777,1.69,-0.72,-0.39,-1.24,10.73,-34.34,0.999298,-0.002106,-0.035463,0.009369,0.0,0.0,0.0,0,0
2026-06-16 16:24:44.329,3097465,R_Ankle,0.0106,-0.0116,1.0096,0.77,-1.76,-0.49,-10.47,11.57,-50.12,0.330271,0.091617,0.007355,0.93939,0.0,0.0,0.0,0,0
2026-06-16 16:24:44.332,3097485,R_Ankle,0.0228,-0.0126,1.0024,0.77,-1.76,-0.51,-10.11,13.8,-50.45,0.330271,0.091586,0.007385,0.93939,0.0,0.0,0.0,0,0
2026-06-16 16:24:44.334,3097438,R_Hip,0.0461,-0.0042,0.9986,0.37,-0.31,9.35,-23.97,12.29,-37.58,0.996918,0.005371,-0.03827,-0.067965,0.0,0.0,0.0,0,0
2026-06-16 16:24:44.336,3097458,R_Hip,0.0471,0.002,0.9866,0.36,-0.31,9.36,-22.7,12.47,-37.4,0.996918,0.005371,-0.03827,-0.067965,0.0,0.0,0.0,0,0
2026-06-16 16:24:44.339,3097478,R_Hip,0.0476,0.0001,0.9986,0.36,-0.3,9.36,0.0,0.0,0.0,0.996918,0.005371,-0.038301,-0.067965,0.0,0.0,0.0,0,0
2026-06-16 16:24:44.341,3097498,R_Hip,0.0353,0.0064,0.9991,0.37,-0.3,9.37,-24.52,13.2,-37.41,0.996918,0.005341,-0.038331,-0.067965,0.0,0.0,0.0,0,0
2026-06-16 16:24:44.341,94440,L_Ankle,0.0962,0.0158,0.9813,-0.67,-0.36,-1.92,-19.32,24.52,-28.39,0.987335,0.029054,-0.056246,0.145268,0.0,0.0,0.0,0,0
2026-06-16 16:24:44.345,94460,L_Ankle,0.0879,0.0285,0.9755,-0.65,-0.35,-1.93,-20.21,24.71,-28.91,0.987335,0.029054,-0.056246,0.145268,0.0,0.0,0.0,0,0
2026-06-16 16:24:44.346,3097447,R_Ankle,0.0224,-0.0106,0.9914,0.77,-1.74,-0.5,-12.19,10.93,-51.06,0.330271,0.091617,0.007385,0.93939,0.0,0.0,0.0,0,0
2026-06-16 16:24:44.347,94480,L_Ankle,0.0893,0.0153,0.9942,-0.67,-0.35,-1.93,0.0,0.0,0.0,0.987335,0.029084,-0.056246,0.145268,0.0,0.0,0.0,0,0
2026-06-16 16:24:44.349,3097467,R_Ankle,0.0194,-0.0121,0.9976,0.75,-1.75,-0.5,0.0,0.0,0.0,0.330271,0.091617,0.007355,0.93939,0.0,0.0,0.0,0,0
2026-06-16 16:24:44.351,3097487,R_Ankle,0.0121,-0.0101,1.0278,0.77,-1.76,-0.49,-10.47,12.22,-51.05,0.330271,0.091617,0.007324,0.93939,0.0,0.0,0.0,0,0
2026-06-16 16:24:44.351,94500,L_Ankle,0.0996,0.0212,0.9813,-0.67,-0.35,-1.91,-19.7,25.23,-29.41,0.987335,0.029084,-0.056246,0.145268,0.0,0.0,0.0,0,0
2026-06-16 16:24:44.353,3097448,R_Ankle,0.0238,-0.0057,1.0048,0.77,-1.75,-0.49,-10.65,11.1,-50.58,0.330271,0.091617,0.007324,0.93939,0.0,0.0,0.0,0,0
2026-06-16 16:24:44.356,3097465,R_Shank,-0.0827,2.6348,1.0148,-0.03,-0.87,-1.56,-14.58,6.19,-47.32,0.919004,0.024567,0.020692,-0.392895,0.0,0.0,0.0,0,0
2026-06-16 16:24:44.358,3097485,R_Shank,-0.0906,-2.1252,0.9883,-0.03,-0.85,-1.55,0.0,0.0,0.0,0.919004,0.024537,0.020722,-0.392895,0.0,0.0,0.0,0,0
2026-06-16 16:24:44.359,94456,L_Hip,0.1166,-0.0784,0.9793,0.2,-0.25,0.77,-29.57,22.02,-34.52,0.990692,-0.033509,-0.063601,-0.11536,0.0,0.0,0.0,0,0
2026-06-16 16:24:44.362,94476,L_Hip,0.119,-0.0626,0.9962,0.19,-0.24,0.78,0.0,0.0,0.0,0.990692,-0.033479,-0.063631,-0.11536,0.0,0.0,0.0,0,0
2026-06-16 16:24:44.362,3097505,R_Shank,-0.0886,-0.966,1.0056,-0.03,-0.86,-1.55,-13.75,6.67,-46.88,0.919004,0.024567,0.020722,-0.392895,0.0,0.0,0.0,0,0
2026-06-16 16:24:44.365,3097525,R_Shank,-0.0964,3.0168,1.0095,-0.02,-0.87,-1.57,-13.77,7.01,-45.97,0.919004,0.024598,0.020722,-0.392895,0.0,0.0,0.0,0,0
2026-06-16 16:24:44.365,94457,L_Hip,0.1082,-0.0597,0.9885,0.18,-0.23,0.78,-28.9,20.74,-35.4,0.990692,-0.033479,-0.063631,-0.11536,0.0,0.0,0.0,0,0
2026-06-16 16:24:44.368,3097482,R_Hip,0.0362,0.0069,0.9905,0.38,-0.3,9.38,-23.61,13.75,-38.61,0.996918,0.005341,-0.038301,-0.067965,0.0,0.0,0.0,0,0
2026-06-16 16:24:44.368,94477,L_Hip,0.1166,-0.0695,0.9846,0.21,-0.23,0.8,-28.59,19.78,-35.11,0.990692,-0.033509,-0.063631,-0.11536,0.0,0.0,0.0,0,0
2026-06-16 16:24:44.371,3097502,R_Hip,0.0431,-0.0008,0.9842,0.38,-0.29,9.35,-22.51,13.38,-36.55,0.996918,0.005371,-0.038301,-0.067965,0.0,0.0,0.0,0,0
2026-06-16 16:24:44.371,94462,L_Ankle,0.1011,0.0134,0.9856,-0.67,-0.37,-1.93,-19.17,24.33,-29.92,0.987335,0.029084,-0.056215,0.145268,0.0,0.0,0.0,0,0
2026-06-16 16:24:44.374,3097522,R_Hip,0.0382,-0.0057,0.9837,0.36,-0.3,9.36,0.0,0.0,0.0,0.996918,0.005402,-0.038301,-0.067965,0.0,0.0,0.0,0,0
2026-06-16 16:24:44.375,94482,L_Ankle,0.0991,0.0153,0.9976,-0.67,-0.35,-1.92,-18.64,24.5,-29.4,0.987335,0.029084,-0.056215,0.145268,0.0,0.0,0.0,0,0
2026-06-16 16:24:44.377,3097483,R_Hip,0.0362,0.0064,0.9765,0.37,-0.3,9.35,-24.34,13.02,-38.61,0.996918,0.005371,-0.038301,-0.067965,0.0,0.0,0.0,0,0
2026-06-16 16:24:44.377,94502,L_Ankle,0.0962,0.0212,0.9962,-0.67,-0.36,-1.92,0.0,0.0,0.0,0.987335,0.029084,-0.056246,0.145268,0.0,0.0,0.0,0,0
2026-06-16 16:24:44.380,94522,L_Ankle,0.0908,0.0202,0.9736,-0.66,-0.37,-1.92,-18.3,24.14,-30.41,0.987335,0.029054,-0.056276,0.145268,0.0,0.0,0.0,0,0
2026-06-16 16:24:44.382,94468,L_Shank,0.0238,-0.0058,0.9906,1.7,-0.73,-0.38,-0.36,10.24,-35.43,0.999298,-0.002106,-0.035463,0.009369,0.0,0.0,0.0,0,0
2026-06-16 16:24:44.385,94488,L_Shank,0.0238,-0.0097,0.9748,1.69,-0.71,-0.39,0.14,12.09,-34.06,0.999298,-0.002106,-0.035463,0.009369,0.0,0.0,0.0,0,0
2026-06-16 16:24:44.387,94508,L_Shank,0.0243,-0.0082,0.9767,1.69,-0.73,-0.4,1.19,11.42,-34.68,0.999298,-0.002106,-0.035463,0.009369,0.0,0.0,0.0,0,0
2026-06-16 16:24:44.390,94528,L_Shank,0.0199,-0.0136,0.9767,1.69,-0.74,-0.39,0.0,0.0,0.0,0.999298,-0.002106,-0.035463,0.009369,0.0,0.0,0.0,0,0
2026-06-16 16:24:44.393,94482,L_Hip,0.1166,-0.0641,0.9803,0.18,-0.25,0.77,-29.25,20.74,-34.81,0.990692,-0.033479,-0.063631,-0.11536,0.0,0.0,0.0,0,0
2026-06-16 16:24:44.395,94502,L_Hip,0.1077,-0.0671,0.9783,0.19,-0.24,0.77,0.0,0.0,0.0,0.990692,-0.033479,-0.063631,-0.11536,0.0,0.0,0.0,0,0
2026-06-16 16:24:44.397,94522,L_Hip,0.1146,-0.0744,0.9851,0.2,-0.24,0.77,-30.93,20.38,-35.36,0.990692,-0.033509,-0.063662,-0.11536,0.0,0.0,0.0,0,0
2026-06-16 16:24:44.400,94542,L_Hip,0.1126,-0.0705,0.9774,0.2,-0.25,0.79,-28.91,19.78,-35.68,0.990692,-0.033509,-0.063692,-0.11536,0.0,0.0,0.0,0,0
2026-06-16 16:24:44.402,94490,L_Shank,0.0272,-0.0063,0.9916,1.7,-0.73,-0.41,0.68,11.26,-35.45,0.999298,-0.002075,-0.035463,0.009369,0.0,0.0,0.0,0,0
2026-06-16 16:24:44.405,94510,L_Shank,0.0257,-0.0087,0.9782,1.69,-0.74,-0.41,-0.36,10.24,-35.12,0.999298,-0.002106,-0.035463,0.009369,0.0,0.0,0.0,0,0
2026-06-16 16:24:44.407,3097528,R_Hip,0.0298,0.0064,0.9861,0.38,-0.3,9.36,-22.52,12.66,-37.57,0.996918,0.005371,-0.038331,-0.067965,0.0,0.0,0.0,0,0
2026-06-16 16:24:44.408,94530,L_Shank,0.034,-0.0063,0.9906,1.7,-0.74,-0.41,0.84,11.4,-33.74,0.999298,-0.002106,-0.035432,0.009369,0.0,0.0,0.0,0,0
2026-06-16 16:24:44.410,3097548,R_Hip,0.0422,0.003,0.9832,0.38,-0.31,9.37,-22.7,13.57,-37.41,0.996918,0.005371,-0.038362,-0.067965,0.0,0.0,0.0,0,0
2026-06-16 16:24:44.411,94550,L_Shank,0.0164,-0.0116,0.9902,1.69,-0.74,-0.39,0.5,11.08,-34.67,0.999298,-0.002075,-0.035432,0.009369,0.0,0.0,0.0,0,0
2026-06-16 16:24:44.413,3097568,R_Hip,0.0328,0.0006,0.9924,0.38,-0.29,9.37,0.0,0.0,0.0,0.996918,0.005402,-0.038331,-0.067965,0.0,0.0,0.0,0,0
2026-06-16 16:24:44.414,94507,L_Hip,0.1171,-0.0671,0.974,0.19,-0.25,0.79,-28.74,20.91,-34.67,0.990692,-0.033509,-0.063662,-0.11536,0.0,0.0,0.0,0,0
2026-06-16 16:24:44.415,3097588,R_Hip,0.0476,0.0074,0.9818,0.37,-0.3,9.37,-22.52,12.66,-37.92,0.996918,0.005402,-0.038331,-0.067965,0.0,0.0,0.0,0,0
2026-06-16 16:24:44.418,94527,L_Hip,0.1073,-0.0656,0.9667,0.18,-0.24,0.78,0.0,0.0,0.0,0.990692,-0.033509,-0.063692,-0.115329,0.0,0.0,0.0,0,0
2026-06-16 16:24:44.419,3097533,R_Shank,-0.0871,-1.0956,0.9792,-0.01,-0.91,-1.56,-14.08,6.02,-46.27,0.919004,0.024628,0.020722,-0.392895,0.0,0.0,0.0,0,0
2026-06-16 16:24:44.420,94547,L_Hip,0.1239,-0.0651,0.9914,0.19,-0.25,0.77,-29.77,19.92,-34.94,0.990692,-0.033509,-0.063692,-0.115329,0.0,0.0,0.0,0,0
2026-06-16 16:24:44.421,3097553,R_Shank,-0.0837,1.7344,1.0148,0.0,-0.93,-1.56,0.0,0.0,0.0,0.919004,0.024628,0.020722,-0.392895,0.0,0.0,0.0,0,0
2026-06-16 16:24:44.424,94567,L_Hip,0.1009,-0.071,0.9832,0.18,-0.25,0.78,-27.71,22.21,-34.11,0.990692,-0.033509,-0.063723,-0.115329,0.0,0.0,0.0,0,0
2026-06-16 16:24:44.424,3097573,R_Shank,-0.0876,0.4456,1.0061,-0.03,-0.91,-1.57,-13.9,5.19,-46.13,0.919004,0.024598,0.020722,-0.392895,0.0,0.0,0.0,0,0
2026-06-16 16:24:44.426,94512,L_Shank,0.0233,-0.018,0.9786,1.69,-0.74,-0.41,-0.19,11.08,-34.97,0.999298,-0.002075,-0.035463,0.009369,0.0,0.0,0.0,0,0
2026-06-16 16:24:44.428,3097593,R_Shank,-0.0812,-1.9956,0.9917,0.0,-0.88,-1.56,-13.38,5.67,-47.79,0.919004,0.024598,0.020692,-0.392895,0.0,0.0,0.0,0,0
2026-06-16 16:24:44.430,94532,L_Shank,0.0257,-0.0131,0.982,1.7,-0.73,-0.41,0.0,0.0,0.0,0.999298,-0.002075,-0.035463,0.009369,0.0,0.0,0.0,0,0
2026-06-16 16:24:44.431,3097538,R_Ankle,0.0238,-0.0101,1.022,0.78,-1.75,-0.51,-10.99,11.1,-50.89,0.330271,0.091617,0.007324,0.93939,0.0,0.0,0.0,0,0
2026-06-16 16:24:44.432,94552,L_Shank,0.0243,-0.0082,0.9863,1.7,-0.73,-0.41,1.02,9.21,-34.49,0.999298,-0.002075,-0.035463,0.009369,0.0,0.0,0.0,0,0
2026-06-16 16:24:44.433,3097558,R_Ankle,0.0189,-0.0101,1.0053,0.77,-1.76,-0.48,0.0,0.0,0.0,0.330271,0.091617,0.007324,0.93939,0.0,0.0,0.0,0,0
2026-06-16 16:24:44.436,94572,L_Shank,0.0218,-0.0072,0.9849,1.69,-0.74,-0.4,0.85,10.06,-34.97,0.999298,-0.002075,-0.035463,0.009369,0.0,0.0,0.0,0,0
2026-06-16 16:24:44.437,3097578,R_Ankle,0.0179,-0.0131,1.011,0.78,-1.74,-0.49,-10.66,10.79,-51.19,0.330271,0.091647,0.007324,0.93939,0.0,0.0,0.0,0,0
2026-06-16 16:24:44.439,3097598,R_Ankle,0.0106,-0.0161,0.9962,0.77,-1.75,-0.5,-10.83,10.95,-51.35,0.330271,0.091647,0.007355,0.93939,0.0,0.0,0.0,0,0
2026-06-16 16:24:44.439,94530,L_Ankle,0.0972,0.0222,0.9976,-0.67,-0.35,-1.92,-17.6,25.19,-29.04,0.987335,0.029115,-0.056276,0.145268,0.0,0.0,0.0,0,0
2026-06-16 16:24:44.442,3097550,R_Hip,0.0431,0.0001,0.9765,0.36,-0.28,9.35,-23.97,14.12,-36.9,0.996918,0.005402,-0.038331,-0.067934,0.0,0.0,0.0,0,0
2026-06-16 16:24:44.442,94550,L_Ankle,0.0923,0.0144,0.9698,-0.67,-0.35,-1.91,-18.96,23.8,-28.04,0.987335,0.029084,-0.056276,0.145268,0.0,0.0,0.0,0,0
2026-06-16 16:24:44.445,94570,L_Ankle,0.0928,0.0207,0.9971,-0.66,-0.35,-1.93,0.0,0.0,0.0,0.987335,0.029084,-0.056276,0.145268,0.0,0.0,0.0,0,0
2026-06-16 16:24:44.445,3097570,R_Hip,0.0382,0.0035,0.9856,0.38,-0.29,9.35,-22.52,14.12,-37.24,0.996918,0.005402,-0.038331,-0.067965,0.0,0.0,0.0,0,0
2026-06-16 16:24:44.447,3097590,R_Hip,0.0348,0.0015,0.9943,0.37,-0.32,9.35,0.0,0.0,0.0,0.996918,0.005402,-0.038331,-0.067965,0.0,0.0,0.0,0,0
2026-06-16 16:24:44.448,94590,L_Ankle,0.0947,0.0183,1.0048,-0.67,-0.35,-1.92,-18.44,23.62,-28.55,0.987335,0.029084,-0.056276,0.145268,0.0,0.0,0.0,0,0
2026-06-16 16:24:44.450,3097610,R_Hip,0.0441,0.0015,0.9866,0.38,-0.3,9.36,-22.52,13.02,-37.92,0.996918,0.005402,-0.038331,-0.067965,0.0,0.0,0.0,0,0
2026-06-16 16:24:44.458,94557,L_Hip,0.1102,-0.0641,1.0011,0.19,-0.24,0.78,-29.94,21.04,-33.64,0.990692,-0.033509,-0.063723,-0.115329,0.0,0.0,0.0,0,0
2026-06-16 16:24:44.461,94577,L_Hip,0.1107,-0.0705,0.9856,0.19,-0.25,0.78,0.0,0.0,0.0,0.990692,-0.033509,-0.063692,-0.115329,0.0,0.0,0.0,0,0
2026-06-16 16:24:44.461,3097583,R_Ankle,0.0248,-0.0181,1.0,0.77,-1.75,-0.49,-12.7,11.41,-51.53,0.330271,0.091647,0.007324,0.93939,0.0,0.0,0.0,0,0
2026-06-16 16:24:44.464,94597,L_Hip,0.1141,-0.072,0.9948,0.19,-0.25,0.78,-28.6,19.78,-34.53,0.990692,-0.033509,-0.063692,-0.115329,0.0,0.0,0.0,0,0
2026-06-16 16:24:44.464,3097603,R_Ankle,0.0233,-0.0106,1.0134,0.77,-1.74,-0.51,0.0,0.0,0.0,0.330271,0.091617,0.007355,0.93939,0.0,0.0,0.0,0,0
2026-06-16 16:24:44.467,94617,L_Hip,0.1058,-0.0646,0.9696,0.19,-0.23,0.78,-29.95,20.4,-33.64,0.990692,-0.033479,-0.063692,-0.115329,0.0,0.0,0.0,0,0
2026-06-16 16:24:44.467,3097623,R_Ankle,0.0189,-0.0146,1.012,0.77,-1.74,-0.5,-10.66,10.79,-51.19,0.330271,0.091647,0.007324,0.93939,0.0,0.0,0.0,0,0
2026-06-16 16:24:44.469,3097643,R_Ankle,0.0189,-0.0275,1.0034,0.77,-1.74,-0.5,-10.3,12.06,-50.89,0.330271,0.091647,0.007324,0.93939,0.0,0.0,0.0,0,0
2026-06-16 16:24:44.484,94582,L_Hip,0.1117,-0.0695,0.9851,0.19,-0.24,0.77,-28.76,20.26,-34.38,0.990692,-0.033509,-0.063692,-0.115329,0.0,0.0,0.0,0,0
2026-06-16 16:24:44.485,3097605,R_Ankle,0.014,-0.0245,1.0014,0.76,-1.75,-0.48,-11.33,12.37,-51.22,0.330271,0.091647,0.007263,0.93939,0.0,0.0,0.0,0,0
2026-06-16 16:24:44.487,3097625,R_Ankle,0.0165,-0.0062,0.9909,0.77,-1.75,-0.49,0.0,0.0,0.0,0.330241,0.091678,0.007263,0.93939,0.0,0.0,0.0,0,0
2026-06-16 16:24:44.487,94602,L_Hip,0.1112,-0.0656,0.9798,0.19,-0.25,0.78,-29.22,21.06,-36.26,0.990692,-0.033479,-0.063692,-0.115329,0.0,0.0,0.0,0,0
2026-06-16 16:24:44.490,94622,L_Hip,0.1058,-0.0764,0.9817,0.2,-0.24,0.78,0.0,0.0,0.0,0.990692,-0.033509,-0.063662,-0.115329,0.0,0.0,0.0,0,0
2026-06-16 16:24:44.491,3097645,R_Ankle,0.0037,-0.0141,1.0149,0.77,-1.76,-0.49,-9.8,11.27,-50.73,0.330241,0.091678,0.007263,0.93939,0.0,0.0,0.0,0,0
2026-06-16 16:24:44.493,94642,L_Hip,0.1112,-0.072,0.9788,0.19,-0.23,0.77,-28.2,21.41,-35.99,0.990692,-0.033509,-0.063662,-0.115329,0.0,0.0,0.0,0,0
2026-06-16 16:24:44.493,3097665,R_Ankle,0.0189,-0.0072,0.9976,0.78,-1.77,-0.49,-11.16,12.54,-51.99,0.330241,0.091647,0.007263,0.93939,0.0,0.0,0.0,0,0
2026-06-16 16:24:44.499,94598,L_Ankle,0.0898,0.0217,0.9774,-0.67,-0.34,-1.93,-19.49,23.28,-29.25,0.987335,0.029084,-0.056276,0.145268,0.0,0.0,0.0,0,0
2026-06-16 16:24:44.501,94618,L_Ankle,0.0972,0.0222,0.9822,-0.67,-0.36,-1.92,-19.34,24.51,-29.41,0.987335,0.029084,-0.056276,0.145268,0.0,0.0,0.0,0,0
2026-06-16 16:24:44.503,94638,L_Ankle,0.0996,0.0197,0.9827,-0.66,-0.38,-1.92,0.0,0.0,0.0,0.987335,0.029084,-0.056246,0.145268,0.0,0.0,0.0,0,0
2026-06-16 16:24:44.506,94658,L_Ankle,0.0903,0.0207,0.9928,-0.65,-0.36,-1.93,-18.28,25.21,-28.03,0.987335,0.029115,-0.056246,0.145268,0.0,0.0,0.0,0,0
2026-06-16 16:24:44.506,3097627,R_Ankle,0.0204,-0.0067,1.0096,0.76,-1.74,-0.48,-12.69,12.36,-50.92,0.330241,0.091647,0.007263,0.93939,0.0,0.0,0.0,0,0
2026-06-16 16:24:44.508,3097628,R_Ankle,0.0302,-0.0096,0.9986,0.77,-1.75,-0.49,0.0,0.0,0.0,0.330241,0.091617,0.007263,0.93939,0.0,0.0,0.0,0,0
2026-06-16 16:24:44.510,3097648,R_Ankle,0.0179,-0.0141,0.9914,0.76,-1.74,-0.5,-11.83,12.84,-51.07,0.330241,0.091647,0.007294,0.93939,0.0,0.0,0.0,0,0
2026-06-16 16:24:44.513,3097668,R_Ankle,0.0175,-0.0161,0.999,0.78,-1.75,-0.5,-11.67,11.41,-50.9,0.330241,0.091647,0.007294,0.93939,0.0,0.0,0.0,0,0
2026-06-16 16:24:44.518,3097640,R_Hip,0.0358,-0.0028,0.9784,0.38,-0.29,9.35,-23.61,11.56,-36.89,0.996918,0.005402,-0.038362,-0.067965,0.0,0.0,0.0,0,0
2026-06-16 16:24:44.521,3097660,R_Hip,0.0372,-0.0003,0.9881,0.38,-0.31,9.36,-23.61,13.39,-37.92,0.996918,0.005432,-0.038331,-0.067965,0.0,0.0,0.0,0,0
2026-06-16 16:24:44.522,94620,L_Ankle,0.0884,0.0178,0.9798,-0.67,-0.35,-1.92,-18.12,23.96,-29.9,0.987335,0.029084,-0.056276,0.145268,0.0,0.0,0.0,0,0
2026-06-16 16:24:44.523,3097680,R_Hip,0.0382,-0.0013,0.9823,0.38,-0.3,9.36,0.0,0.0,0.0,0.996918,0.005432,-0.038331,-0.067965,0.0,0.0,0.0,0,0
2026-06-16 16:24:44.525,94640,L_Ankle,0.0864,0.0153,0.9986,-0.67,-0.35,-1.93,-18.46,23.61,-29.91,0.987335,0.029115,-0.056246,0.145268,0.0,0.0,0.0,0,0
2026-06-16 16:24:44.527,3097700,R_Hip,0.0323,0.003,0.9765,0.37,-0.29,9.38,-21.97,13.2,-37.4,0.996918,0.005402,-0.038331,-0.067965,0.0,0.0,0.0,0,0
2026-06-16 16:24:44.528,94660,L_Ankle,0.0903,0.0217,0.9784,-0.66,-0.35,-1.92,-17.42,24.3,-29.89,0.987335,0.029054,-0.056246,0.145268,0.0,0.0,0.0,0,0
2026-06-16 16:24:44.529,3097645,R_Shank,-0.0881,-1.0956,1.0172,-0.03,-0.89,-1.56,-14.23,6.18,-48.23,0.918973,0.024689,0.020814,-0.392956,0.0,0.0,0.0,0,0
2026-06-16 16:24:44.531,94680,L_Ankle,0.0972,0.0227,0.988,-0.65,-0.35,-1.91,0.0,0.0,0.0,0.987335,0.029054,-0.056215,0.145268,0.0,0.0,0.0,0,0
2026-06-16 16:24:44.533,3097665,R_Shank,-0.0906,-1.2252,1.0143,-0.03,-0.9,-1.57,-15.07,5.04,-46.87,0.918973,0.024689,0.020814,-0.392956,0.0,0.0,0.0,0,0
2026-06-16 16:24:44.534,94632,L_Hip,0.1038,-0.0661,0.9832,0.19,-0.24,0.77,-29.22,21.71,-35.39,0.990692,-0.03354,-0.063662,-0.115329,0.0,0.0,0.0,0,0
2026-06-16 16:24:44.535,3097685,R_Shank,-0.091,2.1164,1.0008,-0.02,-0.9,-1.58,0.0,0.0,0.0,0.918973,0.024689,0.020814,-0.392956,0.0,0.0,0.0,0,0
2026-06-16 16:24:44.537,94652,L_Hip,0.1058,-0.07,0.9856,0.2,-0.25,0.8,-28.56,21.4,-35.11,0.990692,-0.033509,-0.063631,-0.115329,0.0,0.0,0.0,0,0
2026-06-16 16:24:44.538,3097705,R_Shank,-0.0994,3.2756,1.0023,-0.01,-0.89,-1.57,-14.75,6.03,-46.57,0.918973,0.024689,0.020783,-0.392987,0.0,0.0,0.0,0,0
2026-06-16 16:24:44.539,94672,L_Hip,0.1166,-0.0808,0.9948,0.2,-0.25,0.8,0.0,0.0,0.0,0.990692,-0.033509,-0.063631,-0.115329,0.0,0.0,0.0,0,0
2026-06-16 16:24:44.541,3097650,R_Ankle,0.0204,-0.0096,1.0034,0.77,-1.74,-0.5,-11.67,11.73,-50.6,0.330241,0.091647,0.007263,0.93939,0.0,0.0,0.0,0,0
2026-06-16 16:24:44.542,94692,L_Hip,0.118,-0.0681,0.987,0.19,-0.24,0.78,-28.06,20.6,-35.55,0.990692,-0.033509,-0.063631,-0.115329,0.0,0.0,0.0,0,0
2026-06-16 16:24:44.543,3097670,R_Ankle,0.015,-0.0076,1.0115,0.77,-1.74,-0.5,0.0,0.0,0.0,0.330241,0.091647,0.007263,0.93939,0.0,0.0,0.0,0,0
2026-06-16 16:24:44.546,94642,L_Ankle,0.0918,0.0158,0.9918,-0.67,-0.36,-1.93,-18.08,23.97,-27.86,0.987335,0.029084,-0.056215,0.145268,0.0,0.0,0.0,0,0
2026-06-16 16:24:44.546,3097690,R_Ankle,0.0008,-0.0116,0.9986,0.77,-1.75,-0.5,-12.52,11.24,-50.45,0.330241,0.091647,0.007294,0.93939,0.0,0.0,0.0,0,0
2026-06-16 16:24:44.548,94662,L_Ankle,0.0884,0.0188,0.9986,-0.65,-0.37,-1.93,-19.52,24.69,-29.24,0.987335,0.029115,-0.056215,0.145238,0.0,0.0,0.0,0,0
2026-06-16 16:24:44.550,3097710,R_Ankle,0.016,-0.0141,1.0029,0.77,-1.74,-0.48,-11.18,11.27,-52.28,0.330241,0.091617,0.007324,0.93939,0.0,0.0,0.0,0,0
2026-06-16 16:24:44.551,94682,L_Ankle,0.0923,0.0158,0.9794,-0.67,-0.36,-1.9,-18.84,24.68,-30.59,0.987335,0.029115,-0.056215,0.145238,0.0,0.0,0.0,0,0
2026-06-16 16:24:44.552,3097663,R_Hip,0.0303,-0.0047,1.0116,0.38,-0.29,9.35,-24.16,14.3,-38.1,0.996918,0.005432,-0.038301,-0.067965,0.0,0.0,0.0,0,0
2026-06-16 16:24:44.554,94702,L_Ankle,0.0893,0.0158,0.9938,-0.67,-0.35,-1.93,0.0,0.0,0.0,0.987335,0.029115,-0.056215,0.145238,0.0,0.0,0.0,0,0
2026-06-16 16:24:44.555,3097683,R_Hip,0.0353,0.0079,1.0039,0.38,-0.29,9.37,-22.88,11.93,-38.6,0.996918,0.005402,-0.038331,-0.067965,0.0,0.0,0.0,0,0
2026-06-16 16:24:44.557,94647,L_Shank,0.0287,-0.0116,0.9935,1.69,-0.75,-0.39,-0.89,10.73,-34.34,0.999298,-0.002106,-0.035463,0.009369,0.0,0.0,0.0,0,0
2026-06-16 16:24:44.558,3097703,R_Hip,0.0308,0.003,0.9808,0.38,-0.29,9.37,0.0,0.0,0.0,0.996918,0.005402,-0.038301,-0.067965,0.0,0.0,0.0,0,0
2026-06-16 16:24:44.560,94667,L_Shank,0.0174,-0.0014,0.9662,1.7,-0.74,-0.38,0.0,0.0,0.0,0.999298,-0.002106,-0.035493,0.009339,0.0,0.0,0.0,0,0
2026-06-16 16:24:44.560,3097723,R_Hip,0.0358,0.0045,0.9905,0.38,-0.3,9.37,-23.98,14.48,-37.92,0.996918,0.005432,-0.03827,-0.067965,0.0,0.0,0.0,0,0
2026-06-16 16:24:44.563,94687,L_Shank,0.0345,-0.0019,0.9858,1.69,-0.74,-0.39,0.13,10.38,-33.41,0.999298,-0.002106,-0.035493,0.009339,0.0,0.0,0.0,0,0
2026-06-16 16:24:44.564,3097685,R_Hip,0.0402,-0.0037,1.0044,0.38,-0.31,9.35,-23.61,11.92,-36.89,0.996918,0.005432,-0.03827,-0.067965,0.0,0.0,0.0,0,0
2026-06-16 16:24:44.565,94707,L_Shank,0.035,-0.0107,0.9714,1.69,-0.74,-0.39,0.13,11.06,-33.42,0.999298,-0.002106,-0.035493,0.009369,0.0,0.0,0.0,0,0
2026-06-16 16:24:44.566,3097705,R_Hip,0.0353,0.0098,0.99,0.36,-0.3,9.35,-22.52,13.39,-37.23,0.996918,0.005432,-0.03827,-0.067965,0.0,0.0,0.0,0,0
2026-06-16 16:24:44.569,3097725,R_Hip,0.0486,0.003,0.9765,0.36,-0.29,9.36,0.0,0.0,0.0,0.996918,0.005402,-0.03827,-0.067965,0.0,0.0,0.0,0,0
2026-06-16 16:24:44.570,94665,L_Ankle,0.0987,0.0207,0.9909,-0.66,-0.37,-1.92,-18.45,23.26,-29.57,0.987335,0.029115,-0.056215,0.145268,0.0,0.0,0.0,0,0
2026-06-16 16:24:44.572,3097745,R_Hip,0.0407,0.0054,0.99,0.36,-0.29,9.37,-22.7,13.57,-36.72,0.996918,0.005402,-0.038301,-0.067965,0.0,0.0,0.0,0,0
2026-06-16 16:24:44.574,94685,L_Ankle,0.0879,0.0266,0.9899,-0.66,-0.37,-1.91,-19.16,23.62,-29.58,0.987365,0.029084,-0.056185,0.145238,0.0,0.0,0.0,0,0
2026-06-16 16:24:44.575,3097695,R_Ankle,0.0189,-0.0116,1.0034,0.77,-1.74,-0.49,-12.36,11.41,-51.22,0.330241,0.091617,0.007324,0.93939,0.0,0.0,0.0,0,0
2026-06-16 16:24:44.576,94705,L_Ankle,0.0996,0.0153,0.9909,-0.65,-0.37,-1.92,-18.79,22.55,-29.58,0.987335,0.029115,-0.056215,0.145238,0.0,0.0,0.0,0,0
2026-06-16 16:24:44.578,3097715,R_Ankle,0.0165,-0.0156,1.0134,0.77,-1.75,-0.5,-10.65,10.78,-50.27,0.330241,0.091617,0.007324,0.93939,0.0,0.0,0.0,0,0
2026-06-16 16:24:44.580,94725,L_Ankle,0.0957,0.0241,0.9875,-0.68,-0.36,-1.92,-20.01,22.4,-29.43,0.987335,0.029115,-0.056246,0.145268,0.0,0.0,0.0,0,0
2026-06-16 16:24:44.580,3097735,R_Ankle,0.0194,-0.0161,1.0077,0.77,-1.75,-0.5,0.0,0.0,0.0,0.330241,0.091617,0.007324,0.93939,0.0,0.0,0.0,0,0
2026-06-16 16:24:44.582,94670,L_Shank,0.0292,-0.0131,0.9724,1.7,-0.74,-0.4,0.14,11.4,-33.74,0.999298,-0.002075,-0.035524,0.009369,0.0,0.0,0.0,0,0
2026-06-16 16:24:44.583,3097755,R_Ankle,0.0224,-0.0136,1.0096,0.77,-1.74,-0.48,-11.51,10.3,-50.42,0.330241,0.091617,0.007324,0.93939,0.0,0.0,0.0,0,0
2026-06-16 16:24:44.584,94690,L_Shank,0.0223,-0.0072,0.9791,1.7,-0.74,-0.4,0.0,0.0,0.0,0.999298,-0.002075,-0.035524,0.009369,0.0,0.0,0.0,0,0
2026-06-16 16:24:44.587,94710,L_Shank,0.0262,-0.0063,0.9844,1.69,-0.74,-0.4,-0.02,9.88,-34.18,0.999298,-0.002075,-0.035554,0.009369,0.0,0.0,0.0,0,0
2026-06-16 16:24:44.589,94730,L_Shank,0.0238,-0.0165,0.9892,1.69,-0.74,-0.4,-0.72,10.56,-34.18,0.999298,-0.002075,-0.035585,0.009369,0.0,0.0,0.0,0,0
2026-06-16 16:24:44.592,94682,L_Hip,0.121,-0.072,0.9914,0.21,-0.25,0.77,-28.36,21.89,-35.84,0.990692,-0.03354,-0.063601,-0.115299,0.0,0.0,0.0,0,0
2026-06-16 16:24:44.594,94702,L_Hip,0.1073,-0.0666,0.988,0.2,-0.25,0.78,-29.43,20.57,-34.37,0.990692,-0.03354,-0.063601,-0.115299,0.0,0.0,0.0,0,0
2026-06-16 16:24:44.596,3097718,R_Ankle,0.0228,-0.0181,1.0019,0.77,-1.75,-0.5,-12.02,11.42,-51.83,0.330241,0.091617,0.007324,0.93939,0.0,0.0,0.0,0,0
2026-06-16 16:24:44.597,94722,L_Hip,0.1161,-0.0548,0.9866,0.2,-0.24,0.77,-28.42,20.27,-34.38,0.990692,-0.03354,-0.063601,-0.115299,0.0,0.0,0.0,0,0
2026-06-16 16:24:44.599,3097738,R_Ankle,0.0214,-0.0101,1.0062,0.77,-1.74,-0.49,-9.61,11.41,-49.34,0.330241,0.091647,0.007294,0.93939,0.0,0.0,0.0,0,0
2026-06-16 16:24:44.599,94742,L_Hip,0.1107,-0.0735,0.9846,0.2,-0.24,0.77,0.0,0.0,0.0,0.990692,-0.03354,-0.063631,-0.115299,0.0,0.0,0.0,0,0
2026-06-16 16:24:44.601,3097758,R_Ankle,0.013,-0.0126,0.9976,0.77,-1.75,-0.5,0.0,0.0,0.0,0.330241,0.091647,0.007294,0.93939,0.0,0.0,0.0,0,0
2026-06-16 16:24:44.602,94692,L_Shank,0.0345,-0.0092,0.9868,1.7,-0.72,-0.4,0.33,9.56,-35.11,0.999298,-0.002075,-0.035554,0.009369,0.0,0.0,0.0,0,0
2026-06-16 16:24:44.604,3097778,R_Ankle,0.015,-0.0166,1.0115,0.77,-1.75,-0.49,-11.66,12.68,-50.92,0.330241,0.091647,0.007324,0.93939,0.0,0.0,0.0,0,0
2026-06-16 16:24:44.605,94712,L_Shank,0.0243,-0.0067,0.9974,1.7,-0.74,-0.38,0.0,0.0,0.0,0.999298,-0.002075,-0.035554,0.009369,0.0,0.0,0.0,0,0
2026-06-16 16:24:44.608,94732,L_Shank,0.0272,-0.0121,0.9738,1.7,-0.73,-0.39,0.84,10.73,-34.36,0.999298,-0.002075,-0.035524,0.009369,0.0,0.0,0.0,0,0
2026-06-16 16:24:44.609,3097730,R_Hip,0.0343,0.0015,0.9818,0.38,-0.3,9.35,-23.43,12.84,-38.09,0.996918,0.005402,-0.03827,-0.067965,0.0,0.0,0.0,0,0
2026-06-16 16:24:44.611,94752,L_Shank,0.0306,-0.0019,0.9887,1.7,-0.74,-0.41,1.18,11.4,-33.44,0.999298,-0.002075,-0.035554,0.009369,0.0,0.0,0.0,0,0
2026-06-16 16:24:44.612,3097750,R_Hip,0.0362,-0.0028,0.9958,0.38,-0.3,9.35,-23.79,14.3,-37.41,0.996918,0.005432,-0.03827,-0.067965,0.0,0.0,0.0,0,0
2026-06-16 16:24:44.614,94707,L_Hip,0.1092,-0.0739,0.9846,0.19,-0.25,0.8,-28.74,19.94,-35.83,0.990692,-0.033509,-0.063601,-0.115299,0.0,0.0,0.0,0,0
2026-06-16 16:24:44.615,3097770,R_Hip,0.0481,0.0123,1.0025,0.37,-0.29,9.37,0.0,0.0,0.0,0.996918,0.005432,-0.03827,-0.067965,0.0,0.0,0.0,0,0
2026-06-16 16:24:44.617,94727,L_Hip,0.1028,-0.0666,0.988,0.2,-0.25,0.79,-28.58,20.43,-34.82,0.990692,-0.033479,-0.063601,-0.115329,0.0,0.0,0.0,0,0
2026-06-16 16:24:44.618,3097790,R_Hip,0.0427,0.0079,0.9784,0.38,-0.3,9.35,-22.7,13.2,-37.41,0.996918,0.005432,-0.03827,-0.067965,0.0,0.0,0.0,0,0
2026-06-16 16:24:44.619,94747,L_Hip,0.1053,-0.0636,0.9846,0.19,-0.24,0.77,-28.72,20.59,-36.12,0.990692,-0.033479,-0.063631,-0.115299,0.0,0.0,0.0,0,0
2026-06-16 16:24:44.622,3097735,R_Shank,-0.0935,2.5052,1.0066,-0.03,-0.87,-1.56,-15.59,5.88,-47.01,0.918973,0.024689,0.020783,-0.392987,0.0,0.0,0.0,0,0
2026-06-16 16:24:44.622,94767,L_Hip,0.1028,-0.0739,0.9788,0.21,-0.25,0.77,0.0,0.0,0.0,0.990722,-0.033509,-0.063601,-0.115299,0.0,0.0,0.0,0,0
2026-06-16 16:24:44.624,3097755,R_Shank,-0.0886,0.8344,0.9956,-0.04,-0.86,-1.56,-13.73,5.68,-47.18,0.918973,0.024689,0.020814,-0.392956,0.0,0.0,0.0,0,0
2026-06-16 16:24:44.625,94710,L_Ankle,0.0977,0.0227,0.9899,-0.67,-0.36,-1.91,-17.73,23.25,-28.19,0.987335,0.029115,-0.056246,0.145268,0.0,0.0,0.0,0,0
2026-06-16 16:24:44.627,3097775,R_Shank,-0.0861,-0.966,1.0056,-0.03,-0.84,-1.56,0.0,0.0,0.0,0.918973,0.024689,0.020844,-0.392956,0.0,0.0,0.0,0,0
2026-06-16 16:24:44.628,94730,L_Ankle,0.0835,0.0105,0.987,-0.67,-0.37,-1.93,0.0,0.0,0.0,0.987335,0.029115,-0.056246,0.145268,0.0,0.0,0.0,0,0
2026-06-16 16:24:44.630,3097795,R_Shank,-0.0876,2.5052,1.0104,-0.03,-0.89,-1.56,-14.07,5.69,-46.58,0.918973,0.024659,0.020844,-0.392987,0.0,0.0,0.0,0,0
2026-06-16 16:24:44.631,94750,L_Ankle,0.0962,0.0197,0.9957,-0.66,-0.36,-1.93,-18.25,23.08,-28.03,0.987335,0.029145,-0.056246,0.145238,0.0,0.0,0.0,0,0
2026-06-16 16:24:44.633,94770,L_Ankle,0.0972,0.0192,0.9904,-0.67,-0.36,-1.91,-19.7,24.87,-29.41,0.987335,0.029145,-0.056246,0.145238,0.0,0.0,0.0,0,0
2026-06-16 16:24:44.635,94715,L_Shank,0.0179,-0.0058,0.9878,1.7,-0.72,-0.41,-0.18,11.09,-35.6,0.999298,-0.002075,-0.035554,0.009369,0.0,0.0,0.0,0,0
2026-06-16 16:24:44.637,94735,L_Shank,0.0238,-0.0087,0.9974,1.7,-0.74,-0.4,0.0,0.0,0.0,0.999298,-0.002045,-0.035554,0.009369,0.0,0.0,0.0,0,0
2026-06-16 16:24:44.640,94755,L_Shank,0.0223,-0.0116,0.9815,1.7,-0.74,-0.39,1.02,10.23,-34.51,0.999298,-0.002045,-0.035554,0.009369,0.0,0.0,0.0,0,0
2026-06-16 16:24:44.642,94775,L_Shank,0.0331,-0.0033,0.9758,1.7,-0.74,-0.41,-0.9,10.73,-34.03,0.999298,-0.002045,-0.035554,0.009369,0.0,0.0,0.0,0,0
2026-06-16 16:24:44.653,3097775,R_Hip,0.0382,0.001,0.9847,0.38,-0.3,9.37,-22.7,13.57,-38.43,0.996918,0.005463,-0.03827,-0.067965,0.0,0.0,0.0,0,0
2026-06-16 16:24:44.655,3097795,R_Hip,0.0348,-0.0018,0.9871,0.38,-0.29,9.36,-22.7,15.03,-36.73,0.996918,0.005463,-0.038301,-0.067965,0.0,0.0,0.0,0,0
2026-06-16 16:24:44.657,3097815,R_Hip,0.0397,0.0049,0.9958,0.38,-0.31,9.36,0.0,0.0,0.0,0.996918,0.005432,-0.038301,-0.067965,0.0,0.0,0.0,0,0
2026-06-16 16:24:44.659,94757,L_Hip,0.1122,-0.0651,0.9851,0.19,-0.25,0.79,-28.37,22.2,-34.97,0.990722,-0.033479,-0.06357,-0.115299,0.0,0.0,0.0,0,0
2026-06-16 16:24:44.660,3097835,R_Hip,0.0303,-0.0028,0.9919,0.38,-0.29,9.36,-22.52,14.12,-39.63,0.996918,0.005463,-0.038301,-0.067965,0.0,0.0,0.0,0,0
2026-06-16 16:24:44.662,94777,L_Hip,0.1077,-0.0695,0.989,0.19,-0.24,0.77,-28.4,20.59,-35.26,0.990722,-0.033479,-0.06357,-0.115299,0.0,0.0,0.0,0,0
2026-06-16 16:24:44.663,3097780,R_Shank,-0.0891,-1.866,1.0128,-0.03,-0.89,-1.57,-14.24,5.2,-45.83,0.918943,0.024567,0.020783,-0.392987,0.0,0.0,0.0,0,0
2026-06-16 16:24:44.665,94797,L_Hip,0.1063,-0.0808,0.9866,0.19,-0.25,0.77,0.0,0.0,0.0,0.990722,-0.033509,-0.06357,-0.115299,0.0,0.0,0.0,0,0
2026-06-16 16:24:44.666,3097800,R_Shank,-0.0891,-1.0956,1.0052,-0.02,-0.9,-1.57,-13.36,4.02,-47.2,0.918943,0.024567,0.020783,-0.393017,0.0,0.0,0.0,0,0
2026-06-16 16:24:44.667,94817,L_Hip,0.121,-0.0676,0.987,0.19,-0.25,0.77,-30.42,20.88,-34.94,0.990722,-0.033509,-0.06354,-0.115299,0.0,0.0,0.0,0,0
2026-06-16 16:24:44.669,3097820,R_Shank,-0.0852,3.146,1.0018,-0.02,-0.89,-1.55,0.0,0.0,0.0,0.918943,0.024567,0.020783,-0.393017,0.0,0.0,0.0,0,0
2026-06-16 16:24:44.670,94760,L_Shank,0.0262,-0.0063,0.9892,1.7,-0.74,-0.39,1.89,11.76,-34.69,0.999298,-0.002045,-0.035524,0.009369,0.0,0.0,0.0,0,0
2026-06-16 16:24:44.672,3097840,R_Shank,-0.0901,2.3756,1.0028,-0.03,-0.87,-1.57,-14.58,5.86,-47.02,0.918943,0.024567,0.020783,-0.393017,0.0,0.0,0.0,0,0
2026-06-16 16:24:44.673,94780,L_Shank,0.0316,-0.0121,0.9729,1.71,-0.74,-0.4,0.0,0.0,0.0,0.999298,-0.002045,-0.035554,0.009369,0.0,0.0,0.0,0,0
2026-06-16 16:24:44.675,94800,L_Shank,0.0184,-0.0156,0.9825,1.7,-0.74,-0.41,1.18,11.74,-33.44,0.999298,-0.002045,-0.035524,0.009369,0.0,0.0,0.0,0,0
2026-06-16 16:24:44.677,94820,L_Shank,0.0248,-0.0165,0.995,1.68,-0.74,-0.41,1.36,10.55,-33.58,0.999298,-0.002045,-0.035524,0.009369,0.0,0.0,0.0,0,0
2026-06-16 16:24:44.679,94778,L_Ankle,0.0884,0.0227,0.977,-0.67,-0.37,-1.92,-18.25,22.73,-28.72,0.987335,0.029115,-0.056246,0.145238,0.0,0.0,0.0,0,0
2026-06-16 16:24:44.682,94798,L_Ankle,0.1031,0.0236,0.9957,-0.66,-0.35,-1.92,0.0,0.0,0.0,0.987335,0.029115,-0.056246,0.145238,0.0,0.0,0.0,0,0
2026-06-16 16:24:44.682,3097802,R_Shank,-0.0842,-0.1956,0.996,-0.03,-0.88,-1.55,-14.4,5.36,-46.88,0.918943,0.024567,0.020753,-0.393017,0.0,0.0,0.0,0,0
2026-06-16 16:24:44.685,94818,L_Ankle,0.0947,0.0227,0.9923,-0.67,-0.37,-1.9,-17.93,23.07,-29.73,0.987335,0.029115,-0.056246,0.145238,0.0,0.0,0.0,0,0
2026-06-16 16:24:44.686,3097822,R_Shank,-0.0802,-0.8364,1.0071,-0.01,-0.88,-1.55,-14.4,6.02,-47.78,0.918943,0.024537,0.020753,-0.393017,0.0,0.0,0.0,0,0
2026-06-16 16:24:44.688,3097803,R_Shank,-0.0901,-1.0956,0.998,-0.03,-0.89,-1.57,0.0,0.0,0.0,0.918943,0.024506,0.020753,-0.393017,0.0,0.0,0.0,0,0
2026-06-16 16:24:44.688,94838,L_Ankle,0.0947,0.0188,0.9966,-0.67,-0.35,-1.92,-18.77,23.27,-27.87,0.987335,0.029145,-0.056246,0.145238,0.0,0.0,0.0,0,0
2026-06-16 16:24:44.690,3097823,R_Shank,-0.0901,0.0636,1.008,-0.02,-0.87,-1.58,-14.41,5.04,-45.98,0.918943,0.024506,0.020722,-0.393017,0.0,0.0,0.0,0,0
2026-06-16 16:24:44.691,94782,L_Hip,0.1141,-0.0739,0.9866,0.19,-0.25,0.79,-29.23,21.7,-34.52,0.990722,-0.033509,-0.06354,-0.115299,0.0,0.0,0.0,0,0
2026-06-16 16:24:44.693,94802,L_Hip,0.1102,-0.072,0.9929,0.2,-0.23,0.79,-28.07,20.92,-34.39,0.990722,-0.033509,-0.06357,-0.115299,0.0,0.0,0.0,0,0
2026-06-16 16:24:44.696,94822,L_Hip,0.1077,-0.071,0.9929,0.21,-0.25,0.79,-30.43,20.87,-34.65,0.990722,-0.033509,-0.06357,-0.115299,0.0,0.0,0.0,0,0
