python_time,esp32_hw_time,sensor_name,ax,ay,az,gx,gy,gz,mx,my,mz,q0,q1,q2,q3,quat_roll,quat_pitch,quat_yaw,is_paused_flag,t_pose_flag
2026-06-08 19:13:30.602,232330,L_Shank,0.0467,-0.0009,0.9945,1.74,-1.1,-0.08,6.63,28.25,-36.98,0.997711,-0.000519,-0.046724,0.048463,0.0,0.0,0.0,0,0
2026-06-08 19:13:30.603,232189,R_Hip,-0.0223,-0.0076,0.9794,0.2,-1.22,1.54,-17.58,24.5,-27.16,0.990326,0.006958,-0.011841,-0.137974,0.0,0.0,0.0,0,0
2026-06-08 19:13:30.605,232340,L_Shank,0.0551,-0.0107,0.9801,1.74,-1.09,-0.07,6.12,28.43,-37.44,0.997711,-0.000488,-0.046724,0.048463,0.0,0.0,0.0,0,0
2026-06-08 19:13:30.606,232210,R_Shank,0.0355,2.628,1.0066,-0.06,-0.88,-1.58,-8.2,19.0,-22.73,0.972442,0.029084,-0.022736,0.230171,0.0,0.0,0.0,0,0
2026-06-08 19:13:30.608,232340,L_Ankle,0.0457,0.0105,1.0082,-0.7,-0.39,-0.84,-25.77,18.34,-51.82,0.961974,0.026399,-0.034059,0.269692,0.0,0.0,0.0,0,0
2026-06-08 19:13:30.609,232220,R_Shank,0.033,0.8276,1.0047,-0.06,-0.88,-1.58,0.0,0.0,0.0,0.972442,0.029084,-0.022736,0.230171,0.0,0.0,0.0,0,0
2026-06-08 19:13:30.611,232350,L_Ankle,0.0541,0.0105,0.9914,-0.68,-0.4,-0.85,-26.24,16.76,-50.3,0.961974,0.026399,-0.034028,0.269692,0.0,0.0,0.0,0,0
2026-06-08 19:13:30.613,232230,R_Shank,0.0365,-3.1552,1.0157,-0.04,-0.9,-1.58,-8.87,19.01,-23.63,0.972442,0.029084,-0.022736,0.230171,0.0,0.0,0.0,0,0
2026-06-08 19:13:30.615,232360,L_Ankle,0.0457,0.0085,0.9981,-0.69,-0.4,-0.83,0.0,0.0,0.0,0.961974,0.026399,-0.034028,0.269692,0.0,0.0,0.0,0,0
2026-06-08 19:13:30.617,232240,R_Shank,0.0335,-0.7136,1.0071,-0.05,-0.88,-1.58,-9.53,18.69,-23.92,0.972442,0.029084,-0.022736,0.230171,0.0,0.0,0.0,0,0
2026-06-08 19:13:30.619,232370,L_Ankle,0.0516,0.0061,0.976,-0.71,-0.39,-0.85,-25.9,18.17,-49.61,0.961974,0.026399,-0.034059,0.269692,0.0,0.0,0.0,0,0
2026-06-08 19:13:30.623,232211,R_Ankle,0.0317,-0.0161,0.9952,0.9,-1.87,-0.24,-1.92,29.2,-29.9,0.988128,0.045717,-0.084384,0.119877,0.0,0.0,0.0,0,0
2026-06-08 19:13:30.625,232362,L_Ankle,0.0565,0.0065,0.987,-0.7,-0.39,-0.83,-24.7,19.04,-50.1,0.961974,0.026399,-0.034059,0.269692,0.0,0.0,0.0,0,0
2026-06-08 19:13:30.628,232221,R_Ankle,0.0243,-0.0141,1.0038,0.9,-1.87,-0.25,0.0,0.0,0.0,0.988128,0.045717,-0.084384,0.119877,0.0,0.0,0.0,0,0
2026-06-08 19:13:30.630,232372,L_Ankle,0.0555,0.0065,1.001,-0.7,-0.41,-0.84,-25.39,17.98,-50.45,0.961974,0.026399,-0.034059,0.269692,0.0,0.0,0.0,0,0
2026-06-08 19:13:30.633,232231,R_Ankle,0.0331,-0.0304,1.0019,0.9,-1.85,-0.25,-3.45,28.07,-29.44,0.988128,0.045717,-0.084384,0.119877,0.0,0.0,0.0,0,0
2026-06-08 19:13:30.635,232382,L_Ankle,0.0575,0.0124,0.9885,-0.69,-0.41,-0.84,0.0,0.0,0.0,0.961943,0.026429,-0.034059,0.269692,0.0,0.0,0.0,0,0
2026-06-08 19:13:30.637,232241,R_Ankle,0.0351,-0.019,1.0134,0.89,-1.85,-0.25,-3.82,27.45,-30.97,0.988128,0.045686,-0.084384,0.119877,0.0,0.0,0.0,0,0
2026-06-08 19:13:30.640,232392,L_Ankle,0.0555,0.0144,0.9798,-0.69,-0.41,-0.84,-25.76,17.98,-51.48,0.961943,0.02646,-0.034028,0.269723,0.0,0.0,0.0,0,0
2026-06-08 19:13:30.641,232214,R_Hip,-0.0154,0.0001,1.0227,0.19,-1.2,1.52,-14.48,26.51,-25.97,0.990326,0.006958,-0.011841,-0.137974,0.0,0.0,0.0,0,0
2026-06-08 19:13:30.644,232372,L_Hip,0.121,-0.0744,1.0108,0.38,-0.1,0.81,-13.55,41.77,-60.98,0.997284,-0.030091,-0.066713,-0.003937,0.0,0.0,0.0,0,0
2026-06-08 19:13:30.645,232224,R_Hip,-0.0174,0.0113,1.001,0.19,-1.21,1.51,-15.57,24.68,-26.3,0.990326,0.006958,-0.011841,-0.137974,0.0,0.0,0.0,0,0
2026-06-08 19:13:30.648,232382,L_Hip,0.1087,-0.0764,0.9924,0.37,-0.11,0.82,-13.55,42.09,-60.98,0.997284,-0.030122,-0.066683,-0.003937,0.0,0.0,0.0,0,0
2026-06-08 19:13:30.648,232234,R_Hip,-0.0174,0.0079,1.0001,0.18,-1.22,1.51,-15.94,25.05,-26.99,0.990326,0.006928,-0.011841,-0.137974,0.0,0.0,0.0,0,0
2026-06-08 19:13:30.651,232392,L_Hip,0.1126,-0.0867,0.987,0.38,-0.12,0.82,0.0,0.0,0.0,0.997284,-0.030122,-0.066713,-0.003937,0.0,0.0,0.0,0,0
2026-06-08 19:13:30.651,232244,R_Hip,-0.0209,-0.0028,0.9929,0.19,-1.21,1.51,0.0,0.0,0.0,0.990326,0.006958,-0.011872,-0.137974,0.0,0.0,0.0,0,0
2026-06-08 19:13:30.654,232402,L_Hip,0.1166,-0.0739,0.9904,0.38,-0.12,0.82,-14.58,41.11,-60.96,0.997284,-0.030122,-0.066713,-0.003937,0.0,0.0,0.0,0,0
2026-06-08 19:13:30.655,232234,R_Ankle,0.0253,-0.0126,0.9957,0.9,-1.85,-0.25,-0.89,29.84,-29.89,0.988128,0.045686,-0.084414,0.119877,0.0,0.0,0.0,0,0
2026-06-08 19:13:30.657,232379,L_Shank,0.0555,-0.0102,0.9998,1.74,-1.09,-0.09,5.41,26.72,-36.79,0.997711,-0.000488,-0.046724,0.048463,0.0,0.0,0.0,0,0
2026-06-08 19:13:30.657,232244,R_Ankle,0.0248,-0.0176,0.988,0.9,-1.85,-0.24,0.0,0.0,0.0,0.988128,0.045686,-0.084384,0.119877,0.0,0.0,0.0,0,0
2026-06-08 19:13:30.660,232389,L_Shank,0.0492,-0.0072,0.9767,1.74,-1.1,-0.09,0.0,0.0,0.0,0.997711,-0.000488,-0.046724,0.048463,0.0,0.0,0.0,0,0
2026-06-08 19:13:30.662,232254,R_Ankle,0.017,-0.0205,0.9904,0.9,-1.86,-0.25,-2.28,27.94,-31.12,0.988128,0.045717,-0.084384,0.119907,0.0,0.0,0.0,0,0
2026-06-08 19:13:30.664,232399,L_Shank,0.0448,-0.0038,0.9906,1.74,-1.09,-0.07,6.29,27.58,-37.59,0.997711,-0.000488,-0.046724,0.048463,0.0,0.0,0.0,0,0
2026-06-08 19:13:30.666,232264,R_Ankle,0.0336,-0.0136,0.9981,0.89,-1.86,-0.26,-2.26,28.88,-30.2,0.988128,0.045717,-0.084353,0.119877,0.0,0.0,0.0,0,0
2026-06-08 19:13:30.668,232409,L_Shank,0.0575,-0.0082,0.9714,1.74,-1.1,-0.06,6.11,27.07,-37.11,0.997711,-0.000488,-0.046693,0.048463,0.0,0.0,0.0,0,0
2026-06-08 19:13:30.669,232255,R_Shank,0.0345,1.728,0.9956,-0.06,-0.89,-1.58,-11.74,19.56,-23.74,0.972442,0.029115,-0.022736,0.230171,0.0,0.0,0.0,0,0
2026-06-08 19:13:30.671,232395,L_Hip,0.1112,-0.0764,0.9958,0.36,-0.1,0.82,-13.2,42.74,-60.99,0.997284,-0.030091,-0.066744,-0.003937,0.0,0.0,0.0,0,0
2026-06-08 19:13:30.672,232265,R_Shank,0.0306,1.5984,1.0114,-0.05,-0.9,-1.58,0.0,0.0,0.0,0.972442,0.029115,-0.022736,0.230171,0.0,0.0,0.0,0,0
2026-06-08 19:13:30.674,232405,L_Hip,0.1038,-0.0739,0.9919,0.37,-0.1,0.82,-14.09,40.95,-59.95,0.997284,-0.030122,-0.066744,-0.003937,0.0,0.0,0.0,0,0
2026-06-08 19:13:30.675,232275,R_Shank,0.0419,1.728,0.9984,-0.04,-0.9,-1.58,-8.85,18.67,-24.23,0.972442,0.029145,-0.022767,0.230171,0.0,0.0,0.0,0,0
2026-06-08 19:13:30.677,232415,L_Hip,0.118,-0.0735,0.9977,0.38,-0.12,0.82,0.0,0.0,0.0,0.997284,-0.030122,-0.066744,-0.003937,0.0,0.0,0.0,0,0
2026-06-08 19:13:30.679,232285,R_Shank,0.0429,-3.1552,1.0109,-0.05,-0.87,-1.58,-11.22,18.72,-23.91,0.972411,0.029145,-0.022797,0.230171,0.0,0.0,0.0,0,0
2026-06-08 19:13:30.680,232425,L_Hip,0.1136,-0.0823,0.9885,0.38,-0.13,0.81,-13.73,41.93,-60.25,0.997284,-0.030091,-0.066744,-0.003937,0.0,0.0,0.0,0,0
2026-06-08 19:13:30.682,232264,R_Hip,-0.0159,0.0089,1.0035,0.18,-1.21,1.51,-16.3,24.32,-26.99,0.990326,0.006928,-0.011872,-0.137974,0.0,0.0,0.0,0,0
2026-06-08 19:13:30.684,232405,L_Shank,0.0492,-0.0072,0.9863,1.72,-1.1,-0.07,6.29,26.9,-37.58,0.997711,-0.000519,-0.046693,0.048463,0.0,0.0,0.0,0,0
2026-06-08 19:13:30.686,232274,R_Hip,-0.0154,0.0093,0.9986,0.19,-1.22,1.51,-15.76,24.13,-26.13,0.990326,0.006897,-0.011872,-0.137974,0.0,0.0,0.0,0,0
2026-06-08 19:13:30.686,232415,L_Shank,0.0546,-0.0107,0.9945,1.74,-1.11,-0.07,0.0,0.0,0.0,0.997711,-0.000519,-0.046724,0.048463,0.0,0.0,0.0,0,0
2026-06-08 19:13:30.689,232425,L_Shank,0.0526,-0.0146,0.9935,1.73,-1.09,-0.08,6.29,26.9,-37.27,0.997711,-0.000519,-0.046724,0.048463,0.0,0.0,0.0,0,0
2026-06-08 19:13:30.690,232284,R_Hip,-0.0189,0.004,1.0006,0.19,-1.21,1.51,-16.3,24.32,-26.99,0.990326,0.006928,-0.011902,-0.137974,0.0,0.0,0.0,0,0
2026-06-08 19:13:30.692,232294,R_Hip,-0.0322,0.003,1.002,0.19,-1.21,1.49,0.0,0.0,0.0,0.990326,0.006928,-0.011902,-0.137974,0.0,0.0,0.0,0,0
2026-06-08 19:13:30.693,232435,L_Shank,0.0438,-0.0023,0.9978,1.73,-1.1,-0.07,5.41,26.72,-36.79,0.997711,-0.000519,-0.046724,0.048463,0.0,0.0,0.0,0,0
2026-06-08 19:13:30.696,232289,R_Hip,-0.0253,0.0074,0.9962,0.19,-1.19,1.52,-15.58,24.32,-28.7,0.990326,0.006928,-0.011902,-0.138005,0.0,0.0,0.0,0,0
2026-06-08 19:13:30.696,232407,L_Ankle,0.0531,0.0114,0.9822,-0.7,-0.38,-0.83,-23.62,17.25,-50.08,0.961943,0.026429,-0.034028,0.269692,0.0,0.0,0.0,0,0
2026-06-08 19:13:30.699,232299,R_Hip,-0.0223,0.0054,1.003,0.18,-1.21,1.51,-16.3,25.04,-25.96,0.990326,0.006928,-0.011902,-0.138005,0.0,0.0,0.0,0,0
2026-06-08 19:13:30.699,232417,L_Ankle,0.0516,0.0222,0.9755,-0.7,-0.41,-0.84,-25.05,18.69,-50.44,0.961943,0.026429,-0.034028,0.269723,0.0,0.0,0.0,0,0
2026-06-08 19:13:30.702,232309,R_Hip,-0.0253,0.0045,1.0068,0.18,-1.2,1.52,-17.76,25.05,-27.68,0.990326,0.006928,-0.011872,-0.138005,0.0,0.0,0.0,0,0
2026-06-08 19:13:30.702,232427,L_Ankle,0.0545,0.008,0.9894,-0.7,-0.4,-0.84,0.0,0.0,0.0,0.961943,0.026429,-0.034028,0.269723,0.0,0.0,0.0,0,0
2026-06-08 19:13:30.705,232319,R_Hip,-0.0233,-0.0008,1.0035,0.18,-1.21,1.51,0.0,0.0,0.0,0.990326,0.006928,-0.011872,-0.138005,0.0,0.0,0.0,0,0
2026-06-08 19:13:30.705,232437,L_Ankle,0.0585,0.0085,0.987,-0.7,-0.4,-0.84,-26.1,17.99,-51.15,0.961943,0.02646,-0.034028,0.269723,0.0,0.0,0.0,0,0
2026-06-08 19:13:30.708,232300,R_Shank,0.033,-0.7136,1.0023,-0.04,-0.88,-1.58,-9.52,18.35,-24.23,0.972411,0.029145,-0.022797,0.230171,0.0,0.0,0.0,0,0
2026-06-08 19:13:30.709,232417,L_Hip,0.1126,-0.0725,0.988,0.38,-0.11,0.81,-14.06,42.24,-60.25,0.997284,-0.030091,-0.066744,-0.003937,0.0,0.0,0.0,0,0
2026-06-08 19:13:30.711,232310,R_Shank,0.0237,-3.1552,1.0037,-0.06,-0.89,-1.58,0.0,0.0,0.0,0.972411,0.029145,-0.022767,0.230171,0.0,0.0,0.0,0,0
2026-06-08 19:13:30.712,232427,L_Hip,0.1166,-0.0735,0.9948,0.38,-0.1,0.8,-14.06,41.92,-60.54,0.997284,-0.030122,-0.066744,-0.003937,0.0,0.0,0.0,0,0
2026-06-08 19:13:30.715,232320,R_Shank,0.0311,-2.1252,0.9951,-0.04,-0.88,-1.58,-9.2,18.68,-23.63,0.972411,0.029115,-0.022767,0.230171,0.0,0.0,0.0,0,0
2026-06-08 19:13:30.716,232437,L_Hip,0.1102,-0.0838,0.9745,0.38,-0.12,0.81,-13.06,42.9,-59.1,0.997284,-0.030152,-0.066744,-0.003937,0.0,0.0,0.0,0,0
2026-06-08 19:13:30.719,232330,R_Shank,0.034,-2.2548,1.0109,-0.03,-0.88,-1.58,-9.19,18.68,-24.23,0.972411,0.029115,-0.022767,0.230171,0.0,0.0,0.0,0,0
2026-06-08 19:13:30.719,232447,L_Hip,0.1102,-0.0769,0.9798,0.37,-0.12,0.81,-13.89,42.08,-60.39,0.997284,-0.030152,-0.066744,-0.003937,0.0,0.0,0.0,0,0
2026-06-08 19:13:30.722,232300,R_Ankle,0.0238,-0.0136,0.9919,0.9,-1.87,-0.26,-3.63,28.55,-30.52,0.988128,0.045747,-0.084384,0.119877,0.0,0.0,0.0,0,0
2026-06-08 19:13:30.723,232430,L_Shank,0.0467,-0.0038,0.9916,1.73,-1.11,-0.09,5.58,26.88,-36.02,0.997711,-0.000519,-0.046724,0.048463,0.0,0.0,0.0,0,0
2026-06-08 19:13:30.727,232310,R_Ankle,0.0258,-0.0111,0.9952,0.88,-1.87,-0.25,0.0,0.0,0.0,0.988128,0.045747,-0.084384,0.119877,0.0,0.0,0.0,0,0
2026-06-08 19:13:30.727,232440,L_Shank,0.0575,-0.0072,0.9734,1.74,-1.09,-0.08,0.0,0.0,0.0,0.997711,-0.000519,-0.046724,0.048463,0.0,0.0,0.0,0,0
2026-06-08 19:13:30.730,232301,R_Ankle,0.0336,-0.0185,1.001,0.88,-1.86,-0.25,-3.12,28.4,-30.36,0.988128,0.045747,-0.084384,0.119877,0.0,0.0,0.0,0,0
2026-06-08 19:13:30.730,232450,L_Shank,0.0516,-0.0151,0.9844,1.73,-1.09,-0.08,6.46,27.07,-37.43,0.997711,-0.000519,-0.046724,0.048463,0.0,0.0,0.0,0,0
2026-06-08 19:13:30.734,232460,L_Shank,0.0453,0.002,0.9887,1.74,-1.1,-0.07,7.16,27.75,-37.13,0.997711,-0.000519,-0.046724,0.048463,0.0,0.0,0.0,0,0
2026-06-08 19:13:30.735,232311,R_Ankle,0.0366,-0.021,1.0101,0.89,-1.87,-0.24,-1.07,28.72,-29.73,0.988128,0.045778,-0.084384,0.119877,0.0,0.0,0.0,0,0
2026-06-08 19:13:30.738,232452,L_Ankle,0.0575,0.0129,0.9923,-0.7,-0.41,-0.83,-25.57,18.52,-50.62,0.961943,0.02646,-0.033998,0.269723,0.0,0.0,0.0,0,0
2026-06-08 19:13:30.739,232314,R_Hip,-0.0184,0.003,1.0112,0.18,-1.22,1.53,-15.76,23.04,-27.84,0.990326,0.006928,-0.011872,-0.138005,0.0,0.0,0.0,0,0
2026-06-08 19:13:30.741,232462,L_Ankle,0.0516,0.0163,0.9885,-0.7,-0.38,-0.84,-25.91,19.23,-49.27,0.961943,0.02646,-0.033998,0.269723,0.0,0.0,0.0,0,0
2026-06-08 19:13:30.743,232324,R_Hip,-0.0154,0.0089,1.0044,0.18,-1.22,1.51,-19.04,23.77,-27.85,0.990326,0.006928,-0.011872,-0.138005,0.0,0.0,0.0,0,0
2026-06-08 19:13:30.744,232472,L_Ankle,0.056,0.0109,0.9966,-0.71,-0.38,-0.85,0.0,0.0,0.0,0.961943,0.026429,-0.033998,0.269723,0.0,0.0,0.0,0,0
2026-06-08 19:13:30.746,232334,R_Hip,-0.0293,0.002,1.0112,0.19,-1.21,1.51,-17.4,24.32,-27.68,0.990326,0.006928,-0.011872,-0.138005,0.0,0.0,0.0,0,0
2026-06-08 19:13:30.747,232482,L_Ankle,0.0575,0.0056,0.9851,-0.7,-0.39,-0.84,-26.22,16.05,-49.96,0.961943,0.026429,-0.034028,0.269723,0.0,0.0,0.0,0,0
2026-06-08 19:13:30.749,232344,R_Hip,-0.0312,-0.0013,1.0121,0.19,-1.22,1.51,0.0,0.0,0.0,0.990326,0.006928,-0.011872,-0.138005,0.0,0.0,0.0,0,0
2026-06-08 19:13:30.750,232462,L_Hip,0.1097,-0.0725,0.9919,0.39,-0.11,0.82,-14.74,41.58,-60.53,0.997284,-0.030122,-0.066744,-0.003937,0.0,0.0,0.0,0,0
2026-06-08 19:13:30.752,232322,R_Shank,0.0326,-1.7432,1.0205,-0.06,-0.89,-1.59,-9.69,18.85,-24.67,0.972411,0.029145,-0.022767,0.230201,0.0,0.0,0.0,0,0
2026-06-08 19:13:30.753,232472,L_Hip,0.1073,-0.0808,0.9958,0.38,-0.1,0.82,0.0,0.0,0.0,0.997284,-0.030122,-0.066713,-0.003937,0.0,0.0,0.0,0,0
2026-06-08 19:13:30.755,232332,R_Shank,0.0301,-0.0724,1.0186,-0.07,-0.87,-1.58,-10.05,18.54,-22.56,0.972411,0.029145,-0.022767,0.230201,0.0,0.0,0.0,0,0
2026-06-08 19:13:30.757,232482,L_Hip,0.1176,-0.0789,0.99,0.38,-0.1,0.8,-14.23,42.4,-59.81,0.997284,-0.030122,-0.066713,-0.003937,0.0,0.0,0.0,0,0
2026-06-08 19:13:30.758,232342,R_Shank,0.0345,0.1864,1.0104,-0.06,-0.89,-1.58,-8.88,19.34,-23.32,0.972411,0.029145,-0.022767,0.230201,0.0,0.0,0.0,0,0
2026-06-08 19:13:30.759,232492,L_Hip,0.1176,-0.0749,0.9788,0.38,-0.12,0.8,0.0,0.0,0.0,0.997284,-0.030122,-0.066713,-0.003906,0.0,0.0,0.0,0,0
2026-06-08 19:13:30.761,232352,R_Shank,0.0429,-2.3844,1.0071,-0.07,-0.88,-1.58,0.0,0.0,0.0,0.972411,0.029115,-0.022797,0.230201,0.0,0.0,0.0,0,0
2026-06-08 19:13:30.763,232475,L_Ankle,0.0506,0.0129,0.9966,-0.7,-0.4,-0.86,-26.26,17.46,-50.98,0.961943,0.026429,-0.034059,0.269753,0.0,0.0,0.0,0,0
2026-06-08 19:13:30.764,232324,R_Ankle,0.0317,-0.0245,1.0062,0.89,-1.87,-0.26,-2.77,28.07,-29.43,0.988128,0.045747,-0.084384,0.119877,0.0,0.0,0.0,0,0
2026-06-08 19:13:30.766,232485,L_Ankle,0.056,0.0012,0.9928,-0.7,-0.39,-0.83,-24.54,18.5,-51.29,0.961943,0.026429,-0.034059,0.269753,0.0,0.0,0.0,0,0
2026-06-08 19:13:30.767,232334,R_Ankle,0.0273,-0.019,1.0129,0.89,-1.85,-0.26,0.0,0.0,0.0,0.988128,0.045747,-0.084384,0.119877,0.0,0.0,0.0,0,0
2026-06-08 19:13:30.769,232495,L_Ankle,0.0521,0.0017,0.9794,-0.7,-0.39,-0.85,-26.96,17.83,-50.31,0.961943,0.026429,-0.034059,0.269753,0.0,0.0,0.0,0,0
2026-06-08 19:13:30.771,232344,R_Ankle,0.0307,-0.0131,1.0115,0.9,-1.86,-0.25,-3.45,29.03,-30.06,0.988128,0.045717,-0.084384,0.119877,0.0,0.0,0.0,0,0
2026-06-08 19:13:30.772,232505,L_Ankle,0.055,0.009,0.9765,-0.71,-0.38,-0.83,0.0,0.0,0.0,0.961943,0.026429,-0.034059,0.269753,0.0,0.0,0.0,0,0
2026-06-08 19:13:30.774,232354,R_Ankle,0.0307,-0.0215,1.0163,0.89,-1.87,-0.25,-4.66,28.55,-30.84,0.988128,0.045747,-0.084384,0.119877,0.0,0.0,0.0,0,0
2026-06-08 19:13:30.775,232480,L_Shank,0.0472,0.0,0.9878,1.74,-1.09,-0.09,4.54,26.89,-36.63,0.997711,-0.000519,-0.046724,0.048433,0.0,0.0,0.0,0,0
2026-06-08 19:13:30.778,232339,R_Hip,-0.0223,0.0079,1.0044,0.18,-1.19,1.5,-15.21,25.05,-26.65,0.990326,0.006928,-0.011841,-0.138005,0.0,0.0,0.0,0,0
2026-06-08 19:13:30.778,232490,L_Shank,0.0507,-0.0092,0.9964,1.74,-1.09,-0.09,0.0,0.0,0.0,0.997711,-0.000549,-0.046724,0.048433,0.0,0.0,0.0,0,0
2026-06-08 19:13:30.781,232349,R_Hip,-0.0223,0.0064,1.0001,0.18,-1.21,1.51,-15.39,24.13,-26.82,0.990326,0.006928,-0.011872,-0.138005,0.0,0.0,0.0,0,0
2026-06-08 19:13:30.781,232500,L_Shank,0.0482,-0.0048,0.9974,1.74,-1.09,-0.09,7.33,25.2,-36.94,0.997711,-0.000549,-0.046693,0.048433,0.0,0.0,0.0,0,0
2026-06-08 19:13:30.784,232359,R_Hip,-0.0164,0.004,1.0035,0.18,-1.21,1.52,-16.48,24.5,-26.13,0.990326,0.006928,-0.011872,-0.138005,0.0,0.0,0.0,0,0
2026-06-08 19:13:30.784,232510,L_Shank,0.0521,-0.0067,0.9911,1.74,-1.09,-0.08,6.28,26.55,-36.64,0.997711,-0.000519,-0.046724,0.048433,0.0,0.0,0.0,0,0
2026-06-08 19:13:30.787,232369,R_Hip,-0.0115,0.0059,0.9982,0.18,-1.2,1.5,0.0,0.0,0.0,0.990326,0.006928,-0.011872,-0.138005,0.0,0.0,0.0,0,0
2026-06-08 19:13:30.787,232507,L_Hip,0.1126,-0.0833,0.9909,0.38,-0.11,0.81,-13.88,42.09,-60.98,0.997284,-0.030122,-0.066713,-0.003937,0.0,0.0,0.0,0,0
2026-06-08 19:13:30.790,232345,R_Shank,0.035,0.8276,1.022,-0.05,-0.88,-1.58,-9.38,19.51,-23.47,0.972411,0.029145,-0.022767,0.230201,0.0,0.0,0.0,0,0
2026-06-08 19:13:30.790,232517,L_Hip,0.1146,-0.0828,0.9904,0.38,-0.12,0.81,-14.25,41.75,-59.81,0.997284,-0.030122,-0.066713,-0.003906,0.0,0.0,0.0,0,0
2026-06-08 19:13:30.793,232355,R_Shank,0.0252,-2.514,1.0061,-0.06,-0.89,-1.58,-9.03,18.84,-23.78,0.972411,0.029145,-0.022767,0.230201,0.0,0.0,0.0,0,0
2026-06-08 19:13:30.794,232527,L_Hip,0.1117,-0.0769,0.9909,0.38,-0.12,0.81,-12.86,43.07,-60.41,0.997284,-0.030122,-0.066683,-0.003906,0.0,0.0,0.0,0,0
2026-06-08 19:13:30.796,232365,R_Shank,0.0311,2.7576,1.0148,-0.06,-0.9,-1.59,0.0,0.0,0.0,0.972411,0.029115,-0.022736,0.230201,0.0,0.0,0.0,0,0
2026-06-08 19:13:30.797,232537,L_Hip,0.1092,-0.0769,0.9958,0.38,-0.11,0.81,-13.77,41.59,-58.22,0.997284,-0.030122,-0.066713,-0.003906,0.0,0.0,0.0,0,0
2026-06-08 19:13:30.799,232375,R_Shank,0.0375,-1.6136,1.0172,-0.06,-0.88,-1.58,-10.37,17.88,-22.87,0.972411,0.029115,-0.022767,0.230201,0.0,0.0,0.0,0,0
2026-06-08 19:13:30.801,232520,L_Ankle,0.0516,0.0158,0.9885,-0.7,-0.4,-0.84,-24.87,18.51,-50.61,0.961943,0.026429,-0.034059,0.269753,0.0,0.0,0.0,0,0
2026-06-08 19:13:30.802,232367,R_Shank,0.0316,0.9572,1.0196,-0.05,-0.88,-1.58,-9.17,18.01,-24.54,0.972411,0.029084,-0.022767,0.230201,0.0,0.0,0.0,0,0
2026-06-08 19:13:30.804,232530,L_Ankle,0.0545,0.0109,1.0024,-0.7,-0.39,-0.84,-25.04,18.33,-50.44,0.961943,0.02646,-0.034059,0.269753,0.0,0.0,0.0,0,0
2026-06-08 19:13:30.806,232377,R_Shank,0.033,-2.3844,0.9869,-0.06,-0.87,-1.59,-8.32,17.5,-25.0,0.972411,0.029115,-0.022767,0.230201,0.0,0.0,0.0,0,0
2026-06-08 19:13:30.807,232540,L_Ankle,0.0506,0.0036,0.9923,-0.69,-0.4,-0.83,-24.68,19.04,-49.08,0.961943,0.02646,-0.034089,0.269753,0.0,0.0,0.0,0,0
2026-06-08 19:13:30.808,232387,R_Shank,0.034,0.8276,1.0056,-0.06,-0.87,-1.58,0.0,0.0,0.0,0.972411,0.029115,-0.022767,0.230201,0.0,0.0,0.0,0,0
2026-06-08 19:13:30.810,232550,L_Ankle,0.058,0.01,0.9909,-0.71,-0.41,-0.83,0.0,0.0,0.0,0.961943,0.02646,-0.034089,0.269753,0.0,0.0,0.0,0,0
2026-06-08 19:13:30.812,232397,R_Shank,0.0326,2.628,1.021,-0.06,-0.89,-1.58,-8.85,18.34,-24.24,0.972411,0.029115,-0.022767,0.230201,0.0,0.0,0.0,0,0
2026-06-08 19:13:30.813,232552,L_Hip,0.1073,-0.0715,0.9788,0.37,-0.12,0.81,-12.73,40.98,-60.84,0.997284,-0.030152,-0.066713,-0.003906,0.0,0.0,0.0,0,0
2026-06-08 19:13:30.815,232369,R_Ankle,0.0228,-0.0131,1.0038,0.89,-1.86,-0.26,-2.62,28.25,-31.12,0.988128,0.045747,-0.084384,0.119877,0.0,0.0,0.0,0,0
2026-06-08 19:13:30.816,232562,L_Hip,0.1092,-0.0759,0.9987,0.36,-0.12,0.82,0.0,0.0,0.0,0.997284,-0.030122,-0.066713,-0.003906,0.0,0.0,0.0,0,0
2026-06-08 19:13:30.818,232379,R_Ankle,0.0258,-0.0151,0.9938,0.89,-1.86,-0.25,0.0,0.0,0.0,0.988128,0.045747,-0.084384,0.119877,0.0,0.0,0.0,0,0
2026-06-08 19:13:30.819,232572,L_Hip,0.1028,-0.0848,0.9759,0.35,-0.12,0.82,-12.4,41.3,-59.69,0.997284,-0.030091,-0.066713,-0.003906,0.0,0.0,0.0,0,0
2026-06-08 19:13:30.822,232389,R_Ankle,0.0228,-0.0126,1.0053,0.89,-1.87,-0.25,-1.75,28.72,-30.04,0.988128,0.045778,-0.084384,0.119877,0.0,0.0,0.0,0,0
2026-06-08 19:13:30.822,232582,L_Hip,0.1077,-0.0754,0.9914,0.35,-0.11,0.82,-13.06,41.62,-60.55,0.997284,-0.030091,-0.066744,-0.003906,0.0,0.0,0.0,0,0
2026-06-08 19:13:30.825,232399,R_Ankle,0.0322,-0.024,0.9981,0.9,-1.87,-0.25,-2.96,28.25,-30.82,0.988128,0.045778,-0.084384,0.119877,0.0,0.0,0.0,0,0
2026-06-08 19:13:30.825,232555,L_Shank,0.0472,-0.0126,0.9825,1.73,-1.08,-0.09,6.98,26.9,-36.96,0.997711,-0.000519,-0.046724,0.048433,0.0,0.0,0.0,0,0
2026-06-08 19:13:30.827,232565,L_Shank,0.0492,-0.0087,0.9887,1.74,-1.09,-0.08,0.0,0.0,0.0,0.997711,-0.000519,-0.046724,0.048433,0.0,0.0,0.0,0,0
2026-06-08 19:13:30.828,232389,R_Hip,-0.0312,0.0108,1.0054,0.2,-1.2,1.53,-15.76,25.23,-26.82,0.990326,0.006928,-0.011872,-0.138005,0.0,0.0,0.0,0,0
2026-06-08 19:13:30.830,232575,L_Shank,0.0531,-0.0087,0.995,1.75,-1.09,-0.09,6.11,26.73,-37.42,0.997711,-0.000519,-0.046724,0.048433,0.0,0.0,0.0,0,0
2026-06-08 19:13:30.831,232399,R_Hip,-0.0164,0.0074,1.0039,0.2,-1.2,1.52,-15.57,25.41,-25.96,0.990326,0.006928,-0.011902,-0.138005,0.0,0.0,0.0,0,0
2026-06-08 19:13:30.833,232585,L_Shank,0.0487,-0.0043,0.9892,1.74,-1.09,-0.07,6.12,26.4,-38.04,0.997711,-0.000519,-0.046724,0.048463,0.0,0.0,0.0,0,0
2026-06-08 19:13:30.834,232409,R_Hip,-0.0204,-0.0008,0.9938,0.19,-1.2,1.52,-16.67,23.95,-27.33,0.990326,0.006958,-0.011872,-0.138005,0.0,0.0,0.0,0,0
2026-06-08 19:13:30.836,232419,R_Hip,-0.0238,0.0098,0.9905,0.18,-1.19,1.51,0.0,0.0,0.0,0.990326,0.006958,-0.011872,-0.138005,0.0,0.0,0.0,0,0
2026-06-08 19:13:30.837,232565,L_Ankle,0.0472,0.008,0.9837,-0.71,-0.38,-0.84,-23.63,18.67,-49.4,0.961943,0.02646,-0.034089,0.269753,0.0,0.0,0.0,0,0
2026-06-08 19:13:30.840,232391,R_Ankle,0.0366,-0.0185,0.9861,0.89,-1.87,-0.25,-3.29,28.24,-30.21,0.988128,0.045808,-0.084384,0.119877,0.0,0.0,0.0,0,0
2026-06-08 19:13:30.840,232575,L_Ankle,0.0506,0.0085,0.987,-0.7,-0.4,-0.84,-25.0,16.21,-49.77,0.961943,0.02646,-0.034089,0.269753,0.0,0.0,0.0,0,0
2026-06-08 19:13:30.842,232401,R_Ankle,0.0322,-0.0185,1.0062,0.89,-1.87,-0.25,0.0,0.0,0.0,0.988098,0.045808,-0.084414,0.119877,0.0,0.0,0.0,0,0
2026-06-08 19:13:30.843,232585,L_Ankle,0.0457,0.007,0.9914,-0.7,-0.41,-0.83,-25.74,18.7,-49.78,0.961943,0.02646,-0.034089,0.269753,0.0,0.0,0.0,0,0
2026-06-08 19:13:30.845,232411,R_Ankle,0.0253,-0.0185,1.001,0.88,-1.86,-0.25,-1.24,28.25,-29.88,0.988098,0.045778,-0.084414,0.119877,0.0,0.0,0.0,0,0
2026-06-08 19:13:30.846,232595,L_Ankle,0.0604,0.0149,0.9894,-0.7,-0.4,-0.84,-25.2,17.8,-49.94,0.961943,0.02646,-0.03412,0.269753,0.0,0.0,0.0,0,0
2026-06-08 19:13:30.848,232575,L_Hip,0.1077,-0.0852,0.9832,0.38,-0.11,0.82,-13.21,42.42,-60.41,0.997284,-0.030122,-0.066744,-0.003937,0.0,0.0,0.0,0,0
2026-06-08 19:13:30.849,232421,R_Ankle,0.0199,-0.0151,1.0129,0.9,-1.87,-0.25,-3.3,26.97,-30.5,0.988128,0.045778,-0.084414,0.119877,0.0,0.0,0.0,0,0
2026-06-08 19:13:30.851,232585,L_Hip,0.1141,-0.0739,0.989,0.38,-0.09,0.8,0.0,0.0,0.0,0.997284,-0.030122,-0.066744,-0.003937,0.0,0.0,0.0,0,0
2026-06-08 19:13:30.852,232412,R_Shank,0.0321,-1.6136,1.0032,-0.05,-0.89,-1.57,-8.02,18.5,-23.49,0.972411,0.029115,-0.022767,0.230201,0.0,0.0,0.0,0,0
2026-06-08 19:13:30.854,232595,L_Hip,0.1117,-0.0754,0.9909,0.38,-0.11,0.81,-13.07,41.29,-59.97,0.997284,-0.030122,-0.066744,-0.003906,0.0,0.0,0.0,0,0
2026-06-08 19:13:30.855,232422,R_Shank,0.0355,1.3392,1.0109,-0.05,-0.89,-1.58,-10.16,17.04,-24.83,0.972411,0.029145,-0.022767,0.230201,0.0,0.0,0.0,0,0
2026-06-08 19:13:30.857,232605,L_Hip,0.1126,-0.0695,0.9924,0.37,-0.12,0.82,-12.05,41.63,-59.99,0.997284,-0.030122,-0.066744,-0.003937,0.0,0.0,0.0,0,0
2026-06-08 19:13:30.857,232432,R_Shank,0.036,-3.1552,1.0114,-0.05,-0.88,-1.59,0.0,0.0,0.0,0.972411,0.029176,-0.022767,0.230201,0.0,0.0,0.0,0,0
2026-06-08 19:13:30.860,232580,L_Shank,0.0492,-0.0048,0.9993,1.74,-1.09,-0.08,6.81,27.06,-36.81,0.997711,-0.000519,-0.046724,0.048433,0.0,0.0,0.0,0,0
2026-06-08 19:13:30.860,232442,R_Shank,0.0296,-0.4544,1.0056,-0.06,-0.87,-1.59,-9.68,17.86,-24.08,0.972411,0.029145,-0.022767,0.230201,0.0,0.0,0.0,0,0
2026-06-08 19:13:30.863,232590,L_Shank,0.0492,-0.0019,0.982,1.74,-1.1,-0.08,6.11,26.72,-36.8,0.997711,-0.000519,-0.046724,0.048463,0.0,0.0,0.0,0,0
2026-06-08 19:13:30.863,232435,R_Shank,0.0365,1.5984,1.0133,-0.06,-0.88,-1.57,-9.69,18.52,-24.07,0.972411,0.029115,-0.022767,0.230201,0.0,0.0,0.0,0,0
2026-06-08 19:13:30.865,232600,L_Shank,0.0541,-0.0082,0.9873,1.74,-1.12,-0.08,0.0,0.0,0.0,0.997711,-0.000519,-0.046724,0.048433,0.0,0.0,0.0,0,0
2026-06-08 19:13:30.866,232445,R_Shank,0.0291,-2.514,1.0013,-0.06,-0.89,-1.59,-9.52,17.7,-23.03,0.972411,0.029145,-0.022767,0.230201,0.0,0.0,0.0,0,0
2026-06-08 19:13:30.869,232610,L_Shank,0.0477,-0.0033,0.9902,1.73,-1.09,-0.09,6.98,27.24,-36.97,0.997711,-0.000519,-0.046693,0.048433,0.0,0.0,0.0,0,0
2026-06-08 19:13:30.869,232455,R_Shank,0.0335,2.4984,1.0225,-0.06,-0.88,-1.58,0.0,0.0,0.0,0.972411,0.029115,-0.022767,0.230201,0.0,0.0,0.0,0,0
2026-06-08 19:13:30.872,232605,L_Shank,0.0472,-0.0116,0.9878,1.74,-1.1,-0.09,6.46,28.43,-37.13,0.997711,-0.000519,-0.046693,0.048463,0.0,0.0,0.0,0,0
2026-06-08 19:13:30.872,232465,R_Shank,0.0286,-0.0724,1.008,-0.06,-0.88,-1.58,-9.56,19.68,-23.31,0.972411,0.029115,-0.022767,0.230201,0.0,0.0,0.0,0,0
2026-06-08 19:13:30.875,232615,L_Shank,0.057,-0.0009,0.9897,1.72,-1.09,-0.08,6.46,27.75,-37.13,0.997711,-0.000519,-0.046693,0.048463,0.0,0.0,0.0,0,0
2026-06-08 19:13:30.875,232436,R_Ankle,0.0302,-0.0195,1.0129,0.88,-1.86,-0.25,-3.13,27.13,-30.65,0.988128,0.045747,-0.084384,0.119907,0.0,0.0,0.0,0,0
2026-06-08 19:13:30.877,232625,L_Shank,0.0472,-0.0146,0.981,1.74,-1.11,-0.08,0.0,0.0,0.0,0.997711,-0.000519,-0.046724,0.048433,0.0,0.0,0.0,0,0
2026-06-08 19:13:30.878,232446,R_Ankle,0.0331,-0.0151,0.9952,0.89,-1.87,-0.25,0.0,0.0,0.0,0.988128,0.045747,-0.084384,0.119907,0.0,0.0,0.0,0,0
2026-06-08 19:13:30.880,232635,L_Shank,0.0492,-0.0082,0.9954,1.74,-1.09,-0.07,4.89,27.23,-36.64,0.997711,-0.000519,-0.046724,0.048433,0.0,0.0,0.0,0,0
2026-06-08 19:13:30.881,232456,R_Ankle,0.0243,-0.0116,0.9995,0.9,-1.87,-0.25,-3.64,28.24,-30.83,0.988098,0.045747,-0.084414,0.119907,0.0,0.0,0.0,0,0
2026-06-08 19:13:30.883,232610,L_Ankle,0.0482,0.0158,0.9923,-0.7,-0.4,-0.84,-26.1,18.7,-50.8,0.961943,0.02646,-0.03412,0.269753,0.0,0.0,0.0,0,0
2026-06-08 19:13:30.884,232466,R_Ankle,0.0248,-0.0166,1.0201,0.89,-1.86,-0.26,-1.75,28.41,-30.04,0.988098,0.045778,-0.084414,0.119907,0.0,0.0,0.0,0,0
2026-06-08 19:13:30.886,232620,L_Ankle,0.056,0.0041,0.9909,-0.71,-0.39,-0.83,0.0,0.0,0.0,0.961943,0.026429,-0.03412,0.269753,0.0,0.0,0.0,0,0
2026-06-08 19:13:30.887,232439,R_Hip,-0.0164,0.0006,1.0049,0.18,-1.22,1.52,-15.03,24.87,-28.87,0.990326,0.006958,-0.011841,-0.138005,0.0,0.0,0.0,0,0
2026-06-08 19:13:30.889,232630,L_Ankle,0.0428,0.0153,0.9798,-0.71,-0.39,-0.84,-25.39,18.69,-49.77,0.961943,0.026399,-0.03415,0.269753,0.0,0.0,0.0,0,0
2026-06-08 19:13:30.890,232449,R_Hip,-0.0209,0.0162,0.9871,0.19,-1.19,1.52,-15.94,25.05,-26.31,0.990326,0.006989,-0.011841,-0.138005,0.0,0.0,0.0,0,0
2026-06-08 19:13:30.891,232640,L_Ankle,0.0541,0.01,0.9851,-0.71,-0.39,-0.85,-25.23,19.57,-50.27,0.961943,0.026399,-0.03412,0.269753,0.0,0.0,0.0,0,0
2026-06-08 19:13:30.893,232459,R_Hip,-0.0209,-0.0023,0.9986,0.2,-1.2,1.52,-15.94,24.31,-26.3,0.990326,0.006958,-0.011841,-0.138005,0.0,0.0,0.0,0,0
2026-06-08 19:13:30.894,232620,L_Hip,0.1176,-0.0784,0.9938,0.38,-0.1,0.8,-13.72,41.93,-61.12,0.997284,-0.030091,-0.066744,-0.003906,0.0,0.0,0.0,0,0
2026-06-08 19:13:30.896,232469,R_Hip,-0.0199,0.0054,1.0054,0.19,-1.22,1.51,0.0,0.0,0.0,0.990326,0.006989,-0.011841,-0.138005,0.0,0.0,0.0,0,0
2026-06-08 19:13:30.897,232630,L_Hip,0.1112,-0.0808,0.9837,0.37,-0.12,0.83,0.0,0.0,0.0,0.997284,-0.030091,-0.066744,-0.003906,0.0,0.0,0.0,0,0
2026-06-08 19:13:30.899,232457,R_Shank,0.0345,0.8276,1.009,-0.06,-0.89,-1.58,-8.87,19.01,-23.02,0.972411,0.029084,-0.022767,0.230201,0.0,0.0,0.0,0,0
2026-06-08 19:13:30.901,232640,L_Hip,0.1097,-0.0671,0.9812,0.38,-0.11,0.82,-14.23,41.76,-60.68,0.997284,-0.030091,-0.066774,-0.003906,0.0,0.0,0.0,0,0
2026-06-08 19:13:30.903,232467,R_Shank,0.0232,-0.584,1.0032,-0.06,-0.88,-1.59,-10.35,17.87,-24.37,0.972411,0.029084,-0.022736,0.230201,0.0,0.0,0.0,0,0
2026-06-08 19:13:30.904,232650,L_Hip,0.1077,-0.0823,1.003,0.38,-0.11,0.83,-12.56,40.82,-60.7,0.997284,-0.030122,-0.066774,-0.003906,0.0,0.0,0.0,0,0
2026-06-08 19:13:30.906,232477,R_Shank,0.0291,-1.6136,0.9989,-0.06,-0.87,-1.59,0.0,0.0,0.0,0.972411,0.029084,-0.022736,0.230201,0.0,0.0,0.0,0,0
2026-06-08 19:13:30.907,232630,L_Shank,0.0438,-0.0151,0.9988,1.74,-1.11,-0.08,5.94,26.22,-36.94,0.997711,-0.000519,-0.046693,0.048433,0.0,0.0,0.0,0,0
2026-06-08 19:13:30.909,232487,R_Shank,0.0291,0.1864,0.9941,-0.06,-0.88,-1.59,-9.53,18.36,-23.63,0.972411,0.029054,-0.022706,0.230201,0.0,0.0,0.0,0,0
2026-06-08 19:13:30.910,232640,L_Shank,0.0458,-0.0072,0.994,1.74,-1.09,-0.08,6.46,26.39,-37.11,0.997711,-0.000519,-0.046693,0.048433,0.0,0.0,0.0,0,0
2026-06-08 19:13:30.912,232464,R_Hip,-0.0184,0.0079,0.9962,0.19,-1.21,1.51,-17.58,24.5,-27.85,0.990326,0.006989,-0.011841,-0.138005,0.0,0.0,0.0,0,0
2026-06-08 19:13:30.913,232650,L_Shank,0.0511,-0.0126,0.993,1.73,-1.11,-0.08,5.59,26.56,-37.26,0.997711,-0.000519,-0.046693,0.048433,0.0,0.0,0.0,0,0
2026-06-08 19:13:30.915,232474,R_Hip,-0.0233,0.0089,1.0025,0.18,-1.2,1.53,-16.85,24.87,-27.16,0.990326,0.007019,-0.011811,-0.137974,0.0,0.0,0.0,0,0
2026-06-08 19:13:30.916,232660,L_Shank,0.059,-0.0072,0.9873,1.73,-1.09,-0.09,0.0,0.0,0.0,0.997711,-0.000519,-0.046693,0.048433,0.0,0.0,0.0,0,0
2026-06-08 19:13:30.918,232484,R_Hip,-0.0219,0.0103,0.9967,0.18,-1.21,1.51,-14.48,23.22,-26.64,0.990326,0.007019,-0.011841,-0.137974,0.0,0.0,0.0,0,0
2026-06-08 19:13:30.919,232494,R_Hip,-0.0159,0.0001,1.0112,0.19,-1.21,1.52,0.0,0.0,0.0,0.990326,0.00705,-0.011841,-0.137974,0.0,0.0,0.0,0,0
2026-06-08 19:13:30.922,232480,R_Shank,0.034,-0.8432,1.0056,-0.05,-0.89,-1.58,-9.87,19.02,-24.22,0.972411,0.029054,-0.022736,0.230201,0.0,0.0,0.0,0,0
2026-06-08 19:13:30.924,232490,R_Shank,0.0306,2.2392,1.0056,-0.04,-0.9,-1.59,0.0,0.0,0.0,0.972411,0.029054,-0.022736,0.230201,0.0,0.0,0.0,0,0
2026-06-08 19:13:30.926,232500,R_Shank,0.034,-0.9728,1.022,-0.06,-0.87,-1.58,-10.22,19.36,-23.91,0.972411,0.029084,-0.022736,0.230201,0.0,0.0,0.0,0,0
2026-06-08 19:13:30.928,232510,R_Shank,0.0242,-0.0724,1.0071,-0.06,-0.87,-1.58,-9.86,18.36,-23.92,0.972411,0.029084,-0.022706,0.230201,0.0,0.0,0.0,0,0
2026-06-08 19:13:30.930,232481,R_Ankle,0.0297,-0.024,1.0019,0.9,-1.85,-0.26,-2.45,27.45,-30.34,0.988128,0.045778,-0.084384,0.119907,0.0,0.0,0.0,0,0
2026-06-08 19:13:30.932,232491,R_Ankle,0.0341,-0.019,0.9952,0.89,-1.87,-0.25,0.0,0.0,0.0,0.988128,0.045778,-0.084384,0.119907,0.0,0.0,0.0,0,0
2026-06-08 19:13:30.935,232501,R_Ankle,0.0282,-0.0146,1.0048,0.9,-1.87,-0.25,-3.28,28.86,-29.6,0.988098,0.045778,-0.084414,0.119907,0.0,0.0,0.0,0,0
2026-06-08 19:13:30.937,232678,L_Ankle,0.0462,0.0129,0.999,-0.69,-0.39,-0.83,-24.65,17.27,-49.08,0.961943,0.026399,-0.03412,0.269753,0.0,0.0,0.0,0,0
2026-06-08 19:13:30.938,232511,R_Ankle,0.0326,-0.0176,1.0062,0.9,-1.86,-0.25,-2.25,29.18,-28.97,0.988098,0.045778,-0.084414,0.119907,0.0,0.0,0.0,0,0
2026-06-08 19:13:30.940,232688,L_Ankle,0.0555,0.0153,0.9986,-0.7,-0.4,-0.83,0.0,0.0,0.0,0.961943,0.026399,-0.03415,0.269753,0.0,0.0,0.0,0,0
2026-06-08 19:13:30.941,232501,R_Shank,0.0316,-0.8432,0.998,-0.06,-0.87,-1.58,-10.38,18.54,-23.16,0.972411,0.029084,-0.022706,0.230201,0.0,0.0,0.0,0,0
2026-06-08 19:13:30.943,232698,L_Ankle,0.0516,0.0105,0.9813,-0.7,-0.39,-0.83,-24.7,18.32,-50.78,0.961943,0.026399,-0.03415,0.269784,0.0,0.0,0.0,0,0
2026-06-08 19:13:30.944,232511,R_Shank,0.0326,-0.584,0.996,-0.06,-0.88,-1.58,0.0,0.0,0.0,0.972411,0.029054,-0.022706,0.230201,0.0,0.0,0.0,0,0
2026-06-08 19:13:30.946,232708,L_Ankle,0.0492,0.0046,0.9938,-0.7,-0.4,-0.84,-26.45,18.35,-51.15,0.961943,0.026399,-0.03412,0.269753,0.0,0.0,0.0,0,0
2026-06-08 19:13:30.948,232521,R_Shank,0.036,-3.0256,1.0028,-0.05,-0.9,-1.56,-10.7,18.54,-24.36,0.972411,0.029054,-0.022736,0.230201,0.0,0.0,0.0,0,0
2026-06-08 19:13:30.949,232680,L_Shank,0.0492,-0.0126,0.9897,1.72,-1.09,-0.07,6.64,28.26,-37.29,0.997711,-0.000519,-0.046724,0.048433,0.0,0.0,0.0,0,0
2026-06-08 19:13:30.951,232531,R_Shank,0.0389,-0.7136,1.021,-0.06,-0.88,-1.57,-9.21,19.67,-23.92,0.972411,0.029023,-0.022736,0.230201,0.0,0.0,0.0,0,0
2026-06-08 19:13:30.952,232690,L_Shank,0.057,-0.0033,0.9892,1.73,-1.1,-0.08,7.68,26.56,-37.28,0.997711,-0.000519,-0.046693,0.048433,0.0,0.0,0.0,0,0
2026-06-08 19:13:30.954,232514,R_Hip,-0.0199,0.001,1.002,0.19,-1.22,1.51,-17.76,23.22,-27.33,0.990326,0.00705,-0.011841,-0.137974,0.0,0.0,0.0,0,0
2026-06-08 19:13:30.955,232700,L_Shank,0.0511,0.0,0.9825,1.73,-1.08,-0.08,4.89,27.58,-37.58,0.997711,-0.000488,-0.046724,0.048433,0.0,0.0,0.0,0,0
2026-06-08 19:13:30.957,232524,R_Hip,-0.0268,0.0069,1.0092,0.19,-1.21,1.51,-16.3,25.41,-26.99,0.990326,0.00705,-0.011841,-0.137974,0.0,0.0,0.0,0,0
2026-06-08 19:13:30.958,232710,L_Shank,0.0521,-0.0048,0.9878,1.73,-1.08,-0.09,0.0,0.0,0.0,0.997711,-0.000488,-0.046724,0.048433,0.0,0.0,0.0,0,0
2026-06-08 19:13:30.960,232534,R_Hip,-0.015,0.0093,1.0001,0.17,-1.21,1.52,-15.39,23.77,-26.47,0.990326,0.00705,-0.011841,-0.137974,0.0,0.0,0.0,0,0
2026-06-08 19:13:30.961,232687,L_Hip,0.1087,-0.0749,0.9938,0.37,-0.12,0.81,-13.74,42.24,-59.38,0.997284,-0.030122,-0.066774,-0.003937,0.0,0.0,0.0,0,0
2026-06-08 19:13:30.963,232544,R_Hip,-0.0283,-0.0018,0.9991,0.17,-1.22,1.51,-15.39,23.77,-26.13,0.990326,0.00705,-0.011841,-0.137974,0.0,0.0,0.0,0,0
2026-06-08 19:13:30.964,232697,L_Hip,0.1136,-0.0735,0.9856,0.38,-0.11,0.8,0.0,0.0,0.0,0.997284,-0.030152,-0.066774,-0.003937,0.0,0.0,0.0,0,0
2026-06-08 19:13:30.966,232524,R_Shank,0.0404,1.5984,0.9936,-0.06,-0.88,-1.58,-9.86,17.7,-23.32,0.972411,0.029023,-0.022706,0.230232,0.0,0.0,0.0,0,0
2026-06-08 19:13:30.967,232707,L_Hip,0.1146,-0.0754,0.9895,0.37,-0.12,0.8,-14.39,42.56,-60.53,0.997284,-0.030152,-0.066774,-0.003906,0.0,0.0,0.0,0,0
2026-06-08 19:13:30.969,232534,R_Shank,0.0281,2.2392,1.0109,-0.06,-0.89,-1.58,0.0,0.0,0.0,0.972411,0.029023,-0.022736,0.230232,0.0,0.0,0.0,0,0
2026-06-08 19:13:30.970,232717,L_Hip,0.1166,-0.0848,0.9914,0.38,-0.11,0.82,-14.4,42.24,-60.24,0.997284,-0.030152,-0.066744,-0.003906,0.0,0.0,0.0,0,0
2026-06-08 19:13:30.972,232544,R_Shank,0.0326,-1.7432,1.0186,-0.06,-0.89,-1.59,-9.5,16.71,-23.03,0.972411,0.029054,-0.022706,0.230232,0.0,0.0,0.0,0,0
2026-06-08 19:13:30.973,232700,L_Ankle,0.0516,0.009,0.9952,-0.7,-0.4,-0.84,-25.39,17.98,-50.45,0.961943,0.026368,-0.034089,0.269753,0.0,0.0,0.0,0,0
2026-06-08 19:13:30.975,232554,R_Shank,0.0355,-0.7136,1.0013,-0.05,-0.89,-1.58,-9.36,18.84,-24.38,0.972411,0.029054,-0.022736,0.230232,0.0,0.0,0.0,0,0
2026-06-08 19:13:30.976,232710,L_Ankle,0.0467,0.0075,0.9938,-0.7,-0.41,-0.85,0.0,0.0,0.0,0.961943,0.026368,-0.034089,0.269784,0.0,0.0,0.0,0,0
2026-06-08 19:13:30.978,232526,R_Ankle,0.016,-0.0121,1.0024,0.89,-1.87,-0.25,-2.6,29.19,-30.21,0.988098,0.045778,-0.084414,0.119907,0.0,0.0,0.0,0,0
2026-06-08 19:13:30.979,232720,L_Ankle,0.0555,0.0129,0.9774,-0.7,-0.41,-0.84,-25.56,19.58,-48.92,0.961943,0.026399,-0.034089,0.269784,0.0,0.0,0.0,0,0
2026-06-08 19:13:30.981,232536,R_Ankle,0.0351,-0.019,1.0139,0.9,-1.87,-0.26,0.0,0.0,0.0,0.988098,0.045778,-0.084414,0.119907,0.0,0.0,0.0,0,0
2026-06-08 19:13:30.981,232730,L_Ankle,0.0585,0.0017,1.001,-0.7,-0.39,-0.83,-24.17,17.78,-50.94,0.961943,0.026399,-0.034089,0.269784,0.0,0.0,0.0,0,0
2026-06-08 19:13:30.984,232546,R_Ankle,0.0253,-0.0185,1.0067,0.89,-1.87,-0.25,-3.28,28.87,-29.91,0.988098,0.045778,-0.084414,0.119907,0.0,0.0,0.0,0,0
2026-06-08 19:13:30.986,232556,R_Ankle,0.0312,-0.0181,1.0077,0.89,-1.86,-0.25,-3.11,29.35,-30.37,0.988128,0.045778,-0.084414,0.119877,0.0,0.0,0.0,0,0
2026-06-08 19:13:30.989,232730,L_Shank,0.057,-0.0043,0.9897,1.73,-1.09,-0.09,6.8,27.74,-36.51,0.997711,-0.000488,-0.046724,0.048433,0.0,0.0,0.0,0,0
2026-06-08 19:13:30.989,232549,R_Ankle,0.0214,-0.024,1.0029,0.9,-1.87,-0.24,-1.41,28.73,-30.04,0.988098,0.045778,-0.084445,0.119907,0.0,0.0,0.0,0,0
2026-06-08 19:13:30.992,232559,R_Ankle,0.0248,-0.0235,1.0115,0.9,-1.86,-0.25,0.0,0.0,0.0,0.988098,0.045778,-0.084414,0.119907,0.0,0.0,0.0,0,0
2026-06-08 19:13:30.992,232740,L_Shank,0.0507,-0.0116,0.9954,1.72,-1.09,-0.08,7.34,27.24,-37.28,0.997711,-0.000488,-0.046724,0.048433,0.0,0.0,0.0,0,0
2026-06-08 19:13:30.995,232569,R_Ankle,0.0273,-0.0195,0.9995,0.9,-1.87,-0.26,-2.61,28.56,-30.51,0.988098,0.045747,-0.084414,0.119907,0.0,0.0,0.0,0,0
2026-06-08 19:13:30.995,232750,L_Shank,0.0458,-0.0077,0.993,1.74,-1.1,-0.08,5.24,26.56,-37.57,0.997711,-0.000488,-0.046724,0.048433,0.0,0.0,0.0,0,0
2026-06-08 19:13:30.998,232760,L_Shank,0.0575,-0.0023,0.9964,1.74,-1.1,-0.08,0.0,0.0,0.0,0.997711,-0.000488,-0.046724,0.048433,0.0,0.0,0.0,0,0
2026-06-08 19:13:30.998,232579,R_Ankle,0.0248,-0.0195,1.0034,0.9,-1.86,-0.24,-2.09,28.72,-30.05,0.988098,0.045747,-0.084414,0.119907,0.0,0.0,0.0,0,0
2026-06-08 19:13:31.001,232732,L_Hip,0.1141,-0.0764,0.9851,0.36,-0.11,0.81,-13.08,40.97,-59.68,0.997284,-0.030183,-0.066713,-0.003906,0.0,0.0,0.0,0,0
2026-06-08 19:13:31.001,232564,R_Hip,-0.0174,0.0054,0.9996,0.18,-1.21,1.51,-16.3,24.68,-26.99,0.990326,0.00705,-0.011811,-0.137974,0.0,0.0,0.0,0,0
2026-06-08 19:13:31.004,232742,L_Hip,0.1215,-0.0715,1.0137,0.38,-0.12,0.81,0.0,0.0,0.0,0.997284,-0.030183,-0.066744,-0.003906,0.0,0.0,0.0,0,0
2026-06-08 19:13:31.004,232574,R_Hip,-0.0268,0.001,1.0006,0.19,-1.2,1.51,0.0,0.0,0.0,0.990326,0.00705,-0.011811,-0.138005,0.0,0.0,0.0,0,0
2026-06-08 19:13:31.007,232752,L_Hip,0.1117,-0.07,0.9837,0.38,-0.12,0.8,-12.88,41.78,-60.7,0.997284,-0.030213,-0.066744,-0.003906,0.0,0.0,0.0,0,0
2026-06-08 19:13:31.008,232584,R_Hip,-0.0179,-0.0042,1.0054,0.19,-1.21,1.51,-16.31,25.78,-28.02,0.990326,0.00705,-0.011841,-0.138005,0.0,0.0,0.0,0,0
2026-06-08 19:13:31.010,232594,R_Hip,-0.0273,-0.0003,0.9986,0.19,-1.2,1.51,0.0,0.0,0.0,0.990326,0.007019,-0.011841,-0.138005,0.0,0.0,0.0,0,0
2026-06-08 19:13:31.010,232762,L_Hip,0.1112,-0.0798,0.9803,0.37,-0.12,0.82,-13.56,41.77,-60.4,0.997284,-0.030183,-0.066713,-0.003906,0.0,0.0,0.0,0,0
2026-06-08 19:13:31.013,232569,R_Shank,0.0384,0.8276,1.0056,-0.06,-0.87,-1.58,-9.7,18.2,-23.17,0.972411,0.029054,-0.022736,0.230232,0.0,0.0,0.0,0,0
2026-06-08 19:13:31.014,232744,L_Ankle,0.0462,0.0041,0.9717,-0.71,-0.39,-0.85,-26.45,18.35,-50.81,0.961943,0.026399,-0.03412,0.269784,0.0,0.0,0.0,0,0
2026-06-08 19:13:31.016,232579,R_Shank,0.0335,-1.4844,1.0143,-0.05,-0.87,-1.58,0.0,0.0,0.0,0.972411,0.029054,-0.022736,0.230232,0.0,0.0,0.0,0,0
2026-06-08 19:13:31.016,232754,L_Ankle,0.0482,0.0105,0.9774,-0.7,-0.38,-0.83,0.0,0.0,0.0,0.961943,0.026399,-0.034089,0.269784,0.0,0.0,0.0,0,0
2026-06-08 19:13:31.019,232764,L_Ankle,0.0443,0.0105,0.9861,-0.7,-0.38,-0.85,-25.9,17.46,-50.29,0.961943,0.026399,-0.034089,0.269784,0.0,0.0,0.0,0,0
2026-06-08 19:13:31.019,232589,R_Shank,0.034,-2.2548,0.9994,-0.06,-0.88,-1.58,-9.87,19.02,-24.52,0.972411,0.029023,-0.022706,0.230232,0.0,0.0,0.0,0,0
2026-06-08 19:13:31.022,232774,L_Ankle,0.0413,0.0129,0.9866,-0.69,-0.39,-0.85,-25.23,18.51,-50.96,0.961943,0.026399,-0.034089,0.269784,0.0,0.0,0.0,0,0
2026-06-08 19:13:31.023,232599,R_Shank,0.0316,2.628,0.9975,-0.06,-0.88,-1.58,-10.88,18.71,-23.91,0.972411,0.029023,-0.022706,0.230232,0.0,0.0,0.0,0,0
2026-06-08 19:13:31.025,232755,L_Shank,0.057,-0.0014,0.9734,1.72,-1.1,-0.07,5.94,26.9,-36.95,0.997711,-0.000488,-0.046724,0.048433,0.0,0.0,0.0,0,0
2026-06-08 19:13:31.026,232589,R_Hip,-0.0179,0.0089,0.9929,0.18,-1.21,1.51,-15.03,24.86,-26.13,0.990326,0.007019,-0.011811,-0.138005,0.0,0.0,0.0,0,0
2026-06-08 19:13:31.028,232765,L_Shank,0.0467,-0.0116,0.9892,1.72,-1.1,-0.09,5.75,28.41,-35.88,0.997711,-0.000488,-0.046754,0.048433,0.0,0.0,0.0,0,0
2026-06-08 19:13:31.029,232599,R_Hip,-0.0233,-0.0003,1.0001,0.19,-1.2,1.51,-15.94,23.58,-26.64,0.990326,0.007019,-0.01178,-0.138005,0.0,0.0,0.0,0,0
2026-06-08 19:13:31.031,232775,L_Shank,0.0551,-0.0156,0.9806,1.73,-1.09,-0.06,5.94,27.24,-37.58,0.997711,-0.000458,-0.046754,0.048433,0.0,0.0,0.0,0,0
2026-06-08 19:13:31.032,232609,R_Hip,-0.0283,-0.0057,1.0035,0.19,-1.19,1.52,0.0,0.0,0.0,0.990326,0.00705,-0.01178,-0.138005,0.0,0.0,0.0,0,0
2026-06-08 19:13:31.033,232785,L_Shank,0.0467,-0.0063,0.9887,1.73,-1.09,-0.08,0.0,0.0,0.0,0.997711,-0.000458,-0.046754,0.048433,0.0,0.0,0.0,0,0
2026-06-08 19:13:31.035,232619,R_Hip,-0.0164,0.0045,0.9972,0.19,-1.2,1.51,-15.21,26.51,-27.68,0.990326,0.007019,-0.01178,-0.138005,0.0,0.0,0.0,0,0
2026-06-08 19:13:31.037,232767,L_Ankle,0.0482,0.0061,0.9861,-0.7,-0.38,-0.83,-25.39,18.69,-49.77,0.961943,0.026399,-0.034059,0.269784,0.0,0.0,0.0,0,0
2026-06-08 19:13:31.038,232591,R_Shank,0.0286,0.5684,1.008,-0.06,-0.88,-1.58,-8.51,18.66,-24.54,0.972411,0.029023,-0.022736,0.230232,0.0,0.0,0.0,0,0
2026-06-08 19:13:31.040,232777,L_Ankle,0.0487,0.0105,0.9784,-0.71,-0.38,-0.84,0.0,0.0,0.0,0.961943,0.026399,-0.034059,0.269784,0.0,0.0,0.0,0,0
2026-06-08 19:13:31.041,232601,R_Shank,0.034,-0.7136,1.0196,-0.06,-0.88,-1.59,-8.52,18.34,-23.03,0.972411,0.029023,-0.022736,0.230232,0.0,0.0,0.0,0,0
2026-06-08 19:13:31.043,232787,L_Ankle,0.0526,0.0105,0.9918,-0.71,-0.39,-0.84,-24.69,18.33,-50.1,0.961943,0.026399,-0.034059,0.269784,0.0,0.0,0.0,0,0
2026-06-08 19:13:31.044,232611,R_Shank,0.0335,-1.6136,1.0167,-0.04,-0.87,-1.58,-8.52,19.32,-25.14,0.972411,0.028993,-0.022736,0.230232,0.0,0.0,0.0,0,0
2026-06-08 19:13:31.046,232797,L_Ankle,0.0447,0.009,0.9822,-0.7,-0.4,-0.84,-25.19,18.52,-48.58,0.961943,0.026399,-0.034028,0.269784,0.0,0.0,0.0,0,0
2026-06-08 19:13:31.047,232621,R_Shank,0.0345,-2.9024,1.0095,-0.06,-0.88,-1.58,-9.39,19.52,-22.86,0.972411,0.029023,-0.022736,0.230232,0.0,0.0,0.0,0,0
2026-06-08 19:13:31.049,232778,L_Hip,0.1058,-0.0823,0.9962,0.38,-0.11,0.82,-13.54,42.42,-60.98,0.997284,-0.030183,-0.066713,-0.003906,0.0,0.0,0.0,0,0
2026-06-08 19:13:31.050,232594,R_Ankle,0.0258,-0.0121,1.0091,0.89,-1.85,-0.25,-2.45,27.77,-30.65,0.988128,0.045747,-0.084384,0.119907,0.0,0.0,0.0,0,0
2026-06-08 19:13:31.052,232788,L_Hip,0.1122,-0.0685,0.9962,0.38,-0.12,0.83,-13.55,43.38,-59.53,0.997284,-0.030183,-0.066683,-0.003906,0.0,0.0,0.0,0,0
2026-06-08 19:13:31.054,232604,R_Ankle,0.0243,-0.0151,1.012,0.9,-1.87,-0.26,-2.28,28.25,-31.12,0.988128,0.045747,-0.084384,0.119907,0.0,0.0,0.0,0,0
2026-06-08 19:13:31.055,232798,L_Hip,0.1195,-0.0857,0.9895,0.38,-0.11,0.82,0.0,0.0,0.0,0.997284,-0.030183,-0.066713,-0.003906,0.0,0.0,0.0,0,0
2026-06-08 19:13:31.057,232614,R_Ankle,0.0336,-0.0151,1.0067,0.9,-1.87,-0.25,0.0,0.0,0.0,0.988128,0.045747,-0.084353,0.119907,0.0,0.0,0.0,0,0
2026-06-08 19:13:31.058,232808,L_Hip,0.1171,-0.0749,0.9992,0.36,-0.11,0.8,-13.89,41.76,-60.68,0.997284,-0.030183,-0.066713,-0.003906,0.0,0.0,0.0,0,0
2026-06-08 19:13:31.060,232624,R_Ankle,0.0297,-0.0215,0.9976,0.89,-1.87,-0.25,-3.29,28.56,-30.83,0.988128,0.045778,-0.084353,0.119907,0.0,0.0,0.0,0,0
2026-06-08 19:13:31.062,232800,L_Hip,0.1117,-0.0833,0.9817,0.38,-0.11,0.82,-13.23,42.09,-59.82,0.997284,-0.030152,-0.066713,-0.003906,0.0,0.0,0.0,0,0
2026-06-08 19:13:31.063,232659,R_Shank,0.0355,3.1396,1.0018,-0.07,-0.87,-1.57,-10.19,18.69,-25.12,0.972411,0.029023,-0.022706,0.230232,0.0,0.0,0.0,0,0
2026-06-08 19:13:31.065,232810,L_Hip,0.1156,-0.0735,0.9919,0.37,-0.12,0.8,-13.93,41.43,-58.94,0.997284,-0.030152,-0.066713,-0.003906,0.0,0.0,0.0,0,0
2026-06-08 19:13:31.066,232669,R_Shank,0.0326,-3.1552,1.0066,-0.06,-0.87,-1.58,-9.35,18.84,-25.28,0.972411,0.029023,-0.022706,0.230232,0.0,0.0,0.0,0,0
2026-06-08 19:13:31.067,232820,L_Hip,0.1141,-0.0818,0.9832,0.38,-0.12,0.8,0.0,0.0,0.0,0.997284,-0.030152,-0.066713,-0.003906,0.0,0.0,0.0,0,0
2026-06-08 19:13:31.069,232679,R_Shank,0.0419,-2.2548,1.0109,-0.07,-0.87,-1.59,-10.54,18.38,-23.31,0.972411,0.029023,-0.022706,0.230232,0.0,0.0,0.0,0,0
2026-06-08 19:13:31.071,232830,L_Hip,0.1122,-0.0749,1.0021,0.37,-0.11,0.82,-13.38,42.26,-60.84,0.997284,-0.030152,-0.066713,-0.003906,0.0,0.0,0.0,0,0
2026-06-08 19:13:31.072,232689,R_Shank,0.0301,1.4688,1.0176,-0.06,-0.87,-1.58,0.0,0.0,0.0,0.972411,0.029023,-0.022706,0.230232,0.0,0.0,0.0,0,0
2026-06-08 19:13:31.074,232812,L_Ankle,0.0472,0.0129,0.9938,-0.7,-0.38,-0.83,-25.75,19.41,-49.77,0.961943,0.026399,-0.034028,0.269784,0.0,0.0,0.0,0,0
2026-06-08 19:13:31.075,232661,R_Ankle,0.0248,-0.0205,1.0053,0.9,-1.87,-0.25,-1.26,26.99,-30.79,0.988128,0.045778,-0.084353,0.119907,0.0,0.0,0.0,0,0
2026-06-08 19:13:31.076,232822,L_Ankle,0.0467,0.0158,0.9818,-0.7,-0.4,-0.84,0.0,0.0,0.0,0.961943,0.026399,-0.034028,0.269784,0.0,0.0,0.0,0,0
2026-06-08 19:13:31.078,232671,R_Ankle,0.0282,-0.0185,1.0058,0.89,-1.85,-0.24,-3.11,29.03,-30.37,0.988128,0.045778,-0.084353,0.119907,0.0,0.0,0.0,0,0
2026-06-08 19:13:31.079,232832,L_Ankle,0.0526,-0.0007,0.9875,-0.7,-0.4,-0.85,-27.52,19.08,-51.51,0.961943,0.026399,-0.034059,0.269814,0.0,0.0,0.0,0,0
2026-06-08 19:13:31.081,232681,R_Ankle,0.0228,-0.0176,1.0,0.9,-1.87,-0.26,0.0,0.0,0.0,0.988128,0.045747,-0.084353,0.119907,0.0,0.0,0.0,0,0
2026-06-08 19:13:31.082,232842,L_Ankle,0.0585,0.0065,0.9866,-0.7,-0.4,-0.85,-24.52,18.85,-50.26,0.961913,0.026399,-0.034089,0.269814,0.0,0.0,0.0,0,0
2026-06-08 19:13:31.084,232691,R_Ankle,0.0292,-0.021,0.9943,0.9,-1.87,-0.25,-2.1,27.77,-30.34,0.988128,0.045778,-0.084353,0.119938,0.0,0.0,0.0,0,0
2026-06-08 19:13:31.086,232664,R_Hip,-0.0204,-0.0018,0.9953,0.17,-1.2,1.5,-16.12,24.14,-28.53,0.990326,0.007019,-0.01178,-0.138005,0.0,0.0,0.0,0,0
2026-06-08 19:13:31.089,232830,L_Shank,0.0375,-0.0087,0.9902,1.74,-1.09,-0.09,6.99,27.24,-37.59,0.997711,-0.000458,-0.046724,0.048402,0.0,0.0,0.0,0,0
2026-06-08 19:13:31.089,232674,R_Hip,-0.0204,0.001,1.0025,0.18,-1.2,1.51,-15.21,24.68,-26.65,0.990326,0.007019,-0.01178,-0.138005,0.0,0.0,0.0,0,0
2026-06-08 19:13:31.091,232840,L_Shank,0.0536,-0.0072,0.9849,1.74,-1.1,-0.09,5.76,27.07,-37.11,0.997711,-0.000488,-0.046724,0.048402,0.0,0.0,0.0,0,0
2026-06-08 19:13:31.092,232684,R_Hip,-0.015,-0.0018,0.9991,0.18,-1.22,1.51,-15.76,24.13,-26.13,0.990326,0.007019,-0.01178,-0.138035,0.0,0.0,0.0,0,0
2026-06-08 19:13:31.094,232850,L_Shank,0.0511,-0.0048,0.9873,1.72,-1.09,-0.08,5.58,26.54,-36.01,0.997711,-0.000458,-0.046724,0.048402,0.0,0.0,0.0,0,0
2026-06-08 19:13:31.095,232694,R_Hip,-0.0312,-0.0106,1.0039,0.19,-1.22,1.51,0.0,0.0,0.0,0.990326,0.006989,-0.01178,-0.138035,0.0,0.0,0.0,0,0
2026-06-08 19:13:31.097,232860,L_Shank,0.0521,-0.0126,0.9878,1.74,-1.11,-0.09,0.0,0.0,0.0,0.997711,-0.000458,-0.046693,0.048402,0.0,0.0,0.0,0,0
2026-06-08 19:13:31.098,232681,R_Shank,0.034,-1.4844,1.0152,-0.08,-0.87,-1.6,-9.22,20.0,-24.22,0.972411,0.029023,-0.022706,0.230232,0.0,0.0,0.0,0,0
2026-06-08 19:13:31.100,232835,L_Ankle,0.0531,0.0046,0.9981,-0.71,-0.41,-0.85,-25.76,19.76,-50.45,0.961913,0.026368,-0.034059,0.269814,0.0,0.0,0.0,0,0
2026-06-08 19:13:31.101,232691,R_Shank,0.0286,-3.1552,1.0052,-0.06,-0.87,-1.58,-8.67,17.84,-24.39,0.972411,0.028993,-0.022706,0.230232,0.0,0.0,0.0,0,0
2026-06-08 19:13:31.103,232845,L_Ankle,0.0418,0.0056,0.9846,-0.7,-0.4,-0.83,-24.15,17.08,-50.6,0.961943,0.026368,-0.034028,0.269814,0.0,0.0,0.0,0,0
2026-06-08 19:13:31.105,232701,R_Shank,0.0316,-1.4844,1.0047,-0.06,-0.9,-1.58,0.0,0.0,0.0,0.972411,0.028993,-0.022706,0.230232,0.0,0.0,0.0,0,0
2026-06-08 19:13:31.106,232855,L_Ankle,0.058,0.008,1.0048,-0.7,-0.39,-0.84,0.0,0.0,0.0,0.961943,0.026368,-0.033998,0.269814,0.0,0.0,0.0,0,0
2026-06-08 19:13:31.108,232711,R_Shank,0.036,-2.514,1.0167,-0.04,-0.89,-1.58,-8.2,19.32,-23.93,0.972411,0.029023,-0.022706,0.230232,0.0,0.0,0.0,0,0
2026-06-08 19:13:31.110,232865,L_Ankle,0.0531,0.0085,0.9904,-0.7,-0.38,-0.86,-24.69,18.33,-50.44,0.961943,0.026368,-0.033998,0.269814,0.0,0.0,0.0,0,0
2026-06-08 19:13:31.111,232684,R_Ankle,0.0273,-0.0136,1.0038,0.9,-1.86,-0.25,-4.14,28.39,-30.37,0.988128,0.045747,-0.084353,0.119907,0.0,0.0,0.0,0,0
2026-06-08 19:13:31.113,232845,L_Hip,0.1156,-0.0749,0.9967,0.37,-0.11,0.81,-13.39,41.93,-60.26,0.997284,-0.030183,-0.066744,-0.003906,0.0,0.0,0.0,0,0
2026-06-08 19:13:31.114,232694,R_Ankle,0.0228,-0.0141,1.0067,0.9,-1.87,-0.25,-2.78,28.72,-30.36,0.988128,0.045747,-0.084384,0.119938,0.0,0.0,0.0,0,0
2026-06-08 19:13:31.116,232855,L_Hip,0.1156,-0.0843,0.9861,0.38,-0.12,0.8,-12.71,41.95,-60.56,0.997284,-0.030183,-0.066713,-0.003906,0.0,0.0,0.0,0,0
2026-06-08 19:13:31.117,232704,R_Ankle,0.0331,-0.0161,1.0153,0.89,-1.86,-0.26,0.0,0.0,0.0,0.988128,0.045747,-0.084353,0.119907,0.0,0.0,0.0,0,0
2026-06-08 19:13:31.119,232865,L_Hip,0.1063,-0.0848,0.9856,0.38,-0.11,0.82,0.0,0.0,0.0,0.997284,-0.030183,-0.066744,-0.003906,0.0,0.0,0.0,0,0
2026-06-08 19:13:31.121,232714,R_Ankle,0.0277,-0.0166,1.0158,0.88,-1.87,-0.25,-3.12,28.4,-30.36,0.988128,0.045747,-0.084353,0.119907,0.0,0.0,0.0,0,0
2026-06-08 19:13:31.122,232875,L_Hip,0.1166,-0.0779,0.9943,0.38,-0.12,0.82,-13.41,41.29,-60.25,0.997284,-0.030152,-0.066713,-0.003906,0.0,0.0,0.0,0,0
2026-06-08 19:13:31.124,232689,R_Hip,-0.0174,-0.0067,1.0083,0.19,-1.2,1.53,-16.67,25.41,-26.65,0.990326,0.006958,-0.01178,-0.138035,0.0,0.0,0.0,0,0
2026-06-08 19:13:31.125,232855,L_Shank,0.0472,-0.0067,1.0094,1.73,-1.1,-0.07,5.41,27.07,-37.11,0.997711,-0.000458,-0.046693,0.048402,0.0,0.0,0.0,0,0
2026-06-08 19:13:31.127,232699,R_Hip,-0.0238,-0.0018,0.9881,0.18,-1.22,1.51,-17.22,24.14,-27.85,0.990326,0.006989,-0.01178,-0.138035,0.0,0.0,0.0,0,0
2026-06-08 19:13:31.128,232865,L_Shank,0.057,-0.0043,0.9825,1.72,-1.11,-0.06,5.93,27.56,-36.03,0.997711,-0.000458,-0.046724,0.048402,0.0,0.0,0.0,0,0
2026-06-08 19:13:31.130,232709,R_Hip,-0.0268,0.0093,1.002,0.19,-1.2,1.52,0.0,0.0,0.0,0.990326,0.006928,-0.01178,-0.138035,0.0,0.0,0.0,0,0
2026-06-08 19:13:31.131,232875,L_Shank,0.0507,-0.0102,0.9993,1.74,-1.09,-0.07,6.27,27.9,-35.73,0.997711,-0.000427,-0.046693,0.048372,0.0,0.0,0.0,0,0
2026-06-08 19:13:31.134,232719,R_Hip,-0.0273,-0.0028,0.9962,0.18,-1.21,1.51,-16.3,24.32,-26.99,0.990326,0.006958,-0.01178,-0.138035,0.0,0.0,0.0,0,0
2026-06-08 19:13:31.135,232885,L_Shank,0.0555,-0.0092,0.9911,1.74,-1.09,-0.08,0.0,0.0,0.0,0.997711,-0.000427,-0.046693,0.048372,0.0,0.0,0.0,0,0
2026-06-08 19:13:31.137,232726,R_Shank,0.0326,3.01,1.0176,-0.06,-0.87,-1.59,-9.88,18.7,-23.02,0.972411,0.029023,-0.022736,0.230232,0.0,0.0,0.0,0,0
2026-06-08 19:13:31.139,232880,L_Shank,0.0492,-0.0028,0.9854,1.73,-1.1,-0.08,4.88,26.55,-36.63,0.997711,-0.000427,-0.046693,0.048372,0.0,0.0,0.0,0,0
2026-06-08 19:13:31.140,232736,R_Shank,0.0375,2.3688,1.0191,-0.06,-0.88,-1.58,-9.36,18.85,-24.08,0.972411,0.029023,-0.022706,0.230232,0.0,0.0,0.0,0,0
2026-06-08 19:13:31.142,232890,L_Shank,0.0497,-0.0077,0.9734,1.73,-1.09,-0.08,6.28,27.22,-36.03,0.997711,-0.000397,-0.046693,0.048372,0.0,0.0,0.0,0,0
2026-06-08 19:13:31.143,232746,R_Shank,0.036,-0.8432,1.0104,-0.06,-0.88,-1.59,0.0,0.0,0.0,0.972411,0.029023,-0.022736,0.230232,0.0,0.0,0.0,0,0
2026-06-08 19:13:31.145,232900,L_Shank,0.0472,-0.0116,0.9858,1.74,-1.1,-0.08,5.78,27.42,-38.36,0.997711,-0.000397,-0.046693,0.048372,0.0,0.0,0.0,0,0
2026-06-08 19:13:31.146,232756,R_Shank,0.0291,2.3688,0.9951,-0.07,-0.88,-1.57,-9.02,18.18,-23.78,0.972411,0.029023,-0.022736,0.230232,0.0,0.0,0.0,0,0
2026-06-08 19:13:31.148,232910,L_Shank,0.0511,-0.016,0.9974,1.73,-1.11,-0.07,6.29,26.9,-37.58,0.997711,-0.000397,-0.046724,0.048372,0.0,0.0,0.0,0,0
2026-06-08 19:13:31.150,232739,R_Hip,-0.0204,0.0045,1.0035,0.19,-1.2,1.52,-15.94,23.59,-28.01,0.990326,0.006958,-0.01175,-0.138035,0.0,0.0,0.0,0,0
2026-06-08 19:13:31.152,232890,L_Hip,0.1097,-0.0784,0.9851,0.38,-0.1,0.81,-12.55,42.11,-60.12,0.997284,-0.030183,-0.066744,-0.003906,0.0,0.0,0.0,0,0
2026-06-08 19:13:31.153,232749,R_Hip,-0.0253,0.0069,1.0136,0.2,-1.21,1.53,-16.12,24.5,-27.5,0.990326,0.006928,-0.01175,-0.138035,0.0,0.0,0.0,0,0
2026-06-08 19:13:31.155,232900,L_Hip,0.1136,-0.0631,0.9866,0.36,-0.1,0.8,-14.08,41.27,-60.53,0.997284,-0.030152,-0.066744,-0.003906,0.0,0.0,0.0,0,0
2026-06-08 19:13:31.156,232759,R_Hip,-0.0258,0.003,1.0121,0.2,-1.21,1.52,-15.58,25.78,-28.02,0.990326,0.006928,-0.01178,-0.138035,0.0,0.0,0.0,0,0
2026-06-08 19:13:31.157,232910,L_Hip,0.1068,-0.0852,0.9832,0.37,-0.11,0.8,0.0,0.0,0.0,0.997284,-0.030152,-0.066713,-0.003876,0.0,0.0,0.0,0,0
2026-06-08 19:13:31.158,232769,R_Hip,-0.0228,0.0098,1.0083,0.18,-1.19,1.52,0.0,0.0,0.0,0.990326,0.006958,-0.01175,-0.138005,0.0,0.0,0.0,0,0
2026-06-08 19:13:31.160,232920,L_Hip,0.1053,-0.0828,0.9909,0.37,-0.12,0.83,-14.06,41.92,-60.54,0.997284,-0.030152,-0.066744,-0.003876,0.0,0.0,0.0,0,0
2026-06-08 19:13:31.162,232752,R_Ankle,0.0307,-0.0176,1.0096,0.89,-1.87,-0.26,-1.58,28.88,-30.2,0.988128,0.045747,-0.084353,0.119907,0.0,0.0,0.0,0,0
2026-06-08 19:13:31.164,232902,L_Ankle,0.0668,0.007,0.9846,-0.71,-0.41,-0.84,-24.52,17.43,-51.29,0.961943,0.026368,-0.033967,0.269814,0.0,0.0,0.0,0,0
2026-06-08 19:13:31.165,232762,R_Ankle,0.0263,-0.0161,1.0101,0.9,-1.84,-0.26,-3.45,28.71,-30.06,0.988128,0.045778,-0.084353,0.119907,0.0,0.0,0.0,0,0
2026-06-08 19:13:31.167,232912,L_Ankle,0.0506,0.007,0.9928,-0.71,-0.42,-0.85,-26.07,18.71,-48.76,0.961943,0.026368,-0.033967,0.269814,0.0,0.0,0.0,0,0
2026-06-08 19:13:31.168,232772,R_Ankle,0.0273,-0.0086,1.0,0.9,-1.87,-0.25,0.0,0.0,0.0,0.988128,0.045747,-0.084323,0.119907,0.0,0.0,0.0,0,0
2026-06-08 19:13:31.170,232922,L_Ankle,0.0541,0.0085,0.9818,-0.7,-0.4,-0.84,0.0,0.0,0.0,0.961943,0.026368,-0.033937,0.269814,0.0,0.0,0.0,0,0
2026-06-08 19:13:31.171,232782,R_Ankle,0.0214,-0.0146,1.0096,0.88,-1.86,-0.25,-3.14,27.14,-31.27,0.988128,0.045778,-0.084353,0.119907,0.0,0.0,0.0,0,0
2026-06-08 19:13:31.173,232932,L_Ankle,0.0599,0.0129,0.9918,-0.7,-0.41,-0.84,-26.09,18.7,-50.12,0.961943,0.026368,-0.033937,0.269814,0.0,0.0,0.0,0,0
2026-06-08 19:13:31.175,232772,R_Shank,0.0335,3.2692,1.0152,-0.06,-0.89,-1.58,-9.17,17.36,-23.94,0.972411,0.029023,-0.022736,0.230232,0.0,0.0,0.0,0,0
2026-06-08 19:13:31.176,232912,L_Hip,0.1122,-0.0882,0.9866,0.37,-0.12,0.82,-13.05,42.26,-60.26,0.997284,-0.030152,-0.066744,-0.003876,0.0,0.0,0.0,0,0
2026-06-08 19:13:31.178,232782,R_Shank,0.0399,2.4984,1.0133,-0.06,-0.88,-1.59,-8.01,18.16,-23.79,0.972411,0.029023,-0.022736,0.230232,0.0,0.0,0.0,0,0
2026-06-08 19:13:31.179,232922,L_Hip,0.1176,-0.0735,0.989,0.37,-0.13,0.82,-14.08,42.24,-59.08,0.997284,-0.030152,-0.066774,-0.003876,0.0,0.0,0.0,0,0
2026-06-08 19:13:31.181,232792,R_Shank,0.0296,-1.7432,1.0095,-0.06,-0.88,-1.58,0.0,0.0,0.0,0.972411,0.029023,-0.022767,0.230232,0.0,0.0,0.0,0,0
2026-06-08 19:13:31.182,232932,L_Hip,0.1117,-0.0789,0.9977,0.38,-0.11,0.83,-13.39,41.93,-60.26,0.997284,-0.030152,-0.066774,-0.003876,0.0,0.0,0.0,0,0
2026-06-08 19:13:31.184,232802,R_Shank,0.0267,-0.9728,1.0095,-0.08,-0.89,-1.58,-10.55,19.36,-24.21,0.972411,0.029023,-0.022736,0.230232,0.0,0.0,0.0,0,0
2026-06-08 19:13:31.185,232942,L_Hip,0.1161,-0.073,1.0001,0.38,-0.09,0.81,0.0,0.0,0.0,0.997284,-0.030152,-0.066774,-0.003906,0.0,0.0,0.0,0,0
2026-06-08 19:13:31.186,232774,R_Ankle,0.0263,-0.0245,1.0077,0.9,-1.87,-0.26,-1.07,28.09,-30.03,0.988128,0.045778,-0.084353,0.119907,0.0,0.0,0.0,0,0
2026-06-08 19:13:31.189,232784,R_Ankle,0.0228,-0.0255,1.0153,0.9,-1.87,-0.25,-2.27,29.21,-31.13,0.988128,0.045747,-0.084323,0.119907,0.0,0.0,0.0,0,0
2026-06-08 19:13:31.191,232794,R_Ankle,0.0341,-0.0334,0.9938,0.89,-1.86,-0.25,0.0,0.0,0.0,0.988128,0.045717,-0.084323,0.119907,0.0,0.0,0.0,0,0
2026-06-08 19:13:31.194,232935,L_Hip,0.1136,-0.0764,0.9919,0.38,-0.1,0.81,-13.37,42.26,-61.13,0.997284,-0.030152,-0.066774,-0.003906,0.0,0.0,0.0,0,0
2026-06-08 19:13:31.194,232804,R_Ankle,0.0243,-0.019,1.0038,0.9,-1.87,-0.25,-2.45,27.45,-30.34,0.988128,0.045686,-0.084323,0.119907,0.0,0.0,0.0,0,0
2026-06-08 19:13:31.197,232945,L_Hip,0.1161,-0.0789,0.9822,0.38,-0.12,0.81,-13.39,42.57,-59.68,0.997284,-0.030152,-0.066744,-0.003906,0.0,0.0,0.0,0,0
2026-06-08 19:13:31.198,232789,R_Hip,-0.0184,0.003,0.9943,0.19,-1.21,1.51,-17.58,24.5,-27.16,0.990326,0.006958,-0.01175,-0.138005,0.0,0.0,0.0,0,0
2026-06-08 19:13:31.201,232955,L_Hip,0.1073,-0.0808,0.9827,0.38,-0.12,0.83,-13.05,42.26,-59.97,0.997284,-0.030152,-0.066774,-0.003906,0.0,0.0,0.0,0,0
2026-06-08 19:13:31.201,232799,R_Hip,-0.0189,-0.0003,0.9962,0.18,-1.2,1.51,-16.3,24.68,-25.96,0.990326,0.006989,-0.011719,-0.138005,0.0,0.0,0.0,0,0
2026-06-08 19:13:31.203,232965,L_Hip,0.1195,-0.0685,0.9982,0.36,-0.1,0.82,0.0,0.0,0.0,0.997284,-0.030152,-0.066744,-0.003906,0.0,0.0,0.0,0,0
2026-06-08 19:13:31.204,232809,R_Hip,-0.0199,-0.0013,1.0001,0.19,-1.2,1.51,0.0,0.0,0.0,0.990326,0.006958,-0.011719,-0.138035,0.0,0.0,0.0,0,0
2026-06-08 19:13:31.206,232946,L_Ankle,0.0555,0.008,0.9918,-0.7,-0.4,-0.85,-24.91,20.27,-51.29,0.961943,0.026368,-0.033906,0.269814,0.0,0.0,0.0,0,0
2026-06-08 19:13:31.207,232819,R_Hip,-0.0169,0.0059,0.9919,0.19,-1.21,1.52,-17.21,24.13,-25.45,0.990326,0.006958,-0.01175,-0.138035,0.0,0.0,0.0,0,0
2026-06-08 19:13:31.210,232956,L_Ankle,0.057,0.0085,0.9986,-0.7,-0.39,-0.84,-24.68,17.62,-50.1,0.961943,0.026368,-0.033906,0.269814,0.0,0.0,0.0,0,0
2026-06-08 19:13:31.211,232794,R_Shank,0.035,2.2392,1.0143,-0.06,-0.89,-1.58,-9.53,18.35,-23.93,0.972411,0.028993,-0.022736,0.230232,0.0,0.0,0.0,0,0
2026-06-08 19:13:31.213,232966,L_Ankle,0.0423,0.0109,0.9904,-0.7,-0.4,-0.83,0.0,0.0,0.0,0.961943,0.026368,-0.033906,0.269814,0.0,0.0,0.0,0,0
2026-06-08 19:13:31.214,232804,R_Shank,0.036,-0.8432,1.0061,-0.07,-0.88,-1.58,-8.52,18.67,-23.94,0.972411,0.029023,-0.022736,0.230232,0.0,0.0,0.0,0,0
2026-06-08 19:13:31.216,232976,L_Ankle,0.0487,0.0041,0.9827,-0.7,-0.41,-0.84,-25.05,19.04,-50.44,0.961943,0.026368,-0.033937,0.269814,0.0,0.0,0.0,0,0
2026-06-08 19:13:31.217,232814,R_Shank,0.036,-2.514,1.0071,-0.06,-0.89,-1.58,0.0,0.0,0.0,0.972411,0.029023,-0.022767,0.230232,0.0,0.0,0.0,0,0
2026-06-08 19:13:31.219,232824,R_Shank,0.0384,-3.1552,1.022,-0.06,-0.9,-1.58,-8.87,19.34,-23.62,0.972411,0.029023,-0.022797,0.230232,0.0,0.0,0.0,0,0
2026-06-08 19:13:31.221,232796,R_Ankle,0.0297,-0.021,0.9928,0.89,-1.87,-0.26,-3.13,27.77,-30.66,0.988128,0.045656,-0.084323,0.119907,0.0,0.0,0.0,0,0
2026-06-08 19:13:31.224,232806,R_Ankle,0.0199,-0.0205,1.0024,0.9,-1.86,-0.25,-2.43,29.03,-29.74,0.988128,0.045656,-0.084323,0.119907,0.0,0.0,0.0,0,0
2026-06-08 19:13:31.226,232816,R_Ankle,0.0263,-0.0141,0.9971,0.9,-1.87,-0.24,0.0,0.0,0.0,0.988128,0.045656,-0.084292,0.119907,0.0,0.0,0.0,0,0
2026-06-08 19:13:31.229,232970,L_Ankle,0.0511,0.0065,0.9866,-0.7,-0.4,-0.84,-26.28,19.95,-49.61,0.961943,0.026337,-0.033906,0.269814,0.0,0.0,0.0,0,0
2026-06-08 19:13:31.230,232826,R_Ankle,0.0307,-0.0156,1.0038,0.9,-1.87,-0.27,-2.94,28.23,-29.59,0.988128,0.045656,-0.084323,0.119907,0.0,0.0,0.0,0,0
2026-06-08 19:13:31.232,232980,L_Ankle,0.0531,0.0026,0.9995,-0.7,-0.41,-0.84,-25.05,19.04,-50.1,0.961943,0.026337,-0.033906,0.269814,0.0,0.0,0.0,0,0
2026-06-08 19:13:31.234,232990,L_Ankle,0.0487,0.0119,0.977,-0.69,-0.39,-0.83,0.0,0.0,0.0,0.961943,0.026307,-0.033906,0.269814,0.0,0.0,0.0,0,0
2026-06-08 19:13:31.236,232840,R_Hip,-0.0312,0.0118,0.99,0.17,-1.2,1.5,-14.66,24.49,-25.1,0.990326,0.006928,-0.01175,-0.138005,0.0,0.0,0.0,0,0
2026-06-08 19:13:31.237,233000,L_Ankle,0.055,0.0158,0.9976,-0.68,-0.4,-0.83,-25.04,18.69,-49.76,0.961943,0.026337,-0.033906,0.269814,0.0,0.0,0.0,0,0
2026-06-08 19:13:31.239,232850,R_Hip,-0.0204,0.004,0.9948,0.19,-1.2,1.51,-16.49,25.23,-26.48,0.990326,0.006897,-0.011719,-0.138005,0.0,0.0,0.0,0,0
2026-06-08 19:13:31.240,232980,L_Shank,0.0497,-0.0151,0.9873,1.74,-1.1,-0.09,7.16,26.39,-37.11,0.997711,-0.000397,-0.046693,0.048372,0.0,0.0,0.0,0,0
2026-06-08 19:13:31.243,232860,R_Hip,-0.0228,-0.0013,1.0087,0.19,-1.2,1.51,-17.58,23.77,-26.48,0.990326,0.006928,-0.011689,-0.138035,0.0,0.0,0.0,0,0
2026-06-08 19:13:31.244,232990,L_Shank,0.0497,-0.0097,0.9806,1.72,-1.11,-0.07,0.0,0.0,0.0,0.997711,-0.000397,-0.046724,0.048372,0.0,0.0,0.0,0,0
2026-06-08 19:13:31.246,232870,R_Hip,-0.0125,-0.0008,0.9958,0.16,-1.2,1.52,0.0,0.0,0.0,0.990326,0.006897,-0.011689,-0.138035,0.0,0.0,0.0,0,0
2026-06-08 19:13:31.247,233000,L_Shank,0.0477,-0.0048,0.9801,1.74,-1.1,-0.06,5.06,27.07,-37.1,0.997711,-0.000397,-0.046693,0.048372,0.0,0.0,0.0,0,0
2026-06-08 19:13:31.249,232841,R_Ankle,0.0263,-0.0166,0.9871,0.89,-1.87,-0.25,-2.28,27.94,-31.43,0.988128,0.045656,-0.084323,0.119907,0.0,0.0,0.0,0,0
2026-06-08 19:13:31.250,233010,L_Shank,0.0472,-0.0063,1.0017,1.74,-1.1,-0.08,4.71,28.08,-36.49,0.997711,-0.000397,-0.046693,0.048372,0.0,0.0,0.0,0,0
2026-06-08 19:13:31.252,232851,R_Ankle,0.0258,-0.0275,1.0,0.89,-1.87,-0.25,-2.79,29.06,-32.21,0.988128,0.045656,-0.084323,0.119907,0.0,0.0,0.0,0,0
2026-06-08 19:13:31.253,232992,L_Ankle,0.0492,0.0134,0.9803,-0.7,-0.4,-0.85,-25.89,18.17,-49.27,0.961943,0.026307,-0.033967,0.269814,0.0,0.0,0.0,0,0
2026-06-08 19:13:31.255,232861,R_Ankle,0.0238,-0.0096,1.0034,0.89,-1.87,-0.27,0.0,0.0,0.0,0.988128,0.045656,-0.084323,0.119907,0.0,0.0,0.0,0,0
2026-06-08 19:13:31.256,233002,L_Ankle,0.0565,0.0173,0.9875,-0.7,-0.38,-0.84,-25.22,17.8,-50.96,0.961943,0.026307,-0.033967,0.269814,0.0,0.0,0.0,0,0
2026-06-08 19:13:31.258,232871,R_Ankle,0.0219,-0.0195,1.0096,0.89,-1.87,-0.25,-2.77,28.71,-29.74,0.988128,0.045656,-0.084323,0.119907,0.0,0.0,0.0,0,0
2026-06-08 19:13:31.260,233012,L_Ankle,0.0492,0.0197,0.9938,-0.72,-0.38,-0.84,-23.8,18.49,-49.23,0.961943,0.026307,-0.033998,0.269814,0.0,0.0,0.0,0,0
2026-06-08 19:13:31.262,232862,R_Shank,0.038,-1.3548,1.0028,-0.06,-0.89,-1.58,-9.69,18.19,-24.08,0.972411,0.028993,-0.022828,0.230232,0.0,0.0,0.0,0,0
2026-06-08 19:13:31.262,233022,L_Ankle,0.0492,0.0105,0.9822,-0.71,-0.41,-0.83,0.0,0.0,0.0,0.961943,0.026276,-0.033998,0.269814,0.0,0.0,0.0,0,0
2026-06-08 19:13:31.264,232872,R_Shank,0.0301,-2.2548,1.0143,-0.06,-0.89,-1.58,0.0,0.0,0.0,0.972411,0.029023,-0.022828,0.230232,0.0,0.0,0.0,0,0
2026-06-08 19:13:31.265,233002,L_Hip,0.1117,-0.0789,0.9774,0.4,-0.12,0.8,-14.22,42.4,-60.39,0.997284,-0.030152,-0.066744,-0.003876,0.0,0.0,0.0,0,0
2026-06-08 19:13:31.268,232882,R_Shank,0.035,1.4688,1.0066,-0.06,-0.88,-1.58,-9.88,19.35,-24.22,0.972411,0.029023,-0.022828,0.230232,0.0,0.0,0.0,0,0
2026-06-08 19:13:31.269,233012,L_Hip,0.1249,-0.0754,0.9856,0.38,-0.11,0.81,-14.06,41.92,-60.83,0.997284,-0.030152,-0.066744,-0.003876,0.0,0.0,0.0,0,0
2026-06-08 19:13:31.271,232892,R_Shank,0.0399,2.3688,0.9994,-0.05,-0.87,-1.58,-10.04,18.86,-24.07,0.972411,0.029023,-0.022797,0.230232,0.0,0.0,0.0,0,0
2026-06-08 19:13:31.272,233022,L_Hip,0.1092,-0.071,0.9861,0.38,-0.1,0.82,-14.22,41.44,-61.55,0.997284,-0.030122,-0.066744,-0.003906,0.0,0.0,0.0,0,0
2026-06-08 19:13:31.274,232864,R_Hip,-0.0278,-0.0072,1.0107,0.19,-1.22,1.51,-15.39,24.86,-27.16,0.990326,0.006897,-0.011719,-0.138035,0.0,0.0,0.0,0,0
2026-06-08 19:13:31.275,233032,L_Hip,0.1107,-0.0784,1.0059,0.38,-0.12,0.81,-13.56,42.09,-60.4,0.997284,-0.030152,-0.066744,-0.003906,0.0,0.0,0.0,0,0
2026-06-08 19:13:31.277,232874,R_Hip,-0.0184,0.002,0.9953,0.19,-1.22,1.52,-14.85,24.68,-26.65,0.990326,0.006897,-0.01175,-0.138035,0.0,0.0,0.0,0,0
2026-06-08 19:13:31.278,233005,L_Shank,0.0453,-0.0092,0.9815,1.73,-1.11,-0.08,6.28,27.23,-36.96,0.997711,-0.000397,-0.046693,0.048372,0.0,0.0,0.0,0,0
2026-06-08 19:13:31.280,232884,R_Hip,-0.0263,0.0113,1.0006,0.19,-1.22,1.52,0.0,0.0,0.0,0.990326,0.006867,-0.01175,-0.138035,0.0,0.0,0.0,0,0
2026-06-08 19:13:31.281,233015,L_Shank,0.0467,-0.0077,0.9801,1.74,-1.1,-0.08,0.0,0.0,0.0,0.997711,-0.000427,-0.046693,0.048341,0.0,0.0,0.0,0,0
2026-06-08 19:13:31.283,232894,R_Hip,-0.0209,0.004,1.0213,0.2,-1.21,1.51,-16.3,25.05,-26.99,0.990326,0.006867,-0.01175,-0.138035,0.0,0.0,0.0,0,0
2026-06-08 19:13:31.284,233025,L_Shank,0.0624,-0.0048,0.9758,1.73,-1.09,-0.08,5.77,27.42,-38.05,0.997711,-0.000427,-0.046693,0.048341,0.0,0.0,0.0,0,0
2026-06-08 19:13:31.286,232886,R_Ankle,0.0385,-0.026,1.0115,0.9,-1.85,-0.26,-2.79,29.05,-31.91,0.988128,0.045656,-0.084292,0.119907,0.0,0.0,0.0,0,0
2026-06-08 19:13:31.287,233035,L_Shank,0.0663,-0.0126,0.9911,1.74,-1.09,-0.09,6.46,26.38,-36.8,0.997711,-0.000427,-0.046724,0.048341,0.0,0.0,0.0,0,0
2026-06-08 19:13:31.289,232896,R_Ankle,0.0214,-0.0156,0.999,0.9,-1.88,-0.25,-2.27,28.57,-30.51,0.988128,0.045656,-0.084292,0.119907,0.0,0.0,0.0,0,0
2026-06-08 19:13:31.291,232906,R_Ankle,0.0302,-0.0294,0.999,0.9,-1.87,-0.25,0.0,0.0,0.0,0.988128,0.045656,-0.084292,0.119907,0.0,0.0,0.0,0,0
2026-06-08 19:13:31.293,232916,R_Ankle,0.0179,-0.0205,1.0067,0.89,-1.86,-0.25,-2.12,27.15,-31.57,0.988128,0.045656,-0.084292,0.119907,0.0,0.0,0.0,0,0
2026-06-08 19:13:31.295,233037,L_Ankle,0.0516,0.008,0.9808,-0.69,-0.38,-0.86,-25.58,18.87,-50.96,0.961943,0.026307,-0.034028,0.269814,0.0,0.0,0.0,0,0
2026-06-08 19:13:31.298,233047,L_Ankle,0.0477,0.0173,0.9966,-0.7,-0.4,-0.83,-26.61,18.18,-50.3,0.961943,0.026307,-0.033998,0.269814,0.0,0.0,0.0,0,0
2026-06-08 19:13:31.300,233057,L_Ankle,0.0472,0.009,0.9894,-0.7,-0.39,-0.86,-25.95,19.58,-50.97,0.961943,0.026276,-0.033998,0.269814,0.0,0.0,0.0,0,0
2026-06-08 19:13:31.303,233067,L_Ankle,0.0506,0.0041,0.9899,-0.71,-0.38,-0.83,0.0,0.0,0.0,0.961943,0.026307,-0.033998,0.269814,0.0,0.0,0.0,0,0
2026-06-08 19:13:31.304,232906,R_Shank,0.0311,-1.4844,1.01,-0.06,-0.89,-1.58,-11.22,18.72,-23.91,0.972411,0.029023,-0.022797,0.230232,0.0,0.0,0.0,0,0
2026-06-08 19:13:31.307,232916,R_Shank,0.0291,-0.8432,0.9999,-0.06,-0.9,-1.58,0.0,0.0,0.0,0.972411,0.029023,-0.022797,0.230232,0.0,0.0,0.0,0,0
2026-06-08 19:13:31.307,233047,L_Hip,0.1087,-0.073,0.9875,0.38,-0.11,0.8,-13.21,42.42,-60.7,0.997284,-0.030152,-0.066713,-0.003876,0.0,0.0,0.0,0,0
2026-06-08 19:13:31.310,233057,L_Hip,0.1087,-0.0715,0.9817,0.38,-0.1,0.82,-13.06,41.94,-59.97,0.997284,-0.030152,-0.066744,-0.003876,0.0,0.0,0.0,0,0
2026-06-08 19:13:31.311,232926,R_Shank,0.036,-1.4844,0.9956,-0.06,-0.88,-1.58,-9.36,18.19,-23.78,0.972411,0.029023,-0.022797,0.230232,0.0,0.0,0.0,0,0
2026-06-08 19:13:31.314,233067,L_Hip,0.1102,-0.0774,0.9885,0.38,-0.11,0.83,-13.76,41.28,-59.38,0.997284,-0.030183,-0.066774,-0.003876,0.0,0.0,0.0,0,0
2026-06-08 19:13:31.314,232936,R_Shank,0.0399,0.0572,1.0032,-0.06,-0.88,-1.58,-11.05,19.21,-24.36,0.972411,0.028993,-0.022828,0.230232,0.0,0.0,0.0,0,0
2026-06-08 19:13:31.316,233077,L_Hip,0.1122,-0.0852,0.9948,0.37,-0.11,0.83,-13.22,41.78,-60.69,0.997284,-0.030183,-0.066774,-0.003876,0.0,0.0,0.0,0,0
2026-06-08 19:13:31.319,233055,L_Shank,0.0458,-0.0082,0.982,1.74,-1.1,-0.09,6.1,28.75,-36.2,0.997711,-0.000427,-0.046724,0.048341,0.0,0.0,0.0,0,0
2026-06-08 19:13:31.321,233065,L_Shank,0.0477,-0.0082,0.9858,1.74,-1.1,-0.07,0.0,0.0,0.0,0.997711,-0.000427,-0.046724,0.048341,0.0,0.0,0.0,0,0
2026-06-08 19:13:31.323,233075,L_Shank,0.0433,-0.0082,0.9868,1.73,-1.09,-0.06,5.94,27.91,-36.97,0.997711,-0.000458,-0.046693,0.048341,0.0,0.0,0.0,0,0
2026-06-08 19:13:31.325,232929,R_Shank,0.0281,-1.3548,1.0114,-0.05,-0.88,-1.59,-9.19,18.68,-24.23,0.972411,0.029023,-0.022797,0.230232,0.0,0.0,0.0,0,0
2026-06-08 19:13:31.326,233085,L_Shank,0.0482,-0.0151,0.9911,1.73,-1.1,-0.07,6.62,26.54,-36.02,0.997711,-0.000427,-0.046693,0.048341,0.0,0.0,0.0,0,0
2026-06-08 19:13:31.328,232939,R_Shank,0.0301,1.4688,0.997,-0.06,-0.88,-1.58,0.0,0.0,0.0,0.972411,0.028993,-0.022797,0.230232,0.0,0.0,0.0,0,0
2026-06-08 19:13:31.329,233070,L_Hip,0.1117,-0.0857,0.9929,0.37,-0.12,0.82,-13.9,42.4,-59.52,0.997284,-0.030183,-0.066774,-0.003876,0.0,0.0,0.0,0,0
2026-06-08 19:13:31.332,232949,R_Shank,0.0345,0.698,1.0128,-0.06,-0.87,-1.58,-9.03,18.19,-23.18,0.972411,0.029023,-0.022767,0.230232,0.0,0.0,0.0,0,0
2026-06-08 19:13:31.332,233080,L_Hip,0.1185,-0.0676,0.9996,0.38,-0.11,0.82,0.0,0.0,0.0,0.997284,-0.030183,-0.066744,-0.003876,0.0,0.0,0.0,0,0
2026-06-08 19:13:31.335,232959,R_Shank,0.0345,-0.584,1.0071,-0.06,-0.88,-1.58,-10.72,18.87,-23.76,0.972411,0.028993,-0.022767,0.230232,0.0,0.0,0.0,0,0
2026-06-08 19:13:31.335,233090,L_Hip,0.1092,-0.0818,0.9846,0.37,-0.12,0.82,-15.61,41.4,-59.2,0.997284,-0.030183,-0.066744,-0.003876,0.0,0.0,0.0,0,0
2026-06-08 19:13:31.338,233100,L_Hip,0.1161,-0.0813,0.9817,0.38,-0.11,0.82,-12.71,42.27,-60.56,0.997284,-0.030183,-0.066744,-0.003876,0.0,0.0,0.0,0,0
2026-06-08 19:13:31.338,232930,R_Ankle,0.0297,-0.0215,0.9866,0.89,-1.86,-0.25,-2.42,29.34,-29.13,0.988128,0.045656,-0.084262,0.119907,0.0,0.0,0.0,0,0
2026-06-08 19:13:31.341,233081,L_Shank,0.0472,-0.016,0.9825,1.72,-1.09,-0.09,6.46,27.4,-36.81,0.997711,-0.000458,-0.046693,0.048341,0.0,0.0,0.0,0,0
2026-06-08 19:13:31.342,232940,R_Ankle,0.0326,-0.0146,1.011,0.89,-1.86,-0.26,-2.62,26.97,-30.19,0.988128,0.045625,-0.084262,0.119907,0.0,0.0,0.0,0,0
2026-06-08 19:13:31.344,233091,L_Shank,0.0472,-0.0077,0.9854,1.73,-1.09,-0.09,0.0,0.0,0.0,0.997711,-0.000458,-0.046724,0.048341,0.0,0.0,0.0,0,0
2026-06-08 19:13:31.345,232931,R_Ankle,0.0282,-0.0185,0.9995,0.88,-1.87,-0.26,0.0,0.0,0.0,0.988128,0.045656,-0.084262,0.119877,0.0,0.0,0.0,0,0
2026-06-08 19:13:31.347,233101,L_Shank,0.0511,-0.0136,0.9916,1.73,-1.1,-0.09,4.89,26.89,-36.94,0.997711,-0.000458,-0.046724,0.048341,0.0,0.0,0.0,0,0
2026-06-08 19:13:31.348,232941,R_Ankle,0.0326,-0.0141,1.0034,0.9,-1.86,-0.26,-2.61,28.24,-30.2,0.988128,0.045656,-0.084262,0.119877,0.0,0.0,0.0,0,0
2026-06-08 19:13:31.351,233111,L_Shank,0.0536,-0.0092,0.9954,1.73,-1.09,-0.06,6.63,28.92,-36.05,0.997711,-0.000427,-0.046724,0.048311,0.0,0.0,0.0,0,0
2026-06-08 19:13:31.351,232939,R_Hip,-0.0238,0.0015,1.0049,0.19,-1.2,1.5,-15.58,24.32,-27.67,0.990326,0.006897,-0.01178,-0.138035,0.0,0.0,0.0,0,0
2026-06-08 19:13:31.354,233082,L_Ankle,0.0477,0.0105,0.9918,-0.69,-0.41,-0.83,-25.02,17.98,-49.77,0.961943,0.026276,-0.034028,0.269814,0.0,0.0,0.0,0,0
2026-06-08 19:13:31.354,232949,R_Hip,-0.0283,0.0001,0.9958,0.19,-1.21,1.49,-16.48,22.67,-26.81,0.990326,0.006867,-0.01178,-0.138035,0.0,0.0,0.0,0,0
2026-06-08 19:13:31.357,233092,L_Ankle,0.0462,0.0036,0.9928,-0.68,-0.41,-0.83,-24.87,17.44,-51.29,0.961943,0.026276,-0.033998,0.269814,0.0,0.0,0.0,0,0
2026-06-08 19:13:31.358,232959,R_Hip,-0.0263,-0.0013,1.0116,0.19,-1.2,1.51,-16.67,25.05,-26.99,0.990326,0.006867,-0.01178,-0.138035,0.0,0.0,0.0,0,0
2026-06-08 19:13:31.360,233102,L_Ankle,0.0575,0.009,0.9822,-0.69,-0.39,-0.85,-23.83,19.2,-50.25,0.961943,0.026307,-0.033998,0.269814,0.0,0.0,0.0,0,0
2026-06-08 19:13:31.360,232969,R_Hip,-0.0204,0.0069,1.0044,0.19,-1.21,1.51,0.0,0.0,0.0,0.990326,0.006867,-0.01175,-0.138035,0.0,0.0,0.0,0,0
2026-06-08 19:13:31.363,233112,L_Ankle,0.0501,0.0124,0.9962,-0.7,-0.41,-0.83,-26.26,18.89,-49.61,0.961943,0.026307,-0.034028,0.269814,0.0,0.0,0.0,0,0
2026-06-08 19:13:31.364,232954,R_Ankle,0.0268,-0.022,0.999,0.88,-1.86,-0.24,-2.8,27.14,-31.58,0.988128,0.045656,-0.084262,0.119877,0.0,0.0,0.0,0,0
2026-06-08 19:13:31.366,233092,L_Hip,0.1023,-0.0833,0.9803,0.38,-0.12,0.8,-13.06,41.94,-59.97,0.997284,-0.030183,-0.066774,-0.003876,0.0,0.0,0.0,0,0
2026-06-08 19:13:31.367,232964,R_Ankle,0.0346,-0.0185,1.0096,0.88,-1.86,-0.26,-1.77,26.82,-30.33,0.988128,0.045656,-0.084292,0.119877,0.0,0.0,0.0,0,0
2026-06-08 19:13:31.369,233102,L_Hip,0.1156,-0.0808,0.9933,0.38,-0.11,0.83,0.0,0.0,0.0,0.997284,-0.030152,-0.066805,-0.003876,0.0,0.0,0.0,0,0
2026-06-08 19:13:31.370,232974,R_Ankle,0.0297,-0.022,0.9981,0.89,-1.87,-0.25,0.0,0.0,0.0,0.988128,0.045656,-0.084292,0.119877,0.0,0.0,0.0,0,0
2026-06-08 19:13:31.372,233112,L_Hip,0.1146,-0.0739,0.9996,0.36,-0.1,0.83,-12.7,42.59,-60.85,0.997284,-0.030152,-0.066836,-0.003876,0.0,0.0,0.0,0,0
2026-06-08 19:13:31.373,232984,R_Ankle,0.0331,-0.026,0.999,0.91,-1.87,-0.25,-2.94,28.55,-29.28,0.988128,0.045656,-0.084323,0.119877,0.0,0.0,0.0,0,0
2026-06-08 19:13:31.376,233122,L_Hip,0.1141,-0.0798,0.9895,0.38,-0.11,0.82,-13.06,42.26,-59.39,0.997284,-0.030152,-0.066805,-0.003876,0.0,0.0,0.0,0,0
2026-06-08 19:13:31.377,232964,R_Hip,-0.0278,0.004,0.9962,0.18,-1.21,1.5,-16.12,24.86,-26.14,0.990326,0.006897,-0.01175,-0.138035,0.0,0.0,0.0,0,0
2026-06-08 19:13:31.379,233105,L_Shank,0.0394,-0.0058,0.9906,1.74,-1.09,-0.08,6.11,27.41,-37.12,0.997711,-0.000427,-0.046754,0.048341,0.0,0.0,0.0,0,0
2026-06-08 19:13:31.380,232974,R_Hip,-0.0327,0.0074,0.9856,0.2,-1.2,1.51,-16.31,25.42,-27.68,0.990326,0.006867,-0.01175,-0.138035,0.0,0.0,0.0,0,0
2026-06-08 19:13:31.382,233115,L_Shank,0.0448,-0.0082,0.9993,1.72,-1.09,-0.08,0.0,0.0,0.0,0.997711,-0.000427,-0.046754,0.048341,0.0,0.0,0.0,0,0
2026-06-08 19:13:31.383,232984,R_Hip,-0.0135,-0.0018,0.9967,0.19,-1.21,1.51,0.0,0.0,0.0,0.990326,0.006867,-0.011719,-0.138035,0.0,0.0,0.0,0,0
2026-06-08 19:13:31.386,233125,L_Shank,0.0614,-0.0121,0.9695,1.74,-1.1,-0.08,5.76,28.08,-36.5,0.997711,-0.000458,-0.046754,0.048341,0.0,0.0,0.0,0,0
2026-06-08 19:13:31.387,232994,R_Hip,-0.0342,0.0152,1.003,0.19,-1.22,1.53,-17.03,23.95,-26.31,0.990326,0.006867,-0.011719,-0.138066,0.0,0.0,0.0,0,0
2026-06-08 19:13:31.389,233135,L_Shank,0.0516,-0.0131,0.9916,1.74,-1.1,-0.08,5.07,27.07,-37.41,0.997711,-0.000458,-0.046724,0.048341,0.0,0.0,0.0,0,0
2026-06-08 19:13:31.391,232975,R_Shank,0.033,0.316,0.998,-0.06,-0.88,-1.58,-9.17,18.01,-24.84,0.972411,0.029023,-0.022767,0.230232,0.0,0.0,0.0,0,0
2026-06-08 19:13:31.393,233127,L_Ankle,0.0624,0.0119,1.0077,-0.71,-0.37,-0.84,-25.7,17.28,-48.76,0.961943,0.026307,-0.034028,0.269814,0.0,0.0,0.0,0,0
2026-06-08 19:13:31.393,232985,R_Shank,0.0281,-0.8432,1.0056,-0.06,-0.87,-1.58,0.0,0.0,0.0,0.972411,0.028993,-0.022767,0.230232,0.0,0.0,0.0,0,0
2026-06-08 19:13:31.396,233137,L_Ankle,0.0516,0.0119,0.9803,-0.7,-0.39,-0.85,0.0,0.0,0.0,0.961943,0.026337,-0.033998,0.269814,0.0,0.0,0.0,0,0
2026-06-08 19:13:31.396,232995,R_Shank,0.0296,-2.6436,1.0172,-0.07,-0.89,-1.58,-10.54,18.37,-23.92,0.972411,0.028993,-0.022767,0.230232,0.0,0.0,0.0,0,0
2026-06-08 19:13:31.399,233147,L_Ankle,0.0575,0.0051,0.9856,-0.71,-0.39,-0.85,-25.22,18.16,-50.96,0.961943,0.026337,-0.033998,0.269814,0.0,0.0,0.0,0,0
2026-06-08 19:13:31.400,233005,R_Shank,0.0291,3.2692,1.009,-0.06,-0.88,-1.59,-10.05,19.19,-23.76,0.972411,0.028993,-0.022767,0.230232,0.0,0.0,0.0,0,0
2026-06-08 19:13:31.402,233157,L_Ankle,0.0555,0.0168,1.0019,-0.71,-0.38,-0.83,-25.2,18.87,-49.26,0.961943,0.026307,-0.033998,0.269814,0.0,0.0,0.0,0,0
2026-06-08 19:13:31.403,232989,R_Hip,-0.0327,-0.0003,0.9991,0.19,-1.2,1.51,-15.21,25.41,-27.33,0.990326,0.006897,-0.011689,-0.138035,0.0,0.0,0.0,0,0
2026-06-08 19:13:31.406,233130,L_Shank,0.0536,-0.0077,1.0017,1.74,-1.08,-0.07,5.93,24.51,-36.61,0.997711,-0.000458,-0.046693,0.048341,0.0,0.0,0.0,0,0
2026-06-08 19:13:31.407,232999,R_Hip,-0.0258,0.0074,1.0083,0.19,-1.21,1.5,-16.12,24.87,-27.16,0.990326,0.006897,-0.011689,-0.138035,0.0,0.0,0.0,0,0
2026-06-08 19:13:31.408,233140,L_Shank,0.0477,-0.0087,1.005,1.73,-1.09,-0.07,6.81,26.38,-36.8,0.997711,-0.000458,-0.046693,0.048311,0.0,0.0,0.0,0,0
2026-06-08 19:13:31.410,233009,R_Hip,-0.0243,-0.0013,1.0054,0.19,-1.2,1.51,-14.85,23.22,-28.35,0.990326,0.006897,-0.011658,-0.138066,0.0,0.0,0.0,0,0
2026-06-08 19:13:31.411,233150,L_Shank,0.0507,-0.0048,0.9815,1.74,-1.09,-0.08,0.0,0.0,0.0,0.997711,-0.000427,-0.046693,0.048311,0.0,0.0,0.0,0,0
2026-06-08 19:13:31.413,233019,R_Hip,-0.0189,0.0079,1.002,0.19,-1.2,1.51,0.0,0.0,0.0,0.990326,0.006897,-0.011658,-0.138066,0.0,0.0,0.0,0,0
2026-06-08 19:13:31.414,233160,L_Shank,0.0516,-0.0102,0.9849,1.74,-1.09,-0.08,5.76,25.71,-37.09,0.997711,-0.000427,-0.046693,0.048311,0.0,0.0,0.0,0,0
2026-06-08 19:13:31.416,232996,R_Shank,0.0375,3.2692,1.0061,-0.06,-0.89,-1.58,-7.7,19.48,-23.49,0.972411,0.028993,-0.022736,0.230262,0.0,0.0,0.0,0,0
2026-06-08 19:13:31.417,233137,L_Hip,0.1136,-0.0793,1.0064,0.37,-0.12,0.82,-13.52,42.74,-61.56,0.997284,-0.030152,-0.066805,-0.003876,0.0,0.0,0.0,0,0
2026-06-08 19:13:31.419,233006,R_Shank,0.0389,1.728,1.0056,-0.05,-0.89,-1.58,0.0,0.0,0.0,0.972411,0.028993,-0.022736,0.230262,0.0,0.0,0.0,0,0
2026-06-08 19:13:31.420,233147,L_Hip,0.1063,-0.0789,0.9948,0.36,-0.12,0.81,0.0,0.0,0.0,0.997284,-0.030122,-0.066805,-0.003876,0.0,0.0,0.0,0,0
2026-06-08 19:13:31.422,233016,R_Shank,0.0296,0.9572,1.0104,-0.07,-0.88,-1.58,-9.01,17.52,-23.79,0.972411,0.028993,-0.022736,0.230262,0.0,0.0,0.0,0,0
2026-06-08 19:13:31.424,233157,L_Hip,0.1161,-0.0715,0.987,0.37,-0.11,0.8,-14.4,42.23,-59.95,0.997284,-0.030091,-0.066805,-0.003876,0.0,0.0,0.0,0,0
2026-06-08 19:13:31.425,233026,R_Shank,0.0375,2.7576,1.0056,-0.06,-0.89,-1.58,-9.35,18.18,-24.08,0.972411,0.028962,-0.022767,0.230262,0.0,0.0,0.0,0,0
2026-06-08 19:13:31.427,233167,L_Hip,0.1107,-0.0769,0.9938,0.38,-0.11,0.82,-13.55,42.41,-60.11,0.997284,-0.030091,-0.066774,-0.003876,0.0,0.0,0.0,0,0
2026-06-08 19:13:31.428,232999,R_Ankle,0.0253,-0.0185,0.9947,0.9,-1.85,-0.25,-1.75,28.72,-29.73,0.988128,0.045625,-0.084323,0.119877,0.0,0.0,0.0,0,0
2026-06-08 19:13:31.430,233155,L_Shank,0.0531,-0.0033,0.9887,1.73,-1.1,-0.07,6.81,26.39,-37.42,0.997711,-0.000427,-0.046693,0.048311,0.0,0.0,0.0,0,0
2026-06-08 19:13:31.431,233009,R_Ankle,0.0297,-0.023,1.0091,0.89,-1.87,-0.25,-2.64,28.27,-32.67,0.988128,0.045625,-0.084323,0.119877,0.0,0.0,0.0,0,0
2026-06-08 19:13:31.433,233165,L_Shank,0.0531,-0.0116,0.993,1.74,-1.09,-0.06,6.29,27.24,-37.58,0.997711,-0.000427,-0.046724,0.048341,0.0,0.0,0.0,0,0
2026-06-08 19:13:31.434,233019,R_Ankle,0.0351,-0.0136,1.011,0.88,-1.87,-0.25,0.0,0.0,0.0,0.988128,0.045595,-0.084323,0.119877,0.0,0.0,0.0,0,0
2026-06-08 19:13:31.436,233175,L_Shank,0.0555,-0.0072,0.9815,1.73,-1.09,-0.08,0.0,0.0,0.0,0.997711,-0.000427,-0.046724,0.048341,0.0,0.0,0.0,0,0
2026-06-08 19:13:31.438,233029,R_Ankle,0.0312,-0.0141,0.9919,0.89,-1.84,-0.25,-3.64,28.24,-31.13,0.988128,0.045625,-0.084323,0.119877,0.0,0.0,0.0,0,0
2026-06-08 19:13:31.439,233185,L_Shank,0.0526,-0.0136,0.9892,1.74,-1.09,-0.06,5.94,27.57,-36.96,0.997711,-0.000427,-0.046754,0.048341,0.0,0.0,0.0,0,0
2026-06-08 19:13:31.441,233014,R_Hip,-0.0214,0.0015,0.9991,0.18,-1.22,1.53,-15.76,25.59,-26.48,0.990326,0.006897,-0.011689,-0.138066,0.0,0.0,0.0,0,0
2026-06-08 19:13:31.443,233172,L_Ankle,0.0526,0.0051,0.9794,-0.71,-0.4,-0.85,-25.55,17.81,-49.95,0.961943,0.026307,-0.033998,0.269814,0.0,0.0,0.0,0,0
2026-06-08 19:13:31.444,233024,R_Hip,-0.0223,0.002,1.0001,0.19,-1.21,1.51,-16.49,25.23,-28.19,0.990326,0.006928,-0.011658,-0.138035,0.0,0.0,0.0,0,0
2026-06-08 19:13:31.446,233182,L_Ankle,0.0521,0.0144,0.9818,-0.7,-0.39,-0.84,0.0,0.0,0.0,0.961943,0.026307,-0.033998,0.269814,0.0,0.0,0.0,0,0
2026-06-08 19:13:31.447,233034,R_Hip,-0.0169,0.0093,1.0112,0.18,-1.19,1.52,0.0,0.0,0.0,0.990326,0.006928,-0.011658,-0.138035,0.0,0.0,0.0,0,0
2026-06-08 19:13:31.449,233192,L_Ankle,0.0585,0.0124,0.9866,-0.7,-0.4,-0.83,-25.55,17.45,-50.29,0.961943,0.026276,-0.033967,0.269814,0.0,0.0,0.0,0,0
2026-06-08 19:13:31.450,233044,R_Hip,-0.0135,0.001,1.0001,0.19,-1.2,1.51,-14.11,24.68,-25.96,0.990326,0.006928,-0.011658,-0.138035,0.0,0.0,0.0,0,0
2026-06-08 19:13:31.453,233202,L_Ankle,0.0526,0.01,0.9846,-0.7,-0.4,-0.84,-25.22,18.87,-49.94,0.961943,0.026276,-0.033998,0.269814,0.0,0.0,0.0,0,0
2026-06-08 19:13:31.453,233039,R_Hip,-0.0209,0.0049,1.0107,0.18,-1.21,1.52,-16.12,23.77,-27.16,0.990326,0.006958,-0.011689,-0.138035,0.0,0.0,0.0,0,0
2026-06-08 19:13:31.456,233182,L_Hip,0.1082,-0.0754,0.9837,0.38,-0.11,0.82,-13.89,42.08,-60.39,0.997284,-0.030122,-0.066774,-0.003845,0.0,0.0,0.0,0,0
2026-06-08 19:13:31.457,233049,R_Hip,-0.0258,0.0049,1.0001,0.18,-1.2,1.53,-15.03,24.87,-27.5,0.990326,0.006958,-0.011658,-0.138035,0.0,0.0,0.0,0,0
2026-06-08 19:13:31.458,233192,L_Hip,0.1087,-0.0774,0.987,0.38,-0.11,0.83,0.0,0.0,0.0,0.997284,-0.030122,-0.066774,-0.003845,0.0,0.0,0.0,0,0
2026-06-08 19:13:31.460,233059,R_Hip,-0.0297,-0.0018,1.0092,0.19,-1.19,1.52,0.0,0.0,0.0,0.990326,0.006958,-0.011689,-0.138035,0.0,0.0,0.0,0,0
2026-06-08 19:13:31.462,233202,L_Hip,0.1092,-0.072,0.9895,0.37,-0.11,0.8,-13.58,41.12,-60.11,0.997284,-0.030122,-0.066774,-0.003845,0.0,0.0,0.0,0,0
2026-06-08 19:13:31.463,233069,R_Hip,-0.0174,0.0049,0.9842,0.17,-1.21,1.51,-15.03,24.5,-25.79,0.990326,0.006958,-0.011658,-0.138035,0.0,0.0,0.0,0,0
2026-06-08 19:13:31.465,233212,L_Hip,0.1112,-0.0769,0.989,0.37,-0.11,0.8,-14.26,41.75,-59.23,0.997284,-0.030122,-0.066774,-0.003845,0.0,0.0,0.0,0,0
2026-06-08 19:13:31.466,233064,R_Hip,-0.0268,-0.0003,0.9914,0.18,-1.21,1.52,-16.12,24.5,-26.13,0.990326,0.006958,-0.011658,-0.138035,0.0,0.0,0.0,0,0
2026-06-08 19:13:31.468,233195,L_Ankle,0.0555,0.0061,0.987,-0.71,-0.39,-0.86,-25.58,19.23,-50.28,0.961943,0.026276,-0.033967,0.269845,0.0,0.0,0.0,0,0
2026-06-08 19:13:31.469,233074,R_Hip,-0.0253,-0.0028,0.9986,0.18,-1.21,1.51,-15.94,24.32,-27.33,0.990326,0.006958,-0.011628,-0.138035,0.0,0.0,0.0,0,0
2026-06-08 19:13:31.470,233205,L_Ankle,0.0482,0.0065,0.9971,-0.7,-0.4,-0.85,0.0,0.0,0.0,0.961943,0.026276,-0.033967,0.269814,0.0,0.0,0.0,0,0
2026-06-08 19:13:31.471,233084,R_Hip,-0.0283,0.002,0.9948,0.19,-1.21,1.51,0.0,0.0,0.0,0.990326,0.006928,-0.011628,-0.138035,0.0,0.0,0.0,0,0
2026-06-08 19:13:31.473,233215,L_Ankle,0.0443,0.0129,0.9918,-0.7,-0.38,-0.84,-25.05,20.11,-49.42,0.961913,0.026276,-0.033998,0.269845,0.0,0.0,0.0,0,0
2026-06-08 19:13:31.474,233094,R_Hip,-0.0243,-0.0028,1.0083,0.2,-1.22,1.52,-16.31,23.95,-28.01,0.990326,0.006928,-0.011628,-0.138035,0.0,0.0,0.0,0,0
2026-06-08 19:13:31.476,233225,L_Ankle,0.057,0.0041,0.9942,-0.71,-0.39,-0.85,-26.1,17.99,-51.15,0.961913,0.026276,-0.033998,0.269845,0.0,0.0,0.0,0,0
2026-06-08 19:13:31.478,233066,R_Ankle,0.0282,-0.0136,0.9895,0.9,-1.87,-0.25,-2.12,27.47,-31.57,0.988128,0.045625,-0.084323,0.119877,0.0,0.0,0.0,0,0
2026-06-08 19:13:31.480,233205,L_Shank,0.0463,-0.0028,0.9887,1.73,-1.11,-0.08,6.47,28.1,-38.38,0.997711,-0.000458,-0.046754,0.048341,0.0,0.0,0.0,0,0
2026-06-08 19:13:31.481,233076,R_Ankle,0.0268,-0.021,1.0067,0.9,-1.87,-0.25,-2.6,28.56,-29.9,0.988128,0.045625,-0.084323,0.119877,0.0,0.0,0.0,0,0
2026-06-08 19:13:31.483,233215,L_Shank,0.0531,-0.0087,0.9916,1.74,-1.09,-0.08,6.81,26.05,-37.42,0.997711,-0.000458,-0.046754,0.048341,0.0,0.0,0.0,0,0
2026-06-08 19:13:31.484,233086,R_Ankle,0.0214,-0.0161,0.999,0.91,-1.87,-0.25,-3.12,29.04,-30.68,0.988128,0.045625,-0.084323,0.119877,0.0,0.0,0.0,0,0
2026-06-08 19:13:31.486,233225,L_Shank,0.0428,-0.0077,1.0036,1.74,-1.09,-0.07,0.0,0.0,0.0,0.997711,-0.000488,-0.046754,0.048341,0.0,0.0,0.0,0,0
2026-06-08 19:13:31.487,233096,R_Ankle,0.0297,-0.0141,0.9976,0.89,-1.87,-0.25,0.0,0.0,0.0,0.988128,0.045656,-0.084292,0.119877,0.0,0.0,0.0,0,0
2026-06-08 19:13:31.489,233235,L_Shank,0.0497,-0.0102,0.995,1.73,-1.11,-0.08,5.42,27.42,-37.73,0.997711,-0.000488,-0.046754,0.048341,0.0,0.0,0.0,0,0
2026-06-08 19:13:31.491,233227,L_Hip,0.1087,-0.0754,0.9929,0.38,-0.11,0.82,-14.07,41.6,-60.25,0.997284,-0.030152,-0.066805,-0.003845,0.0,0.0,0.0,0,0
2026-06-08 19:13:31.493,233237,L_Hip,0.1068,-0.0725,0.9759,0.37,-0.12,0.81,0.0,0.0,0.0,0.997284,-0.030152,-0.066774,-0.003845,0.0,0.0,0.0,0,0
2026-06-08 19:13:31.496,233247,L_Hip,0.1171,-0.0793,0.9861,0.38,-0.12,0.81,-14.07,41.28,-60.83,0.997284,-0.030183,-0.066774,-0.003845,0.0,0.0,0.0,0,0
2026-06-08 19:13:31.498,233257,L_Hip,0.1176,-0.0744,1.0054,0.38,-0.12,0.81,-13.23,42.09,-59.53,0.997284,-0.030183,-0.066774,-0.003845,0.0,0.0,0.0,0,0
2026-06-08 19:13:31.500,233230,L_Shank,0.0458,-0.0116,0.9743,1.73,-1.09,-0.08,6.98,25.87,-36.64,0.997711,-0.000488,-0.046754,0.048341,0.0,0.0,0.0,0,0
2026-06-08 19:13:31.503,233240,L_Shank,0.0482,-0.0087,0.9743,1.74,-1.09,-0.09,6.11,27.75,-37.12,0.997711,-0.000519,-0.046754,0.048341,0.0,0.0,0.0,0,0
2026-06-08 19:13:31.506,233250,L_Shank,0.0521,-0.0107,1.0031,1.74,-1.09,-0.07,0.0,0.0,0.0,0.997711,-0.000488,-0.046754,0.048341,0.0,0.0,0.0,0,0
2026-06-08 19:13:31.507,233110,R_Shank,0.033,-1.3548,1.0052,-0.05,-0.89,-1.59,-9.02,18.18,-23.48,0.972411,0.028962,-0.022736,0.230262,0.0,0.0,0.0,0,0
2026-06-08 19:13:31.509,233260,L_Shank,0.0546,-0.0077,0.994,1.72,-1.09,-0.09,5.06,27.07,-37.1,0.997711,-0.000488,-0.046754,0.048341,0.0,0.0,0.0,0,0
2026-06-08 19:13:31.511,233120,R_Shank,0.0267,-2.3844,1.0076,-0.06,-0.88,-1.59,-9.54,18.69,-23.32,0.972411,0.028962,-0.022767,0.230262,0.0,0.0,0.0,0,0
2026-06-08 19:13:31.512,233240,L_Ankle,0.0516,0.0183,0.9971,-0.7,-0.4,-0.86,-24.34,18.32,-50.43,0.961913,0.026307,-0.033998,0.269845,0.0,0.0,0.0,0,0
2026-06-08 19:13:31.514,233130,R_Shank,0.0247,-1.1024,1.0128,-0.06,-0.88,-1.58,-9.52,18.03,-23.63,0.972411,0.028962,-0.022736,0.230232,0.0,0.0,0.0,0,0
2026-06-08 19:13:31.515,233250,L_Ankle,0.0536,0.0114,0.9774,-0.71,-0.39,-0.86,0.0,0.0,0.0,0.961943,0.026276,-0.033998,0.269814,0.0,0.0,0.0,0,0
2026-06-08 19:13:31.517,233140,R_Shank,0.0326,0.0572,1.0114,-0.06,-0.89,-1.58,0.0,0.0,0.0,0.972411,0.028962,-0.022706,0.230232,0.0,0.0,0.0,0,0
2026-06-08 19:13:31.519,233260,L_Ankle,0.0531,0.0149,0.9731,-0.7,-0.38,-0.85,-24.5,17.79,-49.93,0.961913,0.026307,-0.033998,0.269845,0.0,0.0,0.0,0,0
2026-06-08 19:13:31.520,233112,R_Ankle,0.0351,-0.023,1.0211,0.89,-1.85,-0.25,-3.8,28.07,-30.06,0.988128,0.045656,-0.084292,0.119877,0.0,0.0,0.0,0,0
2026-06-08 19:13:31.522,233270,L_Ankle,0.0501,0.0163,0.9899,-0.7,-0.4,-0.85,-25.91,18.52,-49.95,0.961943,0.026307,-0.033998,0.269814,0.0,0.0,0.0,0,0
2026-06-08 19:13:31.523,233122,R_Ankle,0.0405,-0.0166,1.0048,0.89,-1.87,-0.25,-2.95,29.2,-31.14,0.988128,0.045595,-0.084292,0.119877,0.0,0.0,0.0,0,0
2026-06-08 19:13:31.525,233132,R_Ankle,0.0273,-0.0195,1.0053,0.9,-1.86,-0.26,0.0,0.0,0.0,0.988128,0.045595,-0.084323,0.119877,0.0,0.0,0.0,0,0
2026-06-08 19:13:31.527,233142,R_Ankle,0.0385,-0.021,1.0053,0.9,-1.86,-0.26,-2.77,28.71,-29.44,0.988128,0.045625,-0.084323,0.119877,0.0,0.0,0.0,0,0
2026-06-08 19:13:31.530,233114,R_Hip,-0.0263,-0.0028,0.9914,0.19,-1.22,1.51,-15.58,23.95,-27.33,0.990326,0.006928,-0.011597,-0.138035,0.0,0.0,0.0,0,0
2026-06-08 19:13:31.531,233272,L_Hip,0.1097,-0.0749,0.9856,0.37,-0.12,0.81,-13.2,42.42,-61.28,0.997284,-0.030152,-0.066774,-0.003845,0.0,0.0,0.0,0,0
2026-06-08 19:13:31.534,233124,R_Hip,-0.0288,-0.0028,1.0006,0.2,-1.21,1.52,-16.12,23.77,-27.16,0.990326,0.006928,-0.011597,-0.138035,0.0,0.0,0.0,0,0
2026-06-08 19:13:31.534,233282,L_Hip,0.1156,-0.0779,0.989,0.38,-0.12,0.82,-14.24,42.08,-60.1,0.997284,-0.030152,-0.066774,-0.003815,0.0,0.0,0.0,0,0
2026-06-08 19:13:31.537,233134,R_Hip,-0.0189,0.0045,1.0112,0.19,-1.2,1.51,0.0,0.0,0.0,0.990326,0.006928,-0.011597,-0.138035,0.0,0.0,0.0,0,0
2026-06-08 19:13:31.537,233292,L_Hip,0.1087,-0.0823,0.9895,0.37,-0.12,0.82,0.0,0.0,0.0,0.997284,-0.030152,-0.066774,-0.003815,0.0,0.0,0.0,0,0
2026-06-08 19:13:31.540,233144,R_Hip,-0.0258,0.0113,0.99,0.18,-1.21,1.51,-16.49,24.86,-26.48,0.990326,0.006928,-0.011597,-0.138035,0.0,0.0,0.0,0,0
2026-06-08 19:13:31.540,233302,L_Hip,0.1112,-0.0833,0.9851,0.36,-0.12,0.83,-13.06,42.26,-59.39,0.997284,-0.030152,-0.066744,-0.003845,0.0,0.0,0.0,0,0
2026-06-08 19:13:31.544,233134,R_Ankle,0.0346,-0.0141,1.0062,0.89,-1.87,-0.25,-1.75,28.41,-30.04,0.988128,0.045625,-0.084323,0.119877,0.0,0.0,0.0,0,0
2026-06-08 19:13:31.545,233280,L_Shank,0.0521,-0.019,0.9858,1.74,-1.09,-0.08,5.6,28.61,-37.91,0.997711,-0.000519,-0.046754,0.048341,0.0,0.0,0.0,0,0
2026-06-08 19:13:31.548,233144,R_Ankle,0.0219,-0.0225,1.0034,0.89,-1.87,-0.25,-3.13,28.09,-31.28,0.988128,0.045656,-0.084353,0.119877,0.0,0.0,0.0,0,0
2026-06-08 19:13:31.548,233290,L_Shank,0.0497,-0.0048,0.9801,1.74,-1.09,-0.08,5.06,27.74,-36.8,0.997711,-0.000488,-0.046724,0.048311,0.0,0.0,0.0,0,0
2026-06-08 19:13:31.551,233300,L_Shank,0.0531,-0.0063,1.0007,1.73,-1.09,-0.08,5.42,26.39,-37.41,0.997711,-0.000488,-0.046754,0.048311,0.0,0.0,0.0,0,0
2026-06-08 19:13:31.551,233154,R_Ankle,0.0282,-0.0141,0.9995,0.9,-1.87,-0.25,-2.1,28.41,-30.66,0.988128,0.045625,-0.084353,0.119877,0.0,0.0,0.0,0,0
2026-06-08 19:13:31.553,233310,L_Shank,0.0497,-0.016,0.9767,1.74,-1.1,-0.06,0.0,0.0,0.0,0.997711,-0.000488,-0.046785,0.048311,0.0,0.0,0.0,0,0
2026-06-08 19:13:31.554,233164,R_Ankle,0.0258,-0.021,1.0024,0.89,-1.86,-0.25,0.0,0.0,0.0,0.988128,0.045656,-0.084323,0.119877,0.0,0.0,0.0,0,0
2026-06-08 19:13:31.556,233285,L_Ankle,0.0565,0.0119,1.0072,-0.7,-0.4,-0.83,-25.05,19.04,-50.44,0.961943,0.026276,-0.033998,0.269814,0.0,0.0,0.0,0,0
2026-06-08 19:13:31.557,233154,R_Shank,0.0242,0.1864,1.0104,-0.06,-0.89,-1.59,-9.54,18.36,-23.02,0.972411,0.028962,-0.022736,0.230232,0.0,0.0,0.0,0,0
2026-06-08 19:13:31.559,233295,L_Ankle,0.0477,0.009,1.0024,-0.7,-0.38,-0.83,0.0,0.0,0.0,0.961943,0.026307,-0.033998,0.269814,0.0,0.0,0.0,0,0
2026-06-08 19:13:31.560,233164,R_Shank,0.0399,-2.2548,1.0196,-0.06,-0.88,-1.59,-10.22,18.38,-22.11,0.972411,0.028962,-0.022706,0.230232,0.0,0.0,0.0,0,0
2026-06-08 19:13:31.562,233305,L_Ankle,0.0457,0.0075,0.9894,-0.7,-0.39,-0.84,-24.7,19.39,-50.1,0.961943,0.026307,-0.033998,0.269814,0.0,0.0,0.0,0,0
2026-06-08 19:13:31.563,233174,R_Shank,0.0286,3.2692,1.0114,-0.06,-0.88,-1.59,0.0,0.0,0.0,0.972411,0.028932,-0.022706,0.230232,0.0,0.0,0.0,0,0
2026-06-08 19:13:31.565,233315,L_Ankle,0.0438,0.0002,0.9957,-0.7,-0.38,-0.84,-25.2,18.87,-49.26,0.961943,0.026337,-0.033998,0.269814,0.0,0.0,0.0,0,0
2026-06-08 19:13:31.566,233184,R_Shank,0.0409,-1.4844,1.0181,-0.05,-0.87,-1.59,-9.04,19.5,-24.38,0.972411,0.028932,-0.022706,0.230232,0.0,0.0,0.0,0,0
2026-06-08 19:13:31.568,233156,R_Ankle,0.0302,-0.021,0.9962,0.88,-1.87,-0.25,-2.08,28.71,-29.12,0.988128,0.045625,-0.084353,0.119877,0.0,0.0,0.0,0,0
2026-06-08 19:13:31.571,233166,R_Ankle,0.0253,-0.0205,0.9976,0.9,-1.87,-0.25,-3.8,28.4,-30.68,0.988128,0.045625,-0.084384,0.119877,0.0,0.0,0.0,0,0
2026-06-08 19:13:31.573,233176,R_Ankle,0.0297,-0.0161,1.0053,0.9,-1.87,-0.26,0.0,0.0,0.0,0.988128,0.045625,-0.084353,0.119877,0.0,0.0,0.0,0,0
2026-06-08 19:13:31.575,233186,R_Ankle,0.0258,-0.0215,1.011,0.9,-1.84,-0.25,-2.44,28.4,-30.35,0.988128,0.045625,-0.084353,0.119877,0.0,0.0,0.0,0,0
2026-06-08 19:13:31.578,233164,R_Hip,-0.0283,0.0006,0.9962,0.18,-1.21,1.51,-14.66,24.13,-25.79,0.990326,0.006928,-0.011597,-0.138035,0.0,0.0,0.0,0,0
2026-06-08 19:13:31.580,233174,R_Hip,-0.0273,0.0035,0.9832,0.19,-1.21,1.51,-17.4,23.59,-28.7,0.990326,0.006928,-0.011597,-0.138035,0.0,0.0,0.0,0,0
2026-06-08 19:13:31.581,233184,R_Hip,-0.0214,0.0089,0.9996,0.18,-1.2,1.5,0.0,0.0,0.0,0.990326,0.006928,-0.011597,-0.138035,0.0,0.0,0.0,0,0
2026-06-08 19:13:31.584,233194,R_Hip,-0.0154,0.0035,1.001,0.19,-1.2,1.51,-16.12,23.4,-27.16,0.990326,0.006958,-0.011597,-0.138066,0.0,0.0,0.0,0,0
2026-06-08 19:13:31.586,233177,R_Shank,0.0365,0.9572,1.0037,-0.06,-0.88,-1.58,-8.84,18.01,-24.54,0.972411,0.028932,-0.022675,0.230232,0.0,0.0,0.0,0,0
2026-06-08 19:13:31.588,233187,R_Shank,0.0306,1.728,0.9941,-0.06,-0.87,-1.58,-9.55,19.35,-23.01,0.972411,0.028932,-0.022675,0.230232,0.0,0.0,0.0,0,0
2026-06-08 19:13:31.590,233197,R_Shank,0.0291,-1.7432,0.997,-0.06,-0.87,-1.58,0.0,0.0,0.0,0.972411,0.028932,-0.022675,0.230232,0.0,0.0,0.0,0,0
2026-06-08 19:13:31.592,233207,R_Shank,0.034,1.5984,1.0167,-0.05,-0.89,-1.58,-9.85,17.37,-23.63,0.972411,0.028932,-0.022675,0.230232,0.0,0.0,0.0,0,0
2026-06-08 19:13:31.595,233200,R_Shank,0.0375,-0.0724,1.0071,-0.06,-0.89,-1.59,-10.04,19.19,-24.37,0.972411,0.028932,-0.022675,0.230262,0.0,0.0,0.0,0,0
2026-06-08 19:13:31.598,233210,R_Shank,0.0316,0.316,1.0052,-0.06,-0.87,-1.58,-9.35,18.18,-24.08,0.972411,0.028932,-0.022706,0.230232,0.0,0.0,0.0,0,0
2026-06-08 19:13:31.599,233340,L_Hip,0.1176,-0.0744,0.9943,0.38,-0.12,0.81,-14.24,41.43,-60.39,0.997284,-0.030152,-0.066744,-0.003815,0.0,0.0,0.0,0,0
2026-06-08 19:13:31.601,233220,R_Shank,0.0321,-0.8432,0.9975,-0.06,-0.89,-1.58,0.0,0.0,0.0,0.972411,0.028932,-0.022706,0.230232,0.0,0.0,0.0,0,0
2026-06-08 19:13:31.602,233350,L_Hip,0.122,-0.0779,0.9967,0.37,-0.1,0.82,-13.88,41.44,-61.85,0.997284,-0.030152,-0.066744,-0.003815,0.0,0.0,0.0,0,0
2026-06-08 19:13:31.605,233230,R_Shank,0.0384,1.728,1.0052,-0.06,-0.88,-1.59,-10.23,19.7,-23.31,0.972411,0.028962,-0.022706,0.230232,0.0,0.0,0.0,0,0
2026-06-08 19:13:31.605,233360,L_Hip,0.1117,-0.0739,0.9803,0.37,-0.1,0.81,0.0,0.0,0.0,0.997284,-0.030122,-0.066713,-0.003815,0.0,0.0,0.0,0,0
2026-06-08 19:13:31.608,233370,L_Hip,0.1141,-0.0843,0.9832,0.38,-0.11,0.82,-13.56,41.77,-60.69,0.997284,-0.030122,-0.066713,-0.003815,0.0,0.0,0.0,0,0
2026-06-08 19:13:31.609,233201,R_Ankle,0.0243,-0.0235,0.9876,0.9,-1.86,-0.25,-1.41,28.09,-29.72,0.988128,0.045625,-0.084384,0.119877,0.0,0.0,0.0,0,0
2026-06-08 19:13:31.612,233352,L_Ankle,0.0624,0.008,1.0048,-0.69,-0.39,-0.85,-26.11,20.12,-49.78,0.961943,0.026337,-0.034028,0.269814,0.0,0.0,0.0,0,0
2026-06-08 19:13:31.612,233211,R_Ankle,0.0317,-0.024,1.0115,0.88,-1.87,-0.26,-2.94,28.87,-30.21,0.988128,0.045595,-0.084353,0.119877,0.0,0.0,0.0,0,0
2026-06-08 19:13:31.615,233362,L_Ankle,0.0521,0.0075,0.9789,-0.7,-0.39,-0.85,0.0,0.0,0.0,0.961943,0.026337,-0.033998,0.269814,0.0,0.0,0.0,0,0
2026-06-08 19:13:31.616,233221,R_Ankle,0.0243,-0.0121,1.0096,0.89,-1.86,-0.25,-1.94,27.61,-30.49,0.988128,0.045595,-0.084384,0.119877,0.0,0.0,0.0,0,0
2026-06-08 19:13:31.617,233372,L_Ankle,0.0521,0.0026,0.9774,-0.7,-0.38,-0.84,-26.1,19.41,-50.12,0.961943,0.026307,-0.033998,0.269814,0.0,0.0,0.0,0,0
2026-06-08 19:13:31.618,233231,R_Ankle,0.0317,-0.0146,1.0038,0.9,-1.86,-0.25,0.0,0.0,0.0,0.988128,0.045595,-0.084384,0.119877,0.0,0.0,0.0,0,0
2026-06-08 19:13:31.621,233382,L_Ankle,0.0545,0.0046,0.988,-0.7,-0.39,-0.85,-24.0,18.31,-50.77,0.961943,0.026307,-0.033998,0.269814,0.0,0.0,0.0,0,0
2026-06-08 19:13:31.622,233213,R_Hip,-0.0243,0.0054,1.0208,0.19,-1.22,1.51,-15.94,24.32,-26.65,0.990326,0.006928,-0.011597,-0.138066,0.0,0.0,0.0,0,0
2026-06-08 19:13:31.624,233355,L_Shank,0.0467,-0.0043,0.9911,1.73,-1.09,-0.08,5.6,25.89,-37.87,0.997711,-0.000488,-0.046785,0.048311,0.0,0.0,0.0,0,0
2026-06-08 19:13:31.625,233223,R_Hip,-0.0288,-0.0013,0.9958,0.17,-1.22,1.52,-16.3,25.05,-26.65,0.990326,0.006928,-0.011567,-0.138066,0.0,0.0,0.0,0,0
2026-06-08 19:13:31.627,233365,L_Shank,0.0541,-0.0097,0.9858,1.73,-1.09,-0.09,5.41,26.73,-37.1,0.997711,-0.000519,-0.046785,0.048341,0.0,0.0,0.0,0,0
2026-06-08 19:13:31.628,233233,R_Hip,-0.0273,-0.0037,0.9881,0.19,-1.22,1.51,0.0,0.0,0.0,0.990326,0.006958,-0.011567,-0.138066,0.0,0.0,0.0,0,0
2026-06-08 19:13:31.630,233375,L_Shank,0.0428,-0.0107,0.9714,1.73,-1.11,-0.08,0.0,0.0,0.0,0.997711,-0.000549,-0.046754,0.048341,0.0,0.0,0.0,0,0
2026-06-08 19:13:31.632,233243,R_Hip,-0.0164,0.0054,1.0006,0.19,-1.22,1.51,-15.76,23.77,-26.82,0.990326,0.006958,-0.011536,-0.138066,0.0,0.0,0.0,0,0
2026-06-08 19:13:31.634,233385,L_Shank,0.0507,-0.0028,0.9815,1.73,-1.09,-0.07,5.75,27.39,-36.18,0.997711,-0.000549,-0.046754,0.048341,0.0,0.0,0.0,0,0
2026-06-08 19:13:31.635,233221,R_Shank,0.0227,2.4984,1.0205,-0.06,-0.89,-1.57,-9.53,18.35,-23.93,0.972411,0.028962,-0.022736,0.230262,0.0,0.0,0.0,0,0
2026-06-08 19:13:31.637,233362,L_Hip,0.1073,-0.0671,0.988,0.38,-0.12,0.83,-13.57,41.77,-59.82,0.997284,-0.030122,-0.066713,-0.003845,0.0,0.0,0.0,0,0
2026-06-08 19:13:31.638,233231,R_Shank,0.0321,0.316,1.0114,-0.06,-0.89,-1.58,-10.54,18.37,-23.92,0.972411,0.028932,-0.022706,0.230262,0.0,0.0,0.0,0,0
2026-06-08 19:13:31.641,233372,L_Hip,0.12,-0.0852,0.9875,0.38,-0.11,0.83,-13.21,42.74,-60.41,0.997284,-0.030122,-0.066713,-0.003845,0.0,0.0,0.0,0,0
2026-06-08 19:13:31.642,233241,R_Shank,0.0306,2.4984,1.009,-0.06,-0.88,-1.58,0.0,0.0,0.0,0.972411,0.028932,-0.022706,0.230262,0.0,0.0,0.0,0,0
2026-06-08 19:13:31.644,233382,L_Hip,0.1087,-0.0754,0.9929,0.38,-0.12,0.81,0.0,0.0,0.0,0.997284,-0.030122,-0.066713,-0.003815,0.0,0.0,0.0,0,0
2026-06-08 19:13:31.645,233251,R_Shank,0.0316,1.728,1.0023,-0.06,-0.88,-1.58,-9.7,18.85,-24.37,0.972411,0.028901,-0.022706,0.230262,0.0,0.0,0.0,0,0
2026-06-08 19:13:31.647,233392,L_Hip,0.1151,-0.0666,0.9875,0.38,-0.11,0.81,-13.57,41.12,-60.98,0.997284,-0.030122,-0.066713,-0.003815,0.0,0.0,0.0,0,0
2026-06-08 19:13:31.648,233244,R_Shank,0.0345,3.1396,1.009,-0.06,-0.87,-1.59,-9.86,18.69,-24.22,0.972411,0.028901,-0.022706,0.230262,0.0,0.0,0.0,0,0
2026-06-08 19:13:31.650,233380,L_Shank,0.0531,-0.0126,0.9964,1.73,-1.12,-0.06,5.24,27.58,-37.58,0.997711,-0.000549,-0.046724,0.048341,0.0,0.0,0.0,0,0
2026-06-08 19:13:31.651,233254,R_Shank,0.0316,0.0572,0.9975,-0.05,-0.88,-1.58,-10.21,18.37,-23.32,0.972411,0.028932,-0.022706,0.230262,0.0,0.0,0.0,0,0
2026-06-08 19:13:31.653,233390,L_Shank,0.0541,-0.0033,0.9935,1.74,-1.11,-0.09,5.05,26.37,-35.54,0.997711,-0.000549,-0.046724,0.048311,0.0,0.0,0.0,0,0
2026-06-08 19:13:31.653,233264,R_Shank,0.0242,-0.8432,1.0157,-0.06,-0.88,-1.58,0.0,0.0,0.0,0.972411,0.028901,-0.022706,0.230262,0.0,0.0,0.0,0,0
2026-06-08 19:13:31.656,233400,L_Shank,0.0507,-0.0097,0.9834,1.72,-1.1,-0.08,4.37,28.09,-37.73,0.997711,-0.00058,-0.046724,0.048341,0.0,0.0,0.0,0,0
2026-06-08 19:13:31.657,233274,R_Shank,0.0306,-2.6436,1.009,-0.06,-0.88,-1.59,-10.19,18.04,-23.92,0.972411,0.028932,-0.022675,0.230262,0.0,0.0,0.0,0,0
2026-06-08 19:13:31.658,233410,L_Shank,0.0482,-0.0038,0.9834,1.73,-1.09,-0.07,0.0,0.0,0.0,0.997711,-0.00058,-0.046724,0.048341,0.0,0.0,0.0,0,0
2026-06-08 19:13:31.660,233246,R_Ankle,0.0224,-0.021,1.001,0.89,-1.87,-0.25,-3.48,28.1,-31.9,0.988128,0.045595,-0.084384,0.119877,0.0,0.0,0.0,0,0
2026-06-08 19:13:31.661,233385,L_Hip,0.1097,-0.0754,1.0001,0.36,-0.09,0.8,-14.57,42.07,-60.38,0.997284,-0.030122,-0.066713,-0.003845,0.0,0.0,0.0,0,0
2026-06-08 19:13:31.663,233256,R_Ankle,0.0302,-0.0181,1.0072,0.88,-1.88,-0.25,-2.11,28.42,-31.27,0.988128,0.045595,-0.084384,0.119907,0.0,0.0,0.0,0,0
2026-06-08 19:13:31.664,233395,L_Hip,0.1171,-0.0759,0.9827,0.38,-0.09,0.8,-13.07,40.65,-60.84,0.997284,-0.030122,-0.066713,-0.003845,0.0,0.0,0.0,0,0
2026-06-08 19:13:31.666,233266,R_Ankle,0.0268,-0.0255,1.0062,0.89,-1.87,-0.24,-3.64,28.24,-31.13,0.988128,0.045595,-0.084384,0.119907,0.0,0.0,0.0,0,0
2026-06-08 19:13:31.667,233405,L_Hip,0.1161,-0.0784,0.9904,0.38,-0.1,0.81,0.0,0.0,0.0,0.997284,-0.030122,-0.066713,-0.003845,0.0,0.0,0.0,0,0
2026-06-08 19:13:31.669,233276,R_Ankle,0.0268,-0.0156,1.0077,0.89,-1.86,-0.25,0.0,0.0,0.0,0.988128,0.045595,-0.084384,0.119907,0.0,0.0,0.0,0,0
2026-06-08 19:13:31.670,233415,L_Hip,0.1136,-0.0789,0.9914,0.37,-0.12,0.83,-13.71,42.89,-60.25,0.997284,-0.030122,-0.066713,-0.003845,0.0,0.0,0.0,0,0
2026-06-08 19:13:31.672,233265,R_Hip,-0.0228,-0.0042,0.9914,0.21,-1.22,1.53,-15.76,23.77,-27.5,0.990326,0.006958,-0.011567,-0.138066,0.0,0.0,0.0,0,0
2026-06-08 19:13:31.673,233397,L_Ankle,0.0521,0.0021,0.9803,-0.7,-0.4,-0.84,-24.86,18.86,-49.59,0.961943,0.026307,-0.033998,0.269814,0.0,0.0,0.0,0,0
2026-06-08 19:13:31.675,233275,R_Hip,-0.0154,0.0006,1.0049,0.19,-1.2,1.51,-15.76,23.04,-28.18,0.990326,0.006928,-0.011567,-0.138035,0.0,0.0,0.0,0,0
2026-06-08 19:13:31.676,233407,L_Ankle,0.0545,0.0139,0.9914,-0.7,-0.4,-0.85,-25.75,18.34,-50.8,0.961943,0.026337,-0.033998,0.269784,0.0,0.0,0.0,0,0
2026-06-08 19:13:31.679,233285,R_Hip,-0.0228,0.0054,1.003,0.18,-1.2,1.51,0.0,0.0,0.0,0.990326,0.006928,-0.011567,-0.138035,0.0,0.0,0.0,0,0
2026-06-08 19:13:31.679,233417,L_Ankle,0.0516,0.009,0.9904,-0.7,-0.38,-0.84,0.0,0.0,0.0,0.961943,0.026337,-0.033998,0.269784,0.0,0.0,0.0,0,0
2026-06-08 19:13:31.682,233295,R_Hip,-0.0214,-0.0057,1.0068,0.18,-1.21,1.51,-15.76,24.14,-28.18,0.990326,0.006897,-0.011567,-0.138035,0.0,0.0,0.0,0,0
2026-06-08 19:13:31.683,233427,L_Ankle,0.0565,0.0158,0.9986,-0.7,-0.38,-0.84,-25.52,16.75,-48.93,0.961943,0.026337,-0.033998,0.269784,0.0,0.0,0.0,0,0
2026-06-08 19:13:31.686,233405,L_Shank,0.0541,-0.016,0.9935,1.73,-1.11,-0.08,6.28,27.23,-36.65,0.997711,-0.000549,-0.046693,0.048311,0.0,0.0,0.0,0,0
2026-06-08 19:13:31.686,233289,R_Hip,-0.0327,0.0069,0.9986,0.16,-1.2,1.51,-16.85,23.77,-27.5,0.990326,0.006897,-0.011536,-0.138066,0.0,0.0,0.0,0,0
2026-06-08 19:13:31.689,233415,L_Shank,0.0458,-0.0077,0.9858,1.72,-1.1,-0.08,6.12,26.4,-37.73,0.997711,-0.00058,-0.046693,0.048311,0.0,0.0,0.0,0,0
2026-06-08 19:13:31.689,233290,R_Hip,-0.0288,0.004,1.0155,0.19,-1.22,1.51,-16.3,25.78,-26.99,0.990326,0.006867,-0.011567,-0.138035,0.0,0.0,0.0,0,0
2026-06-08 19:13:31.692,233425,L_Shank,0.0565,-0.0082,0.9854,1.72,-1.11,-0.08,4.71,27.05,-36.17,0.997711,-0.00058,-0.046693,0.048311,0.0,0.0,0.0,0,0
2026-06-08 19:13:31.692,233300,R_Hip,-0.0263,0.0128,0.9958,0.19,-1.2,1.51,0.0,0.0,0.0,0.990326,0.006897,-0.011536,-0.138066,0.0,0.0,0.0,0,0
2026-06-08 19:13:31.695,233435,L_Shank,0.059,-0.0033,0.9993,1.74,-1.11,-0.07,0.0,0.0,0.0,0.997711,-0.00058,-0.046724,0.048311,0.0,0.0,0.0,0,0
2026-06-08 19:13:31.695,233310,R_Hip,-0.0253,0.003,0.9905,0.18,-1.21,1.52,-14.48,25.05,-27.67,0.990326,0.006928,-0.011505,-0.138066,0.0,0.0,0.0,0,0
2026-06-08 19:13:31.698,233420,L_Ankle,0.058,0.0158,0.9923,-0.69,-0.41,-0.84,-25.56,18.16,-49.94,0.961943,0.026337,-0.033967,0.269814,0.0,0.0,0.0,0,0
2026-06-08 19:13:31.699,233291,R_Ankle,0.0297,-0.023,0.9947,0.89,-1.87,-0.25,-3.45,28.71,-29.75,0.988128,0.045595,-0.084353,0.119907,0.0,0.0,0.0,0,0
2026-06-08 19:13:31.701,233430,L_Ankle,0.0575,0.0119,0.9962,-0.7,-0.4,-0.85,-26.26,17.82,-50.64,0.961943,0.026337,-0.033967,0.269814,0.0,0.0,0.0,0,0
2026-06-08 19:13:31.702,233301,R_Ankle,0.0233,-0.0141,1.0038,0.9,-1.87,-0.25,-2.96,27.61,-31.12,0.988128,0.045595,-0.084353,0.119907,0.0,0.0,0.0,0,0
2026-06-08 19:13:31.704,233440,L_Ankle,0.0472,0.0134,0.9986,-0.71,-0.4,-0.84,0.0,0.0,0.0,0.961943,0.026307,-0.033967,0.269814,0.0,0.0,0.0,0,0
2026-06-08 19:13:31.705,233311,R_Ankle,0.0273,-0.0225,0.9909,0.89,-1.87,-0.25,-4.32,26.96,-30.2,0.988128,0.045595,-0.084353,0.119907,0.0,0.0,0.0,0,0
2026-06-08 19:13:31.708,233450,L_Ankle,0.0487,0.0031,0.9851,-0.7,-0.4,-0.84,-26.98,18.54,-50.99,0.961943,0.026307,-0.033937,0.269784,0.0,0.0,0.0,0,0
2026-06-08 19:13:31.709,233321,R_Ankle,0.0258,-0.02,0.9971,0.9,-1.88,-0.26,-2.1,28.41,-30.35,0.988128,0.045595,-0.084384,0.119907,0.0,0.0,0.0,0,0
2026-06-08 19:13:31.711,233442,L_Ankle,0.0536,0.0085,0.9813,-0.7,-0.4,-0.85,-26.42,18.71,-49.11,0.961943,0.026307,-0.033967,0.269784,0.0,0.0,0.0,0,0
2026-06-08 19:13:31.712,233311,R_Shank,0.0252,-1.1024,1.0133,-0.05,-0.89,-1.57,-9.21,18.69,-22.72,0.972411,0.028932,-0.022645,0.230262,0.0,0.0,0.0,0,0
2026-06-08 19:13:31.715,233452,L_Ankle,0.0467,0.0026,0.9846,-0.69,-0.38,-0.84,-25.19,17.81,-49.6,0.961943,0.026307,-0.033967,0.269784,0.0,0.0,0.0,0,0
2026-06-08 19:13:31.716,233321,R_Shank,0.0375,0.698,0.9989,-0.05,-0.88,-1.58,0.0,0.0,0.0,0.972411,0.028962,-0.022614,0.230262,0.0,0.0,0.0,0,0
2026-06-08 19:13:31.717,233462,L_Ankle,0.0487,0.0134,0.9726,-0.7,-0.39,-0.85,0.0,0.0,0.0,0.961943,0.026307,-0.033967,0.269784,0.0,0.0,0.0,0,0
2026-06-08 19:13:31.719,233331,R_Shank,0.0316,-2.3844,1.01,-0.05,-0.89,-1.58,-9.54,18.69,-23.02,0.972411,0.028962,-0.022645,0.230262,0.0,0.0,0.0,0,0
2026-06-08 19:13:31.721,233472,L_Ankle,0.0536,0.0041,0.9938,-0.7,-0.4,-0.86,-25.4,19.05,-50.45,0.961943,0.026276,-0.033967,0.269784,0.0,0.0,0.0,0,0
2026-06-08 19:13:31.722,233341,R_Shank,0.0326,1.728,1.0066,-0.07,-0.88,-1.58,-7.7,19.48,-23.49,0.972411,0.028932,-0.022645,0.230262,0.0,0.0,0.0,0,0
2026-06-08 19:13:31.724,233453,L_Hip,0.1077,-0.0848,0.9938,0.38,-0.12,0.81,-13.57,41.45,-60.4,0.997284,-0.030152,-0.066713,-0.003815,0.0,0.0,0.0,0,0
2026-06-08 19:13:31.725,233314,R_Hip,-0.0233,0.0069,0.9938,0.19,-1.21,1.52,-16.67,25.05,-26.99,0.990326,0.006897,-0.011505,-0.138066,0.0,0.0,0.0,0,0
2026-06-08 19:13:31.727,233463,L_Hip,0.1151,-0.0715,0.988,0.37,-0.12,0.81,-14.77,40.61,-59.94,0.997284,-0.030152,-0.066744,-0.003815,0.0,0.0,0.0,0,0
2026-06-08 19:13:31.728,233324,R_Hip,-0.0233,-0.0116,0.9982,0.19,-1.21,1.52,0.0,0.0,0.0,0.990326,0.006897,-0.011505,-0.138066,0.0,0.0,0.0,0,0
2026-06-08 19:13:31.730,233473,L_Hip,0.1136,-0.0798,0.9933,0.37,-0.1,0.82,-13.92,41.76,-59.23,0.997284,-0.030152,-0.066774,-0.003815,0.0,0.0,0.0,0,0
2026-06-08 19:13:31.732,233334,R_Hip,-0.0159,0.0049,1.0049,0.19,-1.2,1.52,-15.39,24.86,-26.82,0.990326,0.006897,-0.011505,-0.138035,0.0,0.0,0.0,0,0
2026-06-08 19:13:31.734,233483,L_Hip,0.1112,-0.0823,0.9875,0.37,-0.09,0.81,-13.53,42.42,-61.27,0.997284,-0.030152,-0.066805,-0.003815,0.0,0.0,0.0,0,0
2026-06-08 19:13:31.735,233344,R_Hip,-0.0233,-0.0018,1.0054,0.18,-1.2,1.51,0.0,0.0,0.0,0.990326,0.006897,-0.011505,-0.138035,0.0,0.0,0.0,0,0
2026-06-08 19:13:31.737,233454,L_Shank,0.0575,-0.0072,0.9878,1.74,-1.09,-0.07,6.82,27.42,-37.75,0.997711,-0.000549,-0.046724,0.048311,0.0,0.0,0.0,0,0
2026-06-08 19:13:31.739,233334,R_Shank,0.0375,-2.3844,0.9984,-0.04,-0.87,-1.58,-10.04,18.53,-23.47,0.972411,0.028932,-0.022614,0.230262,0.0,0.0,0.0,0,0
2026-06-08 19:13:31.740,233464,L_Shank,0.0536,-0.0136,0.9758,1.73,-1.1,-0.08,6.64,26.9,-37.58,0.997711,-0.000549,-0.046724,0.048311,0.0,0.0,0.0,0,0
2026-06-08 19:13:31.742,233344,R_Shank,0.0355,-3.1552,0.9999,-0.05,-0.87,-1.58,-8.48,17.01,-24.55,0.972411,0.028932,-0.022614,0.230262,0.0,0.0,0.0,0,0
2026-06-08 19:13:31.743,233474,L_Shank,0.0477,-0.0067,0.9887,1.73,-1.1,-0.08,6.63,25.53,-36.63,0.997711,-0.000549,-0.046724,0.048311,0.0,0.0,0.0,0,0
2026-06-08 19:13:31.745,233354,R_Shank,0.0345,-1.4844,1.0157,-0.06,-0.87,-1.58,0.0,0.0,0.0,0.972411,0.028901,-0.022614,0.230262,0.0,0.0,0.0,0,0
2026-06-08 19:13:31.747,233484,L_Shank,0.0521,0.0024,0.982,1.73,-1.09,-0.06,6.82,26.4,-37.73,0.997711,-0.000549,-0.046693,0.048311,0.0,0.0,0.0,0,0
2026-06-08 19:13:31.748,233364,R_Shank,0.033,-3.1552,1.0076,-0.06,-0.87,-1.58,-10.37,18.21,-23.16,0.972411,0.028901,-0.022614,0.230262,0.0,0.0,0.0,0,0
2026-06-08 19:13:31.750,233475,L_Hip,0.1073,-0.073,0.99,0.36,-0.12,0.83,-14.26,41.11,-59.51,0.997284,-0.030152,-0.066805,-0.003815,0.0,0.0,0.0,0,0
2026-06-08 19:13:31.751,233336,R_Ankle,0.0268,-0.0225,1.011,0.9,-1.87,-0.25,-2.61,28.24,-30.51,0.988128,0.045595,-0.084384,0.119907,0.0,0.0,0.0,0,0
2026-06-08 19:13:31.753,233485,L_Hip,0.1151,-0.0789,0.9909,0.38,-0.12,0.82,0.0,0.0,0.0,0.997284,-0.030183,-0.066805,-0.003784,0.0,0.0,0.0,0,0
2026-06-08 19:13:31.755,233346,R_Ankle,0.0273,-0.0116,1.0029,0.9,-1.87,-0.25,0.0,0.0,0.0,0.988128,0.045595,-0.084384,0.119907,0.0,0.0,0.0,0,0
2026-06-08 19:13:31.756,233495,L_Hip,0.1161,-0.0843,1.0011,0.36,-0.11,0.83,-14.24,41.43,-60.39,0.997284,-0.030152,-0.066805,-0.003784,0.0,0.0,0.0,0,0
2026-06-08 19:13:31.758,233356,R_Ankle,0.0268,-0.0106,1.0067,0.9,-1.86,-0.25,-3.64,29.2,-31.45,0.988128,0.045625,-0.084384,0.119907,0.0,0.0,0.0,0,0
2026-06-08 19:13:31.759,233505,L_Hip,0.1195,-0.0759,0.9958,0.37,-0.09,0.83,0.0,0.0,0.0,0.997284,-0.030152,-0.066805,-0.003784,0.0,0.0,0.0,0,0
2026-06-08 19:13:31.761,233366,R_Ankle,0.0307,-0.0166,0.9952,0.89,-1.87,-0.26,-2.27,28.57,-30.51,0.988128,0.045625,-0.084353,0.119907,0.0,0.0,0.0,0,0
2026-06-08 19:13:31.763,233480,L_Shank,0.0492,-0.0151,0.9878,1.72,-1.11,-0.08,5.4,28.07,-36.19,0.997711,-0.000549,-0.046724,0.048311,0.0,0.0,0.0,0,0
2026-06-08 19:13:31.764,233359,R_Ankle,0.0268,-0.0185,0.9981,0.89,-1.87,-0.25,-3.29,28.55,-30.21,0.988128,0.045625,-0.084353,0.119907,0.0,0.0,0.0,0,0
2026-06-08 19:13:31.765,233490,L_Shank,0.035,-0.0092,0.9873,1.73,-1.11,-0.08,0.0,0.0,0.0,0.997711,-0.000549,-0.046724,0.048311,0.0,0.0,0.0,0,0
2026-06-08 19:13:31.768,233369,R_Ankle,0.0268,-0.021,1.0144,0.89,-1.87,-0.26,-2.44,28.4,-30.35,0.988128,0.045625,-0.084384,0.119907,0.0,0.0,0.0,0,0
2026-06-08 19:13:31.769,233500,L_Shank,0.0453,-0.0136,0.9858,1.74,-1.09,-0.07,5.59,26.22,-37.25,0.997711,-0.000549,-0.046724,0.048311,0.0,0.0,0.0,0,0
2026-06-08 19:13:31.771,233379,R_Ankle,0.0297,-0.0161,1.0062,0.89,-1.86,-0.25,-2.44,28.73,-30.97,0.988128,0.045595,-0.084353,0.119907,0.0,0.0,0.0,0,0
2026-06-08 19:13:31.772,233510,L_Shank,0.0482,-0.0136,0.9743,1.73,-1.09,-0.06,6.29,27.24,-37.58,0.997711,-0.00058,-0.046724,0.048341,0.0,0.0,0.0,0,0
2026-06-08 19:13:31.775,233389,R_Ankle,0.0351,-0.0225,0.9962,0.9,-1.87,-0.25,-2.97,27.3,-31.73,0.988128,0.045625,-0.084384,0.119907,0.0,0.0,0.0,0,0
2026-06-08 19:13:31.775,233487,L_Ankle,0.0477,0.0119,0.9808,-0.7,-0.4,-0.86,-25.92,18.52,-50.29,0.961943,0.026246,-0.033967,0.269784,0.0,0.0,0.0,0,0
2026-06-08 19:13:31.778,233364,R_Hip,-0.0228,0.0054,1.0087,0.18,-1.21,1.51,-16.12,24.5,-25.79,0.990326,0.006867,-0.011505,-0.138035,0.0,0.0,0.0,0,0
2026-06-08 19:13:31.778,233497,L_Ankle,0.0521,0.0163,0.9789,-0.7,-0.4,-0.85,-25.89,17.82,-49.61,0.961943,0.026246,-0.033967,0.269784,0.0,0.0,0.0,0,0
2026-06-08 19:13:31.781,233374,R_Hip,-0.015,0.003,1.0121,0.17,-1.21,1.51,-16.12,23.77,-27.16,0.990326,0.006867,-0.011475,-0.138035,0.0,0.0,0.0,0,0
2026-06-08 19:13:31.782,233507,L_Ankle,0.0492,0.0144,0.9909,-0.71,-0.38,-0.83,-25.92,19.23,-49.61,0.961943,0.026246,-0.033967,0.269814,0.0,0.0,0.0,0,0
2026-06-08 19:13:31.783,233384,R_Hip,-0.0184,-0.0003,1.002,0.19,-1.21,1.52,0.0,0.0,0.0,0.990326,0.006897,-0.011475,-0.138035,0.0,0.0,0.0,0,0
2026-06-08 19:13:31.784,233517,L_Ankle,0.0428,0.0144,0.9966,-0.7,-0.4,-0.83,0.0,0.0,0.0,0.961943,0.026276,-0.033937,0.269814,0.0,0.0,0.0,0,0
2026-06-08 19:13:31.786,233394,R_Hip,-0.0263,0.0064,0.9972,0.19,-1.21,1.52,-16.85,24.14,-27.5,0.990326,0.006897,-0.011475,-0.138035,0.0,0.0,0.0,0,0
2026-06-08 19:13:31.787,233519,L_Hip,0.1092,-0.0784,0.9841,0.37,-0.1,0.8,-13.04,42.58,-60.55,0.997284,-0.030122,-0.066836,-0.003784,0.0,0.0,0.0,0,0
2026-06-08 19:13:31.790,233379,R_Shank,0.035,0.698,1.0023,-0.06,-0.88,-1.58,-8.53,18.68,-22.73,0.972411,0.028901,-0.022614,0.230262,0.0,0.0,0.0,0,0
2026-06-08 19:13:31.790,233529,L_Hip,0.1151,-0.0754,0.988,0.38,-0.11,0.83,-13.43,40.64,-59.67,0.997284,-0.030122,-0.066805,-0.003784,0.0,0.0,0.0,0,0
2026-06-08 19:13:31.793,233389,R_Shank,0.0267,-1.3548,0.9956,-0.06,-0.89,-1.59,0.0,0.0,0.0,0.972411,0.028901,-0.022614,0.230262,0.0,0.0,0.0,0,0
2026-06-08 19:13:31.794,233539,L_Hip,0.1146,-0.0744,0.9759,0.38,-0.1,0.81,-12.9,41.13,-60.12,0.997284,-0.030122,-0.066805,-0.003815,0.0,0.0,0.0,0,0
2026-06-08 19:13:31.796,233399,R_Shank,0.0316,2.4984,1.0066,-0.06,-0.88,-1.58,-9.56,20.01,-23.91,0.972411,0.028871,-0.022614,0.230262,0.0,0.0,0.0,0,0
2026-06-08 19:13:31.797,233549,L_Hip,0.1176,-0.0784,1.0035,0.38,-0.11,0.81,-14.03,42.57,-61.99,0.997284,-0.030122,-0.066836,-0.003815,0.0,0.0,0.0,0,0
2026-06-08 19:13:31.799,233409,R_Shank,0.0414,-1.4844,1.0109,-0.05,-0.88,-1.59,-8.17,18.0,-24.25,0.972411,0.028871,-0.022645,0.230293,0.0,0.0,0.0,0,0
2026-06-08 19:13:31.800,233532,L_Ankle,0.0379,0.0051,0.9899,-0.69,-0.39,-0.83,-24.88,18.86,-50.61,0.961943,0.026276,-0.033937,0.269814,0.0,0.0,0.0,0,0
2026-06-08 19:13:31.802,233401,R_Shank,0.038,0.1864,0.9984,-0.06,-0.89,-1.58,-8.83,17.35,-23.94,0.972411,0.028871,-0.022645,0.230293,0.0,0.0,0.0,0,0
2026-06-08 19:13:31.803,233542,L_Ankle,0.0521,0.009,0.9909,-0.7,-0.4,-0.85,-25.38,18.69,-49.43,0.961943,0.026276,-0.033937,0.269814,0.0,0.0,0.0,0,0
2026-06-08 19:13:31.806,233411,R_Shank,0.0286,-2.6436,1.0061,-0.06,-0.88,-1.6,0.0,0.0,0.0,0.972411,0.028871,-0.022645,0.230293,0.0,0.0,0.0,0,0
2026-06-08 19:13:31.806,233552,L_Ankle,0.056,0.0075,0.9894,-0.7,-0.4,-0.84,-23.65,18.66,-50.76,0.961943,0.026276,-0.033967,0.269814,0.0,0.0,0.0,0,0
2026-06-08 19:13:31.809,233562,L_Ankle,0.0462,0.0075,0.9971,-0.7,-0.4,-0.84,0.0,0.0,0.0,0.961943,0.026307,-0.033967,0.269814,0.0,0.0,0.0,0,0
2026-06-08 19:13:31.810,233421,R_Shank,0.0399,-1.7432,1.0032,-0.06,-0.88,-1.58,-9.35,17.85,-24.08,0.972411,0.028871,-0.022645,0.230293,0.0,0.0,0.0,0,0
2026-06-08 19:13:31.812,233542,L_Hip,0.1097,-0.0887,0.9895,0.38,-0.12,0.81,-13.2,42.74,-60.99,0.997284,-0.030122,-0.066836,-0.003784,0.0,0.0,0.0,0,0
2026-06-08 19:13:31.813,233431,R_Shank,0.033,1.728,1.0028,-0.06,-0.89,-1.58,-9.7,18.85,-24.37,0.972411,0.028901,-0.022675,0.230293,0.0,0.0,0.0,0,0
2026-06-08 19:13:31.815,233552,L_Hip,0.1092,-0.0818,0.9808,0.38,-0.1,0.8,0.0,0.0,0.0,0.997284,-0.030122,-0.066836,-0.003784,0.0,0.0,0.0,0,0
2026-06-08 19:13:31.816,233404,R_Ankle,0.0179,-0.02,0.9928,0.88,-1.86,-0.25,-3.62,28.55,-29.91,0.988128,0.045625,-0.084384,0.119907,0.0,0.0,0.0,0,0
2026-06-08 19:13:31.818,233414,R_Ankle,0.0312,-0.0121,1.0024,0.89,-1.87,-0.25,0.0,0.0,0.0,0.988128,0.045595,-0.084384,0.119907,0.0,0.0,0.0,0,0
2026-06-08 19:13:31.819,233562,L_Hip,0.1087,-0.0857,0.9904,0.38,-0.11,0.82,-14.55,42.72,-60.68,0.997284,-0.030152,-0.066836,-0.003784,0.0,0.0,0.0,0,0
2026-06-08 19:13:31.821,233424,R_Ankle,0.0243,-0.0106,1.0134,0.9,-1.87,-0.26,-2.28,27.93,-30.81,0.988128,0.045625,-0.084384,0.119877,0.0,0.0,0.0,0,0
2026-06-08 19:13:31.822,233572,L_Hip,0.1136,-0.0813,0.9919,0.38,-0.11,0.8,-12.71,42.59,-59.98,0.997284,-0.030152,-0.066836,-0.003784,0.0,0.0,0.0,0,0
2026-06-08 19:13:31.825,233434,R_Ankle,0.0273,-0.019,1.0182,0.9,-1.87,-0.25,-3.11,28.07,-29.43,0.988128,0.045625,-0.084384,0.119907,0.0,0.0,0.0,0,0
2026-06-08 19:13:31.825,233555,L_Shank,0.0458,-0.0038,0.9834,1.74,-1.1,-0.08,5.42,26.06,-37.72,0.997711,-0.000549,-0.046724,0.048341,0.0,0.0,0.0,0,0
2026-06-08 19:13:31.828,233565,L_Shank,0.0477,-0.0121,0.9806,1.74,-1.09,-0.07,0.0,0.0,0.0,0.997711,-0.000549,-0.046693,0.048341,0.0,0.0,0.0,0,0
2026-06-08 19:13:31.828,233413,R_Hip,-0.0179,-0.0081,1.0025,0.19,-1.2,1.51,-16.67,24.68,-26.99,0.990326,0.006897,-0.011505,-0.138035,0.0,0.0,0.0,0,0
2026-06-08 19:13:31.831,233575,L_Shank,0.0463,-0.0077,0.9993,1.74,-1.09,-0.07,7.51,27.74,-36.82,0.997711,-0.000549,-0.046693,0.048341,0.0,0.0,0.0,0,0
2026-06-08 19:13:31.831,233423,R_Hip,-0.0322,0.0079,1.0136,0.19,-1.22,1.51,-16.85,24.87,-27.16,0.990326,0.006897,-0.011505,-0.138035,0.0,0.0,0.0,0,0
2026-06-08 19:13:31.834,233433,R_Hip,-0.0263,-0.0008,0.9953,0.19,-1.22,1.53,0.0,0.0,0.0,0.990326,0.006867,-0.011505,-0.138035,0.0,0.0,0.0,0,0
2026-06-08 19:13:31.834,233585,L_Shank,0.0511,-0.0043,0.9921,1.73,-1.11,-0.07,5.25,28.27,-38.21,0.997711,-0.00058,-0.046693,0.048311,0.0,0.0,0.0,0,0
2026-06-08 19:13:31.837,233443,R_Hip,-0.0209,0.0035,1.0054,0.19,-1.22,1.51,-16.85,24.5,-26.82,0.990326,0.006867,-0.011505,-0.138035,0.0,0.0,0.0,0,0
2026-06-08 19:13:31.837,233578,L_Ankle,0.0413,0.0114,1.0101,-0.69,-0.4,-0.84,-24.52,18.14,-50.95,0.961943,0.026337,-0.033967,0.269784,0.0,0.0,0.0,0,0
2026-06-08 19:13:31.840,233588,L_Ankle,0.0619,0.007,0.9933,-0.69,-0.4,-0.85,-25.0,16.92,-49.43,0.961943,0.026307,-0.033967,0.269784,0.0,0.0,0.0,0,0
2026-06-08 19:13:31.842,233598,L_Ankle,0.0531,0.0129,0.9986,-0.69,-0.4,-0.86,-25.57,19.58,-49.26,0.961943,0.026276,-0.033937,0.269784,0.0,0.0,0.0,0,0
2026-06-08 19:13:31.844,233608,L_Ankle,0.0467,0.009,0.9928,-0.7,-0.4,-0.84,0.0,0.0,0.0,0.961943,0.026276,-0.033967,0.269784,0.0,0.0,0.0,0,0
2026-06-08 19:13:31.846,233449,R_Ankle,0.0228,-0.0101,1.0134,0.9,-1.87,-0.25,-2.78,27.44,-29.42,0.988128,0.045656,-0.084384,0.119907,0.0,0.0,0.0,0,0
2026-06-08 19:13:31.848,233580,L_Shank,0.0453,-0.017,0.994,1.74,-1.09,-0.07,5.94,26.9,-37.58,0.997711,-0.00058,-0.046693,0.048311,0.0,0.0,0.0,0,0
2026-06-08 19:13:31.849,233459,R_Ankle,0.0331,-0.0285,0.9943,0.89,-1.87,-0.27,0.0,0.0,0.0,0.988128,0.045656,-0.084384,0.119907,0.0,0.0,0.0,0,0
2026-06-08 19:13:31.851,233590,L_Shank,0.0531,-0.02,0.993,1.74,-1.09,-0.08,0.0,0.0,0.0,0.997711,-0.00058,-0.046693,0.048311,0.0,0.0,0.0,0,0
2026-06-08 19:13:31.852,233469,R_Ankle,0.0233,-0.0081,1.0139,0.89,-1.87,-0.25,-1.92,28.56,-29.58,0.988128,0.045625,-0.084384,0.119907,0.0,0.0,0.0,0,0
2026-06-08 19:13:31.854,233600,L_Shank,0.0482,-0.0097,0.9945,1.74,-1.09,-0.07,6.63,27.91,-36.35,0.997711,-0.00058,-0.046693,0.048311,0.0,0.0,0.0,0,0
2026-06-08 19:13:31.855,233479,R_Ankle,0.0331,-0.0116,0.9952,0.9,-1.87,-0.25,-2.94,28.87,-29.59,0.988128,0.045656,-0.084384,0.119907,0.0,0.0,0.0,0,0
2026-06-08 19:13:31.857,233610,L_Shank,0.0565,-0.0136,0.9777,1.74,-1.09,-0.07,6.46,27.41,-37.12,0.997711,-0.00058,-0.046693,0.048311,0.0,0.0,0.0,0,0
2026-06-08 19:13:31.859,233600,L_Ankle,0.0545,0.0109,0.9856,-0.7,-0.39,-0.83,-25.24,19.22,-50.96,0.961943,0.026276,-0.033937,0.269784,0.0,0.0,0.0,0,0
2026-06-08 19:13:31.861,233610,L_Ankle,0.0555,0.0026,0.9798,-0.69,-0.4,-0.83,-26.1,19.41,-50.12,0.961943,0.026307,-0.033937,0.269784,0.0,0.0,0.0,0,0
2026-06-08 19:13:31.863,233620,L_Ankle,0.0487,0.0061,0.9861,-0.7,-0.38,-0.83,-24.49,17.44,-49.59,0.961943,0.026307,-0.033937,0.269784,0.0,0.0,0.0,0,0
2026-06-08 19:13:31.865,233630,L_Ankle,0.0634,-0.0036,0.999,-0.7,-0.4,-0.84,-25.75,18.34,-50.8,0.961943,0.026337,-0.033937,0.269784,0.0,0.0,0.0,0,0
2026-06-08 19:13:31.867,233471,R_Ankle,0.0326,-0.0166,1.0019,0.89,-1.87,-0.25,-2.95,27.92,-30.2,0.988128,0.045656,-0.084414,0.119907,0.0,0.0,0.0,0,0
2026-06-08 19:13:31.869,233481,R_Ankle,0.0331,-0.0255,1.0115,0.89,-1.86,-0.25,0.0,0.0,0.0,0.988128,0.045656,-0.084445,0.119907,0.0,0.0,0.0,0,0
2026-06-08 19:13:31.872,233491,R_Ankle,0.0199,-0.0181,1.0177,0.89,-1.87,-0.25,-1.76,28.09,-30.65,0.988128,0.045656,-0.084445,0.119907,0.0,0.0,0.0,0,0
2026-06-08 19:13:31.874,233501,R_Ankle,0.0341,-0.0156,0.9962,0.89,-1.86,-0.25,-2.96,28.89,-31.44,0.988128,0.045656,-0.084445,0.119907,0.0,0.0,0.0,0,0
2026-06-08 19:13:31.886,233490,R_Hip,-0.0169,0.001,1.0049,0.21,-1.22,1.51,-16.49,24.14,-27.5,0.990326,0.006867,-0.011505,-0.138035,0.0,0.0,0.0,0,0
2026-06-08 19:13:31.889,233500,R_Hip,-0.0174,-0.0028,1.0073,0.18,-1.23,1.52,-13.75,23.95,-26.64,0.990326,0.006867,-0.011505,-0.138035,0.0,0.0,0.0,0,0
2026-06-08 19:13:31.890,233631,L_Shank,0.0521,-0.0097,0.9892,1.74,-1.09,-0.07,7.15,27.05,-36.19,0.997711,-0.00061,-0.046693,0.048311,0.0,0.0,0.0,0,0
2026-06-08 19:13:31.892,233510,R_Hip,-0.0223,0.0049,1.0025,0.19,-1.21,1.52,0.0,0.0,0.0,0.990326,0.006867,-0.011505,-0.138035,0.0,0.0,0.0,0,0
2026-06-08 19:13:31.893,233641,L_Shank,0.0507,-0.0033,0.9902,1.74,-1.09,-0.09,0.0,0.0,0.0,0.997711,-0.00058,-0.046693,0.048311,0.0,0.0,0.0,0,0
2026-06-08 19:13:31.895,233520,R_Hip,-0.0273,0.0108,0.9962,0.19,-1.19,1.53,-16.48,24.13,-26.48,0.990326,0.006867,-0.011536,-0.138035,0.0,0.0,0.0,0,0
2026-06-08 19:13:31.895,233651,L_Shank,0.0521,-0.0126,0.9921,1.73,-1.1,-0.08,6.11,26.38,-36.79,0.997711,-0.000549,-0.046663,0.048311,0.0,0.0,0.0,0,0
2026-06-08 19:13:31.898,233661,L_Shank,0.0497,-0.0063,0.9921,1.74,-1.09,-0.09,5.76,25.71,-37.09,0.997711,-0.00058,-0.046663,0.048341,0.0,0.0,0.0,0,0
2026-06-08 19:13:31.900,233632,L_Hip,0.1068,-0.0793,0.9992,0.39,-0.11,0.81,-13.54,43.06,-60.11,0.997284,-0.030152,-0.066805,-0.003784,0.0,0.0,0.0,0,0
2026-06-08 19:13:31.902,233642,L_Hip,0.1087,-0.0715,0.9943,0.38,-0.12,0.81,0.0,0.0,0.0,0.997284,-0.030152,-0.066805,-0.003784,0.0,0.0,0.0,0,0
2026-06-08 19:13:31.905,233652,L_Hip,0.1126,-0.0872,0.987,0.38,-0.12,0.82,-13.73,41.28,-61.12,0.997284,-0.030183,-0.066805,-0.003754,0.0,0.0,0.0,0,0
2026-06-08 19:13:31.907,233662,L_Hip,0.1185,-0.073,0.9929,0.38,-0.11,0.82,-13.56,42.09,-60.11,0.997284,-0.030183,-0.066805,-0.003754,0.0,0.0,0.0,0,0
2026-06-08 19:13:31.909,233645,L_Ankle,0.056,0.009,0.9962,-0.7,-0.4,-0.83,-26.44,18.71,-49.79,0.961943,0.026337,-0.033937,0.269784,0.0,0.0,0.0,0,0
2026-06-08 19:13:31.911,233515,R_Hip,-0.0223,-0.0013,0.9958,0.19,-1.22,1.51,-15.76,23.04,-26.81,0.990326,0.006897,-0.011536,-0.138035,0.0,0.0,0.0,0,0
2026-06-08 19:13:31.912,233655,L_Ankle,0.0462,0.0124,0.9966,-0.7,-0.38,-0.83,0.0,0.0,0.0,0.961943,0.026337,-0.033937,0.269784,0.0,0.0,0.0,0,0
2026-06-08 19:13:31.915,233525,R_Hip,-0.0233,-0.0013,1.0102,0.19,-1.22,1.51,-15.94,23.22,-26.64,0.990326,0.006897,-0.011536,-0.138005,0.0,0.0,0.0,0,0
2026-06-08 19:13:31.916,233665,L_Ankle,0.0536,0.0158,0.9861,-0.71,-0.39,-0.84,-24.88,20.28,-49.59,0.961943,0.026307,-0.033937,0.269784,0.0,0.0,0.0,0,0
2026-06-08 19:13:31.918,233535,R_Hip,-0.0238,0.0035,1.0006,0.18,-1.22,1.52,0.0,0.0,0.0,0.990326,0.006897,-0.011567,-0.138005,0.0,0.0,0.0,0,0
2026-06-08 19:13:31.919,233675,L_Ankle,0.0565,0.01,0.9976,-0.7,-0.39,-0.85,-25.43,20.11,-50.79,0.961943,0.026307,-0.033937,0.269784,0.0,0.0,0.0,0,0
2026-06-08 19:13:31.921,233545,R_Hip,-0.0214,0.0089,1.0039,0.19,-1.22,1.52,-16.85,24.14,-28.19,0.990326,0.006897,-0.011567,-0.138005,0.0,0.0,0.0,0,0
2026-06-08 19:13:31.923,233516,R_Ankle,0.0238,-0.0176,1.0077,0.9,-1.86,-0.25,-1.08,27.78,-30.33,0.988128,0.045625,-0.084445,0.119907,0.0,0.0,0.0,0,0
2026-06-08 19:13:31.925,233526,R_Ankle,0.0238,-0.0121,0.9981,0.9,-1.87,-0.25,0.0,0.0,0.0,0.988128,0.045625,-0.084414,0.119907,0.0,0.0,0.0,0,0
2026-06-08 19:13:31.927,233536,R_Ankle,0.0243,-0.0225,1.0096,0.9,-1.88,-0.25,-2.6,28.24,-29.89,0.988128,0.045656,-0.084384,0.119907,0.0,0.0,0.0,0,0
2026-06-08 19:13:31.929,233546,R_Ankle,0.0302,-0.0141,1.0038,0.89,-1.87,-0.25,-2.63,27.94,-32.05,0.988128,0.045656,-0.084384,0.119907,0.0,0.0,0.0,0,0
2026-06-08 19:13:31.933,233537,R_Shank,0.0355,-1.6136,1.0109,-0.05,-0.89,-1.58,-8.35,18.5,-23.49,0.972411,0.028901,-0.022645,0.230293,0.0,0.0,0.0,0,0
2026-06-08 19:13:31.936,233547,R_Shank,0.0301,-3.1552,1.0176,-0.03,-0.9,-1.57,0.0,0.0,0.0,0.972411,0.028901,-0.022675,0.230293,0.0,0.0,0.0,0,0
2026-06-08 19:13:31.937,233678,L_Hip,0.1122,-0.0784,0.9958,0.39,-0.11,0.81,-12.7,41.63,-61.72,0.997284,-0.030213,-0.066836,-0.003754,0.0,0.0,0.0,0,0
2026-06-08 19:13:31.939,233557,R_Shank,0.0384,-3.1552,1.0008,-0.05,-0.87,-1.58,-9.88,18.37,-22.72,0.972411,0.028901,-0.022675,0.230293,0.0,0.0,0.0,0,0
2026-06-08 19:13:31.939,233688,L_Hip,0.1141,-0.0764,0.9914,0.38,-0.1,0.81,0.0,0.0,0.0,0.997284,-0.030183,-0.066836,-0.003754,0.0,0.0,0.0,0,0
2026-06-08 19:13:31.942,233567,R_Shank,0.0316,-0.7136,1.0018,-0.06,-0.89,-1.58,-9.38,19.84,-24.07,0.972411,0.028901,-0.022675,0.230293,0.0,0.0,0.0,0,0
2026-06-08 19:13:31.943,233698,L_Hip,0.1126,-0.0744,0.9856,0.38,-0.11,0.82,-13.75,41.28,-59.67,0.997284,-0.030183,-0.066836,-0.003754,0.0,0.0,0.0,0,0
2026-06-08 19:13:31.945,233539,R_Hip,-0.0268,0.0001,1.0001,0.16,-1.21,1.51,-15.76,23.04,-26.47,0.990326,0.006897,-0.011536,-0.138005,0.0,0.0,0.0,0,0
2026-06-08 19:13:31.946,233708,L_Hip,0.1112,-0.073,1.0021,0.38,-0.12,0.8,-13.23,41.13,-60.69,0.997284,-0.030152,-0.066805,-0.003754,0.0,0.0,0.0,0,0
2026-06-08 19:13:31.948,233549,R_Hip,-0.0238,0.0059,1.0035,0.18,-1.21,1.5,-16.12,24.13,-25.79,0.990326,0.006867,-0.011536,-0.138005,0.0,0.0,0.0,0,0
2026-06-08 19:13:31.949,233680,L_Shank,0.0477,-0.0082,0.9998,1.75,-1.1,-0.07,6.8,27.05,-36.19,0.997711,-0.00058,-0.046632,0.048341,0.0,0.0,0.0,0,0
2026-06-08 19:13:31.951,233559,R_Hip,-0.0278,0.0059,1.0121,0.19,-1.21,1.51,0.0,0.0,0.0,0.990326,0.006867,-0.011567,-0.138035,0.0,0.0,0.0,0,0
2026-06-08 19:13:31.952,233690,L_Shank,0.0482,-0.0077,0.9902,1.75,-1.09,-0.08,6.11,27.75,-37.12,0.997711,-0.00058,-0.046663,0.048341,0.0,0.0,0.0,0,0
2026-06-08 19:13:31.953,233569,R_Hip,-0.0322,0.0113,0.9972,0.19,-1.21,1.51,-15.76,26.69,-26.82,0.990326,0.006897,-0.011536,-0.138035,0.0,0.0,0.0,0,0
