python_time,esp32_hw_time,sensor_name,ax,ay,az,gx,gy,gz,mx,my,mz,q0,q1,q2,q3,quat_roll,quat_pitch,quat_yaw,is_paused_flag,t_pose_flag
2026-06-16 15:45:07.830,721142,L_Shank,0.0086,-0.0219,0.9902,1.76,-1.19,-0.19,-4.14,14.66,-24.09,0.988311,-0.004822,-0.025605,0.150121,0.0,0.0,0.0,0,0
2026-06-16 15:45:07.831,720997,R_Shank,0.035,0.0572,1.0148,-0.09,-1.45,-8.41,0.0,0.0,0.0,0.928892,0.035066,-0.020753,0.368053,0.0,0.0,0.0,0,0
2026-06-16 15:45:07.833,721017,R_Shank,0.0463,1.728,1.0095,-0.09,-1.48,-8.42,-17.44,25.8,-21.98,0.928892,0.035066,-0.020753,0.368053,0.0,0.0,0.0,0,0
2026-06-16 15:45:07.835,720987,R_Hip,0.0451,0.0054,1.0035,0.26,-1.57,1.77,-19.41,26.71,-31.28,0.931364,-0.005066,-0.042238,-0.361553,0.0,0.0,0.0,0,0
2026-06-16 15:45:07.837,721007,R_Hip,0.0505,0.004,1.002,0.27,-1.57,1.78,0.0,0.0,0.0,0.931364,-0.005066,-0.042238,-0.361553,0.0,0.0,0.0,0,0
2026-06-16 15:45:07.839,721027,R_Hip,0.0407,0.001,0.9722,0.25,-1.58,1.79,-18.5,26.89,-31.79,0.931364,-0.005066,-0.042238,-0.361522,0.0,0.0,0.0,0,0
2026-06-16 15:45:07.841,721047,R_Hip,0.0436,0.0142,0.9789,0.28,-1.56,1.77,-19.42,28.54,-32.31,0.931364,-0.005097,-0.042238,-0.361522,0.0,0.0,0.0,0,0
2026-06-16 15:45:07.844,720997,R_Ankle,0.0091,-0.0195,0.9866,0.76,-1.72,-0.48,-20.59,30.58,-25.49,0.219398,0.088992,0.019593,0.971343,0.0,0.0,0.0,0,0
2026-06-16 15:45:07.845,721136,L_Shank,0.0072,-0.0219,0.9892,1.77,-1.19,-0.2,-4.84,15.0,-23.78,0.988311,-0.004852,-0.025605,0.150151,0.0,0.0,0.0,0,0
2026-06-16 15:45:07.847,721017,R_Ankle,0.0189,-0.0052,0.9976,0.76,-1.73,-0.48,0.0,0.0,0.0,0.219398,0.088992,0.019562,0.971343,0.0,0.0,0.0,0,0
2026-06-16 15:45:07.848,721156,L_Shank,0.0101,-0.017,0.994,1.74,-1.17,-0.2,0.0,0.0,0.0,0.988311,-0.004852,-0.025605,0.150151,0.0,0.0,0.0,0,0
2026-06-16 15:45:07.850,721037,R_Ankle,0.0248,-0.0116,1.0077,0.76,-1.74,-0.49,-20.58,31.21,-24.88,0.219398,0.089022,0.019562,0.971343,0.0,0.0,0.0,0,0
2026-06-16 15:45:07.850,721137,L_Shank,0.0013,-0.02,0.9863,1.76,-1.17,-0.2,-5.54,16.01,-23.16,0.988311,-0.004852,-0.025605,0.150151,0.0,0.0,0.0,0,0
2026-06-16 15:45:07.854,721157,L_Shank,0.0067,-0.0214,0.9801,1.75,-1.17,-0.2,-5.87,15.35,-25.02,0.988311,-0.004883,-0.025605,0.150151,0.0,0.0,0.0,0,0
2026-06-16 15:45:07.854,721057,R_Ankle,0.0233,-0.0176,1.0105,0.76,-1.72,-0.51,-20.58,31.53,-25.19,0.219398,0.089053,0.019562,0.971343,0.0,0.0,0.0,0,0
2026-06-16 15:45:07.857,720999,R_Shank,0.0443,2.8804,1.0018,-0.11,-1.47,-8.42,-16.41,23.8,-20.49,0.928892,0.035066,-0.020783,0.368053,0.0,0.0,0.0,0,0
2026-06-16 15:45:07.860,721019,R_Shank,0.0424,3.01,1.0119,-0.08,-1.47,-8.42,-17.59,24.31,-21.53,0.928892,0.035066,-0.020814,0.368053,0.0,0.0,0.0,0,0
2026-06-16 15:45:07.862,721039,R_Shank,0.0429,0.8276,1.0013,-0.09,-1.47,-8.41,0.0,0.0,0.0,0.928892,0.035066,-0.020814,0.368053,0.0,0.0,0.0,0,0
2026-06-16 15:45:07.865,721059,R_Shank,0.0414,0.698,1.0023,-0.09,-1.46,-8.41,-15.95,26.27,-20.63,0.928892,0.035066,-0.020814,0.368053,0.0,0.0,0.0,0,0
2026-06-16 15:45:07.868,721012,R_Hip,0.0505,0.0064,0.9996,0.27,-1.57,1.8,-20.87,27.44,-31.63,0.931364,-0.005066,-0.042238,-0.361522,0.0,0.0,0.0,0,0
2026-06-16 15:45:07.868,721160,L_Hip,0.1259,-0.0749,0.9851,-4.16,4.5,2.98,-18.16,17.53,-26.1,0.955138,-0.04593,-0.060244,-0.286264,0.0,0.0,0.0,0,0
2026-06-16 15:45:07.871,721032,R_Hip,0.0575,0.0001,0.9881,0.27,-1.57,1.77,0.0,0.0,0.0,0.931364,-0.005097,-0.042238,-0.361522,0.0,0.0,0.0,0,0
2026-06-16 15:45:07.871,721180,L_Hip,0.1161,-0.07,0.9938,-4.16,4.51,2.98,-16.96,19.0,-25.11,0.955138,-0.04593,-0.060244,-0.286264,0.0,0.0,0.0,0,0
2026-06-16 15:45:07.873,721052,R_Hip,0.0431,0.0059,0.9982,0.26,-1.58,1.78,-19.05,27.08,-32.99,0.931364,-0.005097,-0.042238,-0.361522,0.0,0.0,0.0,0,0
2026-06-16 15:45:07.873,721200,L_Hip,0.1126,-0.0764,0.9832,-4.17,4.51,2.97,0.0,0.0,0.0,0.955138,-0.04593,-0.060213,-0.286264,0.0,0.0,0.0,0,0
2026-06-16 15:45:07.875,721072,R_Hip,0.0466,0.0108,1.0073,0.28,-1.56,1.8,-17.23,27.07,-31.27,0.931364,-0.005127,-0.042238,-0.361522,0.0,0.0,0.0,0,0
2026-06-16 15:45:07.875,721220,L_Hip,0.1239,-0.0735,0.9856,-4.16,4.5,2.97,-19.54,16.85,-24.63,0.955138,-0.045961,-0.060213,-0.286264,0.0,0.0,0.0,0,0
2026-06-16 15:45:07.877,721161,L_Shank,0.0076,-0.0204,0.9916,1.76,-1.19,-0.19,-4.48,14.34,-25.02,0.988311,-0.004883,-0.025605,0.150151,0.0,0.0,0.0,0,0
2026-06-16 15:45:07.878,721181,L_Shank,-0.0001,-0.0204,0.9964,1.76,-1.17,-0.19,0.0,0.0,0.0,0.988311,-0.004883,-0.025605,0.150151,0.0,0.0,0.0,0,0
2026-06-16 15:45:07.880,721037,R_Hip,0.0313,0.0103,0.9919,0.25,-1.57,1.77,-18.68,26.34,-31.28,0.931364,-0.005097,-0.042238,-0.361522,0.0,0.0,0.0,0,0
2026-06-16 15:45:07.881,721201,L_Shank,0.0072,-0.0165,0.9983,1.77,-1.18,-0.19,-4.49,15.34,-24.1,0.988311,-0.004883,-0.025605,0.150121,0.0,0.0,0.0,0,0
2026-06-16 15:45:07.883,721057,R_Hip,0.0461,-0.0042,0.9991,0.26,-1.57,1.77,0.0,0.0,0.0,0.931364,-0.005097,-0.042238,-0.361492,0.0,0.0,0.0,0,0
2026-06-16 15:45:07.884,721221,L_Shank,0.0052,-0.0234,0.9868,1.76,-1.17,-0.2,-3.27,13.81,-23.62,0.988311,-0.004883,-0.025636,0.150121,0.0,0.0,0.0,0,0
2026-06-16 15:45:07.886,721077,R_Hip,0.0486,0.0089,0.9943,0.25,-1.57,1.79,-18.14,27.62,-31.11,0.931364,-0.005066,-0.042207,-0.361522,0.0,0.0,0.0,0,0
2026-06-16 15:45:07.887,721171,L_Ankle,0.1305,0.0114,0.9875,5.4,-0.82,-10.29,-39.44,-1.41,-41.42,0.951415,0.042116,-0.067049,0.297525,0.0,0.0,0.0,0,0
2026-06-16 15:45:07.889,721097,R_Hip,0.0451,0.0049,0.9885,0.26,-1.55,1.77,-19.6,26.89,-31.11,0.931394,-0.005097,-0.042207,-0.361492,0.0,0.0,0.0,0,0
2026-06-16 15:45:07.890,721191,L_Ankle,0.133,0.0197,0.9861,5.41,-0.83,-10.29,-38.06,-1.44,-42.76,0.951415,0.042085,-0.067049,0.297525,0.0,0.0,0.0,0,0
2026-06-16 15:45:07.891,721042,R_Ankle,0.0116,-0.0062,0.9981,0.75,-1.7,-0.48,-20.41,31.37,-24.72,0.219398,0.089084,0.019532,0.971343,0.0,0.0,0.0,0,0
2026-06-16 15:45:07.892,721211,L_Ankle,0.1325,0.0168,0.9918,5.41,-0.83,-10.29,-37.35,-1.09,-41.72,0.951384,0.042085,-0.067049,0.297555,0.0,0.0,0.0,0,0
2026-06-16 15:45:07.895,721062,R_Ankle,0.0145,-0.0072,0.9933,0.76,-1.72,-0.49,0.0,0.0,0.0,0.219398,0.089084,0.019532,0.971343,0.0,0.0,0.0,0,0
2026-06-16 15:45:07.896,721231,L_Ankle,0.1207,0.0202,0.9856,5.41,-0.83,-10.3,-37.91,-0.56,-43.26,0.951384,0.042116,-0.067049,0.297555,0.0,0.0,0.0,0,0
2026-06-16 15:45:07.898,721082,R_Ankle,0.016,-0.0136,1.0115,0.77,-1.72,-0.49,-20.09,30.12,-26.25,0.219398,0.089053,0.019562,0.971343,0.0,0.0,0.0,0,0
2026-06-16 15:45:07.900,721181,L_Hip,0.1293,-0.0666,0.988,-4.16,4.5,2.97,-18.62,19.61,-25.96,0.955138,-0.045961,-0.060244,-0.286264,0.0,0.0,0.0,0,0
2026-06-16 15:45:07.903,721102,R_Ankle,0.014,-0.0126,1.0129,0.77,-1.72,-0.48,-20.1,31.41,-27.8,0.219367,0.089053,0.019532,0.971343,0.0,0.0,0.0,0,0
2026-06-16 15:45:07.905,721201,L_Hip,0.1249,-0.07,0.9866,-4.16,4.51,2.97,-18.69,17.67,-24.21,0.955138,-0.045961,-0.060244,-0.286264,0.0,0.0,0.0,0,0
2026-06-16 15:45:07.908,721044,R_Shank,0.038,-1.232,1.0167,-0.09,-1.47,-8.41,-18.14,26.48,-21.36,0.928892,0.035066,-0.020814,0.368053,0.0,0.0,0.0,0,0
2026-06-16 15:45:07.910,721221,L_Hip,0.1205,-0.0681,0.9987,-4.16,4.51,2.96,-19.33,18.31,-25.36,0.955138,-0.045961,-0.060244,-0.286264,0.0,0.0,0.0,0,0
2026-06-16 15:45:07.911,721064,R_Shank,0.0316,1.5984,1.0037,-0.07,-1.47,-8.42,-16.42,24.47,-20.49,0.928892,0.035096,-0.020783,0.368053,0.0,0.0,0.0,0,0
2026-06-16 15:45:07.913,721241,L_Hip,0.1205,-0.0676,0.9943,-4.16,4.49,2.96,0.0,0.0,0.0,0.955138,-0.04593,-0.060244,-0.286264,0.0,0.0,0.0,0,0
2026-06-16 15:45:07.915,721084,R_Shank,0.0453,-2.3844,1.0176,-0.07,-1.48,-8.42,0.0,0.0,0.0,0.928892,0.035066,-0.020783,0.368053,0.0,0.0,0.0,0,0
2026-06-16 15:45:07.917,721186,L_Shank,0.0042,-0.0229,0.9868,1.76,-1.17,-0.2,-5.89,13.98,-23.76,0.988311,-0.004883,-0.025605,0.150151,0.0,0.0,0.0,0,0
2026-06-16 15:45:07.919,721104,R_Shank,0.0443,0.1864,1.0172,-0.09,-1.46,-8.42,-16.27,25.29,-20.33,0.928892,0.035066,-0.020783,0.368053,0.0,0.0,0.0,0,0
2026-06-16 15:45:07.920,721206,L_Shank,0.0033,-0.0165,0.9801,1.76,-1.18,-0.2,0.0,0.0,0.0,0.988311,-0.004852,-0.025605,0.150151,0.0,0.0,0.0,0,0
2026-06-16 15:45:07.923,721062,R_Hip,0.0382,0.004,1.0083,0.27,-1.58,1.77,-18.87,26.16,-33.16,0.931394,-0.005097,-0.042207,-0.361492,0.0,0.0,0.0,0,0
2026-06-16 15:45:07.923,721226,L_Shank,0.0003,-0.0214,0.9868,1.76,-1.19,-0.19,-5.19,15.34,-23.78,0.988311,-0.004883,-0.025605,0.150151,0.0,0.0,0.0,0,0
2026-06-16 15:45:07.925,721246,L_Shank,-0.0006,-0.0185,0.9873,1.77,-1.18,-0.2,-4.31,13.82,-24.24,0.988311,-0.004883,-0.025605,0.150151,0.0,0.0,0.0,0,0
2026-06-16 15:45:07.926,721082,R_Hip,0.053,0.0069,1.0073,0.25,-1.58,1.77,0.0,0.0,0.0,0.931394,-0.005066,-0.042177,-0.361492,0.0,0.0,0.0,0,0
2026-06-16 15:45:07.928,721102,R_Hip,0.0471,0.0093,0.9861,0.25,-1.57,1.78,-18.32,27.07,-31.28,0.931394,-0.005066,-0.042146,-0.361492,0.0,0.0,0.0,0,0
2026-06-16 15:45:07.929,721194,L_Ankle,0.129,0.0144,0.987,5.41,-0.83,-10.3,-37.86,-2.33,-42.25,0.951384,0.042116,-0.067049,0.297555,0.0,0.0,0.0,0,0
2026-06-16 15:45:07.931,721122,R_Hip,0.0427,0.0118,0.9905,0.26,-1.58,1.78,-19.6,27.26,-32.48,0.931394,-0.005066,-0.042177,-0.361492,0.0,0.0,0.0,0,0
2026-06-16 15:45:07.932,721214,L_Ankle,0.1251,0.0217,0.9808,5.43,-0.83,-10.29,-38.41,-1.43,-42.76,0.951384,0.042116,-0.067049,0.297555,0.0,0.0,0.0,0,0
2026-06-16 15:45:07.934,721089,R_Shank,0.0429,-2.514,1.0128,-0.08,-1.46,-8.42,-17.1,25.46,-21.68,0.928892,0.035035,-0.020783,0.368053,0.0,0.0,0.0,0,0
2026-06-16 15:45:07.934,721234,L_Ankle,0.129,0.0183,0.9885,5.42,-0.84,-10.28,-38.77,-1.78,-43.45,0.951384,0.042116,-0.067049,0.297555,0.0,0.0,0.0,0,0
2026-06-16 15:45:07.936,721254,L_Ankle,0.1281,0.0192,0.9923,5.41,-0.83,-10.3,-39.13,-0.71,-43.12,0.951384,0.042116,-0.067019,0.297555,0.0,0.0,0.0,0,0
2026-06-16 15:45:07.936,721109,R_Shank,0.0345,3.1396,1.0066,-0.09,-1.47,-8.42,-16.58,24.3,-21.24,0.928892,0.035066,-0.020783,0.368084,0.0,0.0,0.0,0,0
2026-06-16 15:45:07.938,721129,R_Shank,0.0345,1.3392,1.0018,-0.09,-1.46,-8.41,0.0,0.0,0.0,0.928892,0.035035,-0.020814,0.368084,0.0,0.0,0.0,0,0
2026-06-16 15:45:07.938,721204,L_Hip,0.1176,-0.0656,0.9837,-4.16,4.5,2.96,-18.65,18.32,-25.66,0.955138,-0.04593,-0.060244,-0.286264,0.0,0.0,0.0,0,0
2026-06-16 15:45:07.940,721224,L_Hip,0.1156,-0.071,0.9764,-4.16,4.51,2.97,-17.62,18.99,-26.26,0.955138,-0.045961,-0.060274,-0.286264,0.0,0.0,0.0,0,0
2026-06-16 15:45:07.941,721149,R_Shank,0.0409,-1.7432,1.0061,-0.09,-1.46,-8.42,-16.59,24.3,-20.34,0.928892,0.035035,-0.020783,0.368084,0.0,0.0,0.0,0,0
2026-06-16 15:45:07.942,721244,L_Hip,0.1176,-0.0641,1.0021,-4.16,4.51,2.96,-17.97,18.98,-25.68,0.955138,-0.045961,-0.060274,-0.286264,0.0,0.0,0.0,0,0
2026-06-16 15:45:07.944,721264,L_Hip,0.1229,-0.0739,0.9861,-4.16,4.51,2.97,-19.51,17.82,-25.21,0.955138,-0.045991,-0.060244,-0.286233,0.0,0.0,0.0,0,0
2026-06-16 15:45:07.946,721236,L_Shank,0.0101,-0.0195,0.9868,1.77,-1.19,-0.19,-4.66,13.82,-24.23,0.988311,-0.004883,-0.025605,0.150121,0.0,0.0,0.0,0,0
2026-06-16 15:45:07.947,721256,L_Shank,0.0028,-0.0146,0.9983,1.76,-1.19,-0.19,0.0,0.0,0.0,0.988311,-0.004883,-0.025605,0.150151,0.0,0.0,0.0,0,0
2026-06-16 15:45:07.949,721276,L_Shank,-0.003,-0.018,0.9892,1.75,-1.19,-0.19,-4.84,14.99,-23.47,0.988311,-0.004883,-0.025575,0.150151,0.0,0.0,0.0,0,0
2026-06-16 15:45:07.950,721296,L_Shank,0.0111,-0.0136,0.9676,1.75,-1.18,-0.19,-5.54,14.66,-23.77,0.988311,-0.004852,-0.025544,0.150121,0.0,0.0,0.0,0,0
2026-06-16 15:45:07.952,721239,L_Ankle,0.1364,0.0207,0.9899,5.41,-0.83,-10.29,-39.12,-2.13,-43.8,0.951384,0.042085,-0.067049,0.297586,0.0,0.0,0.0,0,0
2026-06-16 15:45:07.953,721259,L_Ankle,0.1339,0.0222,0.9808,5.4,-0.83,-10.29,0.0,0.0,0.0,0.951384,0.042085,-0.067049,0.297586,0.0,0.0,0.0,0,0
2026-06-16 15:45:07.955,721279,L_Ankle,0.1178,0.0173,0.9846,5.41,-0.82,-10.3,-39.13,0.0,-42.43,0.951384,0.042116,-0.067049,0.297586,0.0,0.0,0.0,0,0
2026-06-16 15:45:07.957,721299,L_Ankle,0.1232,0.0168,1.001,5.41,-0.82,-10.29,-37.87,-1.62,-42.25,0.951384,0.042116,-0.067049,0.297586,0.0,0.0,0.0,0,0
2026-06-16 15:45:07.958,721249,L_Hip,0.119,-0.0685,0.9861,-4.16,4.5,2.96,-18.15,18.17,-25.52,0.955138,-0.045991,-0.060244,-0.286233,0.0,0.0,0.0,0,0
2026-06-16 15:45:07.960,721269,L_Hip,0.1205,-0.0735,0.9837,-4.16,4.5,2.96,0.0,0.0,0.0,0.955138,-0.045991,-0.060274,-0.286264,0.0,0.0,0.0,0,0
2026-06-16 15:45:07.962,721289,L_Hip,0.1244,-0.0705,0.99,-4.16,4.51,2.96,-16.63,19.0,-24.53,0.955138,-0.045991,-0.060274,-0.286233,0.0,0.0,0.0,0,0
2026-06-16 15:45:07.964,721309,L_Hip,0.122,-0.0823,0.9793,-4.16,4.5,2.96,-18.83,18.16,-25.51,0.955138,-0.045991,-0.060305,-0.286264,0.0,0.0,0.0,0,0
2026-06-16 15:45:07.978,721134,R_Shank,0.0355,1.3392,0.9989,-0.1,-1.46,-8.43,-17.28,26.61,-23.03,0.928892,0.035066,-0.020783,0.368084,0.0,0.0,0.0,0,0
2026-06-16 15:45:07.979,721154,R_Shank,0.036,3.1396,1.0109,-0.1,-1.48,-8.41,0.0,0.0,0.0,0.928892,0.035035,-0.020753,0.368084,0.0,0.0,0.0,0,0
2026-06-16 15:45:07.981,721174,R_Shank,0.035,-0.0724,1.0176,-0.09,-1.45,-8.41,-16.79,26.13,-20.17,0.928892,0.035035,-0.020753,0.368084,0.0,0.0,0.0,0,0
2026-06-16 15:45:07.982,721194,R_Shank,0.0448,-2.7732,1.0181,-0.09,-1.47,-8.42,-15.93,26.26,-22.14,0.928892,0.035035,-0.020753,0.368084,0.0,0.0,0.0,0,0
2026-06-16 15:45:07.984,721137,R_Hip,0.0486,0.0045,0.9909,0.25,-1.57,1.78,-18.14,24.7,-33.15,0.931394,-0.005066,-0.042146,-0.361492,0.0,0.0,0.0,0,0
2026-06-16 15:45:07.985,721157,R_Hip,0.0451,0.0089,0.9837,0.27,-1.57,1.77,0.0,0.0,0.0,0.931394,-0.005066,-0.042116,-0.361492,0.0,0.0,0.0,0,0
2026-06-16 15:45:07.987,721177,R_Hip,0.0456,0.0074,0.9823,0.26,-1.57,1.8,-19.05,27.44,-32.65,0.931394,-0.005066,-0.042116,-0.361492,0.0,0.0,0.0,0,0
2026-06-16 15:45:07.988,721197,R_Hip,0.0491,0.0035,0.9905,0.26,-1.58,1.77,-18.69,26.34,-32.64,0.931394,-0.005066,-0.042116,-0.361461,0.0,0.0,0.0,0,0
2026-06-16 15:45:07.991,721284,L_Ankle,0.1339,0.0217,0.9856,5.41,-0.84,-10.29,-38.76,-1.07,-42.43,0.951384,0.042116,-0.067019,0.297617,0.0,0.0,0.0,0,0
2026-06-16 15:45:07.993,721304,L_Ankle,0.129,0.0178,0.9899,5.41,-0.83,-10.3,0.0,0.0,0.0,0.951384,0.042116,-0.067019,0.297617,0.0,0.0,0.0,0,0
2026-06-16 15:45:07.994,721324,L_Ankle,0.1315,0.0139,0.9904,5.42,-0.83,-10.29,-38.95,-1.96,-44.31,0.951384,0.042116,-0.067019,0.297617,0.0,0.0,0.0,0,0
2026-06-16 15:45:07.996,721344,L_Ankle,0.1305,0.009,0.9827,5.41,-0.82,-10.29,-37.69,-1.44,-41.73,0.951384,0.042116,-0.067049,0.297617,0.0,0.0,0.0,0,0
2026-06-16 15:45:07.998,721285,L_Shank,0.0067,-0.0224,0.993,1.75,-1.19,-0.2,-4.13,15.68,-24.42,0.988311,-0.004852,-0.025575,0.150121,0.0,0.0,0.0,0,0
2026-06-16 15:45:07.999,721155,R_Ankle,0.0204,-0.0141,1.0077,0.77,-1.72,-0.48,-20.25,30.27,-25.48,0.219367,0.089084,0.019562,0.971343,0.0,0.0,0.0,0,0
2026-06-16 15:45:08.000,721305,L_Shank,0.0028,-0.017,0.9906,1.77,-1.18,-0.19,0.0,0.0,0.0,0.988311,-0.004852,-0.025575,0.150121,0.0,0.0,0.0,0,0
2026-06-16 15:45:08.001,721175,R_Ankle,0.0101,-0.0086,1.0038,0.78,-1.71,-0.48,-20.75,31.05,-25.03,0.219367,0.089084,0.019532,0.971343,0.0,0.0,0.0,0,0
2026-06-16 15:45:08.002,721325,L_Shank,0.0086,-0.0209,0.9758,1.76,-1.18,-0.19,-5.71,15.17,-23.93,0.988311,-0.004822,-0.025605,0.150151,0.0,0.0,0.0,0,0
2026-06-16 15:45:08.003,721195,R_Ankle,0.0135,-0.0161,1.0139,0.77,-1.73,-0.49,0.0,0.0,0.0,0.219367,0.089084,0.019562,0.971343,0.0,0.0,0.0,0,0
2026-06-16 15:45:08.004,721345,L_Shank,-0.0025,-0.0141,0.9844,1.74,-1.17,-0.2,-3.26,13.82,-24.56,0.988311,-0.004822,-0.025605,0.150121,0.0,0.0,0.0,0,0
2026-06-16 15:45:08.005,721215,R_Ankle,0.0224,-0.0156,1.024,0.77,-1.73,-0.48,-20.43,30.76,-26.87,0.219367,0.089084,0.019532,0.971343,0.0,0.0,0.0,0,0
2026-06-16 15:45:08.007,721157,R_Shank,0.036,-1.3612,0.9922,-0.08,-1.46,-8.43,-18.13,25.82,-21.06,0.928892,0.035066,-0.020753,0.368084,0.0,0.0,0.0,0,0
2026-06-16 15:45:08.009,721177,R_Shank,0.0404,-1.6136,1.01,-0.09,-1.46,-8.43,0.0,0.0,0.0,0.928892,0.035066,-0.020753,0.368084,0.0,0.0,0.0,0,0
2026-06-16 15:45:08.010,721197,R_Shank,0.0394,-0.3316,1.0143,-0.1,-1.47,-8.42,-17.12,26.78,-21.97,0.928892,0.035066,-0.020753,0.368084,0.0,0.0,0.0,0,0
2026-06-16 15:45:08.012,721217,R_Shank,0.035,-0.0724,0.9917,-0.08,-1.47,-8.42,-16.6,24.96,-20.63,0.928892,0.035096,-0.020722,0.368053,0.0,0.0,0.0,0,0
2026-06-16 15:45:08.014,721306,L_Ankle,0.1276,0.0173,0.9909,5.42,-0.83,-10.3,-39.11,-2.13,-43.12,0.951353,0.042116,-0.067049,0.297647,0.0,0.0,0.0,0,0
2026-06-16 15:45:08.014,721162,R_Hip,0.0481,0.0089,0.9967,0.25,-1.58,1.76,-19.23,26.89,-32.13,0.931394,-0.005066,-0.042085,-0.361461,0.0,0.0,0.0,0,0
2026-06-16 15:45:08.016,721326,L_Ankle,0.129,0.0227,0.9909,5.4,-0.83,-10.3,0.0,0.0,0.0,0.951384,0.042116,-0.067049,0.297647,0.0,0.0,0.0,0,0
2026-06-16 15:45:08.016,721182,R_Hip,0.0505,0.0045,0.9958,0.27,-1.58,1.78,0.0,0.0,0.0,0.931394,-0.005066,-0.042055,-0.361461,0.0,0.0,0.0,0,0
2026-06-16 15:45:08.018,721346,L_Ankle,0.1315,0.0246,0.9789,5.42,-0.82,-10.31,-37.54,-0.56,-42.24,0.951384,0.042116,-0.067019,0.297647,0.0,0.0,0.0,0,0
2026-06-16 15:45:08.018,721202,R_Hip,0.0491,-0.0008,0.9919,0.26,-1.57,1.78,-19.97,27.99,-33.51,0.931394,-0.005066,-0.042055,-0.361492,0.0,0.0,0.0,0,0
2026-06-16 15:45:08.021,721307,L_Ankle,0.131,0.0173,0.975,5.41,-0.83,-10.29,-38.05,-1.44,-42.42,0.951353,0.042116,-0.067049,0.297647,0.0,0.0,0.0,0,0
2026-06-16 15:45:08.021,721222,R_Hip,0.0486,0.0123,0.9823,0.26,-1.58,1.76,-18.69,26.71,-32.99,0.931394,-0.005097,-0.042055,-0.361461,0.0,0.0,0.0,0,0
2026-06-16 15:45:08.023,721311,L_Shank,0.0052,-0.017,0.9902,1.77,-1.16,-0.19,-5.54,13.98,-24.07,0.988311,-0.004822,-0.025605,0.150121,0.0,0.0,0.0,0,0
2026-06-16 15:45:08.024,721331,L_Shank,0.0076,-0.0146,0.9854,1.77,-1.18,-0.19,0.0,0.0,0.0,0.988311,-0.004822,-0.025605,0.150121,0.0,0.0,0.0,0,0
2026-06-16 15:45:08.026,721351,L_Shank,0.0081,-0.019,0.9988,1.77,-1.16,-0.2,-4.68,13.79,-22.68,0.988311,-0.004822,-0.025605,0.150121,0.0,0.0,0.0,0,0
2026-06-16 15:45:08.027,721312,L_Shank,0.0047,-0.0224,0.9786,1.76,-1.17,-0.19,-5.01,15.18,-24.56,0.988311,-0.004822,-0.025605,0.150151,0.0,0.0,0.0,0,0
2026-06-16 15:45:08.029,721316,L_Hip,0.1225,-0.073,0.9759,-4.16,4.51,2.99,-19.84,18.14,-25.79,0.955138,-0.045961,-0.060305,-0.286264,0.0,0.0,0.0,0,0
2026-06-16 15:45:08.030,721187,R_Hip,0.0422,0.003,0.9871,0.27,-1.55,1.77,-18.87,26.16,-32.81,0.931394,-0.005097,-0.042085,-0.361492,0.0,0.0,0.0,0,0
2026-06-16 15:45:08.031,721336,L_Hip,0.1215,-0.0715,0.99,-4.16,4.51,2.97,0.0,0.0,0.0,0.955138,-0.045991,-0.060335,-0.286264,0.0,0.0,0.0,0,0
2026-06-16 15:45:08.033,721207,R_Hip,0.0451,0.0054,0.9905,0.26,-1.55,1.78,0.0,0.0,0.0,0.931394,-0.005066,-0.042085,-0.361461,0.0,0.0,0.0,0,0
2026-06-16 15:45:08.033,721356,L_Hip,0.1225,-0.0666,0.9875,-4.17,4.5,2.97,-17.8,18.82,-25.53,0.955138,-0.045961,-0.060335,-0.286264,0.0,0.0,0.0,0,0
2026-06-16 15:45:08.035,721227,R_Hip,0.0461,0.002,1.0001,0.25,-1.57,1.78,-19.05,27.07,-31.28,0.931394,-0.005066,-0.042085,-0.361461,0.0,0.0,0.0,0,0
2026-06-16 15:45:08.036,721376,L_Hip,0.122,-0.0631,0.9841,-4.16,4.51,2.98,-17.98,18.33,-25.67,0.955138,-0.045961,-0.060305,-0.286264,0.0,0.0,0.0,0,0
2026-06-16 15:45:08.037,721247,R_Hip,0.0491,0.0147,0.9953,0.25,-1.57,1.77,-18.32,26.71,-31.62,0.931394,-0.005097,-0.042055,-0.361492,0.0,0.0,0.0,0,0
2026-06-16 15:45:08.046,721339,L_Hip,0.1239,-0.071,0.9793,-4.16,4.51,2.94,-18.3,18.33,-26.54,0.955138,-0.045961,-0.060305,-0.286264,0.0,0.0,0.0,0,0
2026-06-16 15:45:08.047,721359,L_Hip,0.1259,-0.0793,0.9793,-4.16,4.51,2.99,0.0,0.0,0.0,0.955138,-0.045961,-0.060305,-0.286264,0.0,0.0,0.0,0,0
2026-06-16 15:45:08.049,721379,L_Hip,0.122,-0.0685,0.9856,-4.16,4.51,2.98,-17.11,18.84,-26.71,0.955138,-0.045961,-0.060305,-0.286264,0.0,0.0,0.0,0,0
2026-06-16 15:45:08.051,721399,L_Hip,0.121,-0.0749,0.9837,-4.16,4.49,2.97,-19.19,17.18,-24.92,0.955138,-0.045961,-0.060305,-0.286264,0.0,0.0,0.0,0,0
2026-06-16 15:45:08.066,721223,R_Ankle,0.0135,-0.0146,1.0029,0.77,-1.72,-0.5,-20.27,31.24,-27.34,0.219367,0.089084,0.019562,0.971343,0.0,0.0,0.0,0,0
2026-06-16 15:45:08.068,721243,R_Ankle,0.0101,-0.0106,1.0139,0.77,-1.73,-0.48,-20.25,31.23,-26.11,0.219367,0.089084,0.019593,0.971343,0.0,0.0,0.0,0,0
2026-06-16 15:45:08.069,721361,L_Shank,-0.003,-0.0097,0.9854,1.74,-1.19,-0.2,-5.88,15.68,-24.4,0.988311,-0.004822,-0.025605,0.150151,0.0,0.0,0.0,0,0
2026-06-16 15:45:08.070,721362,L_Shank,-0.001,-0.0224,0.9849,1.76,-1.17,-0.19,0.0,0.0,0.0,0.988311,-0.004791,-0.025605,0.150151,0.0,0.0,0.0,0,0
2026-06-16 15:45:08.071,721263,R_Ankle,0.0121,-0.019,1.0144,0.76,-1.71,-0.49,0.0,0.0,0.0,0.219367,0.089084,0.019593,0.971343,0.0,0.0,0.0,0,0
2026-06-16 15:45:08.072,721382,L_Shank,-0.0006,-0.0195,0.9902,1.77,-1.19,-0.19,-5.53,14.67,-24.39,0.988311,-0.004791,-0.025605,0.150151,0.0,0.0,0.0,0,0
2026-06-16 15:45:08.073,721283,R_Ankle,0.013,-0.0126,1.0024,0.76,-1.72,-0.5,-19.56,30.59,-24.86,0.219367,0.089084,0.019562,0.971343,0.0,0.0,0.0,0,0
2026-06-16 15:45:08.074,721402,L_Shank,0.0091,-0.0131,0.9964,1.76,-1.17,-0.2,-4.83,14.67,-24.4,0.988311,-0.004822,-0.025636,0.150151,0.0,0.0,0.0,0,0
2026-06-16 15:45:08.080,721373,L_Ankle,0.132,0.0173,0.9894,5.41,-0.83,-10.3,-38.57,-1.6,-41.92,0.951353,0.042116,-0.067049,0.297647,0.0,0.0,0.0,0,0
2026-06-16 15:45:08.080,721237,R_Hip,0.0496,0.0103,0.9938,0.26,-1.56,1.77,-19.6,27.25,-31.11,0.931394,-0.005097,-0.042085,-0.361461,0.0,0.0,0.0,0,0
2026-06-16 15:45:08.082,721393,L_Ankle,0.1364,0.0178,0.9856,5.41,-0.82,-10.29,0.0,0.0,0.0,0.951353,0.042116,-0.067049,0.297647,0.0,0.0,0.0,0,0
2026-06-16 15:45:08.083,721257,R_Hip,0.0427,0.0069,1.0035,0.25,-1.58,1.77,0.0,0.0,0.0,0.931394,-0.005066,-0.042085,-0.361461,0.0,0.0,0.0,0,0
2026-06-16 15:45:08.084,721413,L_Ankle,0.13,0.0188,0.9741,5.4,-0.83,-10.3,-39.27,-1.59,-42.27,0.951353,0.042085,-0.067019,0.297678,0.0,0.0,0.0,0,0
2026-06-16 15:45:08.085,721277,R_Hip,0.0476,0.0098,0.9958,0.26,-1.57,1.77,-18.51,27.62,-33.16,0.931394,-0.005066,-0.042085,-0.361461,0.0,0.0,0.0,0,0
2026-06-16 15:45:08.087,721433,L_Ankle,0.1271,0.0134,0.9736,5.41,-0.82,-10.29,-39.65,-1.95,-44.32,0.951353,0.042085,-0.067049,0.297678,0.0,0.0,0.0,0,0
2026-06-16 15:45:08.087,721297,R_Hip,0.052,0.0015,0.9842,0.27,-1.58,1.77,-18.51,27.26,-32.82,0.931394,-0.005066,-0.042085,-0.361461,0.0,0.0,0.0,0,0
2026-06-16 15:45:08.091,721247,R_Shank,0.0355,3.01,1.0104,-0.09,-1.45,-8.42,-16.93,25.29,-21.53,0.928892,0.035066,-0.020753,0.368084,0.0,0.0,0.0,0,0
2026-06-16 15:45:08.091,721384,L_Hip,0.1151,-0.0631,0.9924,-4.15,4.5,2.96,-18.13,18.17,-26.69,0.955138,-0.045961,-0.060305,-0.286264,0.0,0.0,0.0,0,0
2026-06-16 15:45:08.093,721267,R_Shank,0.0492,0.4388,1.0018,-0.1,-1.46,-8.42,0.0,0.0,0.0,0.928892,0.035066,-0.020722,0.368084,0.0,0.0,0.0,0,0
2026-06-16 15:45:08.093,721404,L_Hip,0.122,-0.0793,0.9875,-4.14,4.5,2.97,0.0,0.0,0.0,0.955138,-0.045991,-0.060305,-0.286264,0.0,0.0,0.0,0,0
2026-06-16 15:45:08.095,721287,R_Shank,0.0409,-2.6436,1.0037,-0.09,-1.46,-8.43,-16.28,25.95,-20.93,0.928892,0.035096,-0.020722,0.368053,0.0,0.0,0.0,0,0
2026-06-16 15:45:08.096,721424,L_Hip,0.1288,-0.073,0.9943,-4.15,4.5,2.96,-18.33,18.32,-24.8,0.955138,-0.045991,-0.060274,-0.286233,0.0,0.0,0.0,0,0
2026-06-16 15:45:08.098,721444,L_Hip,0.1283,-0.072,0.9827,-4.14,4.49,2.97,-18.35,17.36,-24.79,0.955138,-0.045991,-0.060305,-0.286233,0.0,0.0,0.0,0,0
2026-06-16 15:45:08.098,721307,R_Shank,0.0389,-0.9728,0.9956,-0.08,-1.46,-8.4,-15.26,25.92,-21.55,0.928892,0.035096,-0.020722,0.368084,0.0,0.0,0.0,0,0
2026-06-16 15:45:08.100,721386,L_Shank,-0.0094,-0.0165,0.9897,1.74,-1.19,-0.2,-4.83,15.01,-24.71,0.988311,-0.004791,-0.025605,0.150151,0.0,0.0,0.0,0,0
2026-06-16 15:45:08.101,721406,L_Shank,0.0023,-0.0234,0.9806,1.75,-1.16,-0.2,-5.55,13.63,-22.82,0.988311,-0.004791,-0.025605,0.150151,0.0,0.0,0.0,0,0
2026-06-16 15:45:08.103,721426,L_Shank,0.0072,-0.0224,0.9806,1.76,-1.19,-0.21,0.0,0.0,0.0,0.988311,-0.004791,-0.025605,0.150151,0.0,0.0,0.0,0,0
2026-06-16 15:45:08.105,721446,L_Shank,-0.0001,-0.0204,0.9993,1.77,-1.18,-0.21,-4.48,15.01,-24.72,0.988311,-0.004761,-0.025605,0.150151,0.0,0.0,0.0,0,0
2026-06-16 15:45:08.105,721262,R_Hip,0.0525,0.0108,0.9929,0.26,-1.58,1.78,-19.6,27.62,-32.82,0.931394,-0.005066,-0.042085,-0.361461,0.0,0.0,0.0,0,0
2026-06-16 15:45:08.107,721396,L_Ankle,0.1251,0.0212,0.9899,5.4,-0.83,-10.32,-38.07,-1.44,-43.44,0.951353,0.042085,-0.067019,0.297678,0.0,0.0,0.0,0,0
2026-06-16 15:45:08.107,721282,R_Hip,0.0417,0.0049,0.9982,0.27,-1.56,1.77,0.0,0.0,0.0,0.931394,-0.005066,-0.042116,-0.361461,0.0,0.0,0.0,0,0
2026-06-16 15:45:08.109,721416,L_Ankle,0.1256,0.0183,0.999,5.41,-0.83,-10.29,0.0,0.0,0.0,0.951353,0.042085,-0.067019,0.297678,0.0,0.0,0.0,0,0
2026-06-16 15:45:08.109,721302,R_Hip,0.054,0.001,0.9914,0.26,-1.57,1.77,-18.87,26.89,-31.45,0.931394,-0.005066,-0.042146,-0.361461,0.0,0.0,0.0,0,0
2026-06-16 15:45:08.111,721436,L_Ankle,0.1271,0.0134,0.9784,5.41,-0.82,-10.31,-38.4,-1.43,-42.42,0.951353,0.042085,-0.067019,0.297678,0.0,0.0,0.0,0,0
2026-06-16 15:45:08.112,721322,R_Hip,0.0407,0.0069,0.9861,0.25,-1.57,1.79,-17.05,27.62,-32.47,0.931394,-0.005097,-0.042146,-0.361461,0.0,0.0,0.0,0,0
2026-06-16 15:45:08.114,721456,L_Ankle,0.1276,0.0202,0.9837,5.42,-0.83,-10.29,-37.35,-1.09,-42.06,0.951353,0.042085,-0.067049,0.297708,0.0,0.0,0.0,0,0
2026-06-16 15:45:08.114,721268,R_Ankle,0.0101,-0.0156,1.0144,0.76,-1.71,-0.5,-20.58,31.54,-25.5,0.219367,0.089053,0.019562,0.971343,0.0,0.0,0.0,0,0
2026-06-16 15:45:08.116,721406,L_Hip,0.1141,-0.0828,0.9977,-4.16,4.5,2.97,-17.64,18.66,-25.39,0.955138,-0.045961,-0.060305,-0.286233,0.0,0.0,0.0,0,0
2026-06-16 15:45:08.117,721288,R_Ankle,0.0297,-0.0081,1.0014,0.76,-1.74,-0.49,-20.77,30.44,-26.56,0.219367,0.089053,0.019562,0.971343,0.0,0.0,0.0,0,0
2026-06-16 15:45:08.118,721426,L_Hip,0.1126,-0.0705,0.9895,-4.16,4.5,2.97,0.0,0.0,0.0,0.955138,-0.04593,-0.060305,-0.286233,0.0,0.0,0.0,0,0
2026-06-16 15:45:08.119,721308,R_Ankle,0.0116,-0.0111,0.9943,0.77,-1.71,-0.51,0.0,0.0,0.0,0.219367,0.089053,0.019532,0.971343,0.0,0.0,0.0,0,0
2026-06-16 15:45:08.121,721446,L_Hip,0.1195,-0.0685,0.989,-4.16,4.51,2.96,-17.81,18.17,-25.53,0.955138,-0.04593,-0.060305,-0.286233,0.0,0.0,0.0,0,0
2026-06-16 15:45:08.121,721328,R_Ankle,0.0165,-0.0181,1.0014,0.77,-1.73,-0.5,-20.59,31.23,-26.11,0.219367,0.089053,0.019532,0.971343,0.0,0.0,0.0,0,0
2026-06-16 15:45:08.123,721269,R_Shank,0.0424,2.2392,1.008,-0.08,-1.48,-8.42,-16.11,26.11,-21.08,0.928892,0.035096,-0.020722,0.368084,0.0,0.0,0.0,0,0
2026-06-16 15:45:08.123,721407,L_Hip,0.1126,-0.0735,0.9837,-4.16,4.5,2.96,-17.47,18.82,-24.96,0.955138,-0.045961,-0.060305,-0.286233,0.0,0.0,0.0,0,0
2026-06-16 15:45:08.125,721289,R_Shank,0.0365,3.2692,1.0066,-0.09,-1.47,-8.41,0.0,0.0,0.0,0.928892,0.035096,-0.020722,0.368084,0.0,0.0,0.0,0,0
2026-06-16 15:45:08.127,721309,R_Shank,0.033,3.01,1.0032,-0.09,-1.45,-8.43,-17.11,25.79,-21.68,0.928892,0.035096,-0.020692,0.368084,0.0,0.0,0.0,0,0
2026-06-16 15:45:08.128,721329,R_Shank,0.0453,0.8276,1.0114,-0.09,-1.47,-8.41,-15.76,24.79,-20.19,0.928892,0.035096,-0.020692,0.368084,0.0,0.0,0.0,0,0
2026-06-16 15:45:08.133,721290,R_Ankle,0.017,-0.0131,1.0096,0.77,-1.72,-0.51,-21.1,30.74,-25.65,0.219367,0.089084,0.019532,0.971343,0.0,0.0,0.0,0,0
2026-06-16 15:45:08.135,721310,R_Ankle,0.0062,-0.0121,1.0067,0.77,-1.71,-0.5,-21.6,31.21,-25.2,0.219367,0.089084,0.019532,0.971343,0.0,0.0,0.0,0,0
2026-06-16 15:45:08.136,721330,R_Ankle,0.0101,-0.0096,0.9986,0.77,-1.71,-0.51,0.0,0.0,0.0,0.219367,0.089053,0.019501,0.971343,0.0,0.0,0.0,0,0
2026-06-16 15:45:08.138,721350,R_Ankle,0.0155,-0.0121,0.9957,0.77,-1.73,-0.48,-19.73,32.03,-25.96,0.219367,0.089053,0.019501,0.971343,0.0,0.0,0.0,0,0
2026-06-16 15:45:08.140,721292,R_Shank,0.0394,1.4688,1.0056,-0.09,-1.45,-8.41,-16.6,25.29,-21.24,0.928892,0.035096,-0.020692,0.368084,0.0,0.0,0.0,0,0
2026-06-16 15:45:08.141,721312,R_Shank,0.0448,-1.7432,0.9922,-0.1,-1.45,-8.42,-19.12,25.5,-21.66,0.928861,0.035096,-0.020661,0.368084,0.0,0.0,0.0,0,0
2026-06-16 15:45:08.143,721332,R_Shank,0.0409,-1.1024,1.0172,-0.09,-1.45,-8.42,-17.81,26.15,-20.16,0.928892,0.035096,-0.020661,0.368084,0.0,0.0,0.0,0,0
2026-06-16 15:45:08.144,721436,L_Shank,-0.0103,-0.019,0.9786,1.75,-1.19,-0.2,-4.84,13.64,-24.07,0.988311,-0.004761,-0.025575,0.150151,0.0,0.0,0.0,0,0
2026-06-16 15:45:08.146,721456,L_Shank,0.0018,-0.0214,0.9873,1.77,-1.18,-0.19,-6.24,14.32,-23.76,0.988311,-0.004791,-0.025544,0.150151,0.0,0.0,0.0,0,0
2026-06-16 15:45:08.146,721352,R_Shank,0.0375,-2.7732,1.0109,-0.09,-1.46,-8.44,-15.42,25.43,-21.4,0.928892,0.035096,-0.020631,0.368084,0.0,0.0,0.0,0,0
2026-06-16 15:45:08.148,721476,L_Shank,0.013,-0.0185,0.9902,1.76,-1.19,-0.19,0.0,0.0,0.0,0.988311,-0.004791,-0.025544,0.150151,0.0,0.0,0.0,0,0
2026-06-16 15:45:08.149,721496,L_Shank,0.0013,-0.019,0.9844,1.76,-1.18,-0.19,-4.65,15.52,-24.88,0.988311,-0.004761,-0.025544,0.150151,0.0,0.0,0.0,0,0
2026-06-16 15:45:08.151,721441,L_Ankle,0.1335,0.0236,0.9894,5.41,-0.83,-10.29,-37.54,-1.27,-42.92,0.951353,0.042085,-0.067049,0.297708,0.0,0.0,0.0,0,0
2026-06-16 15:45:08.153,721461,L_Ankle,0.132,0.0139,0.9746,5.4,-0.83,-10.29,-38.41,-2.14,-43.45,0.951353,0.042055,-0.067049,0.297708,0.0,0.0,0.0,0,0
2026-06-16 15:45:08.154,721481,L_Ankle,0.1251,0.0119,0.9971,5.4,-0.82,-10.29,0.0,0.0,0.0,0.951353,0.042055,-0.067049,0.297708,0.0,0.0,0.0,0,0
2026-06-16 15:45:08.155,721312,R_Hip,0.056,0.002,0.99,0.27,-1.56,1.77,-18.14,27.62,-32.13,0.931394,-0.005097,-0.042146,-0.361461,0.0,0.0,0.0,0,0
2026-06-16 15:45:08.157,721501,L_Ankle,0.1276,0.0207,0.9798,5.41,-0.83,-10.3,-37.73,-1.45,-43.77,0.951353,0.042055,-0.067049,0.297708,0.0,0.0,0.0,0,0
2026-06-16 15:45:08.157,721332,R_Hip,0.0412,0.0001,1.0112,0.25,-1.56,1.77,0.0,0.0,0.0,0.931394,-0.005097,-0.042116,-0.361461,0.0,0.0,0.0,0,0
2026-06-16 15:45:08.159,721451,L_Hip,0.1244,-0.071,0.9909,-4.16,4.51,2.98,-18.49,18.16,-25.52,0.955138,-0.045991,-0.060305,-0.286233,0.0,0.0,0.0,0,0
2026-06-16 15:45:08.160,721352,R_Hip,0.0422,0.0045,0.9948,0.26,-1.58,1.78,-18.87,26.16,-32.13,0.931394,-0.005127,-0.042146,-0.361461,0.0,0.0,0.0,0,0
2026-06-16 15:45:08.162,721471,L_Hip,0.122,-0.073,0.9827,-4.16,4.51,2.96,-19.15,18.8,-25.8,0.955138,-0.045991,-0.060305,-0.286233,0.0,0.0,0.0,0,0
2026-06-16 15:45:08.162,721372,R_Hip,0.0456,0.0118,0.9967,0.27,-1.58,1.8,-18.14,27.62,-31.79,0.931394,-0.005127,-0.042116,-0.361461,0.0,0.0,0.0,0,0
2026-06-16 15:45:08.163,721491,L_Hip,0.1205,-0.0695,0.989,-4.14,4.5,2.97,0.0,0.0,0.0,0.955138,-0.045961,-0.060305,-0.286233,0.0,0.0,0.0,0,0
2026-06-16 15:45:08.165,721511,L_Hip,0.122,-0.0744,0.9885,-4.16,4.51,2.96,-19.0,17.67,-25.95,0.955138,-0.045991,-0.060305,-0.286233,0.0,0.0,0.0,0,0
2026-06-16 15:45:08.168,721461,L_Shank,0.0003,-0.0224,0.9993,1.75,-1.18,-0.19,-3.97,14.14,-23.31,0.988311,-0.004761,-0.025544,0.150151,0.0,0.0,0.0,0,0
2026-06-16 15:45:08.170,721481,L_Shank,-0.003,-0.0165,0.9834,1.77,-1.16,-0.19,-4.49,14.31,-23.46,0.988311,-0.004761,-0.025575,0.150151,0.0,0.0,0.0,0,0
2026-06-16 15:45:08.171,721501,L_Shank,0.0028,-0.0219,0.9868,1.75,-1.16,-0.2,0.0,0.0,0.0,0.988311,-0.004761,-0.025575,0.150151,0.0,0.0,0.0,0,0
2026-06-16 15:45:08.173,721521,L_Shank,0.0042,-0.0214,0.9892,1.77,-1.16,-0.2,-5.87,15.69,-25.02,0.988311,-0.004761,-0.025575,0.150151,0.0,0.0,0.0,0,0
2026-06-16 15:45:08.178,721335,R_Ankle,0.0204,-0.0156,1.0153,0.76,-1.71,-0.5,-19.91,31.23,-26.1,0.219367,0.089084,0.019501,0.971343,0.0,0.0,0.0,0,0
2026-06-16 15:45:08.180,721355,R_Ankle,0.0194,-0.0047,0.9947,0.77,-1.73,-0.51,-19.57,30.6,-25.78,0.219367,0.089053,0.019471,0.971343,0.0,0.0,0.0,0,0
2026-06-16 15:45:08.182,721375,R_Ankle,0.0101,-0.0151,0.9947,0.75,-1.73,-0.49,0.0,0.0,0.0,0.219367,0.089114,0.019501,0.971343,0.0,0.0,0.0,0,0
2026-06-16 15:45:08.183,721395,R_Ankle,0.013,-0.0047,1.0038,0.76,-1.72,-0.5,-20.92,31.85,-25.5,0.219367,0.089084,0.019501,0.971343,0.0,0.0,0.0,0,0
2026-06-16 15:45:08.201,721358,R_Ankle,0.0165,-0.0111,1.0292,0.77,-1.7,-0.5,-19.42,30.77,-27.17,0.219367,0.089084,0.019471,0.971343,0.0,0.0,0.0,0,0
2026-06-16 15:45:08.202,721378,R_Ankle,0.015,-0.0067,0.9976,0.77,-1.72,-0.48,-21.11,30.11,-25.95,0.219367,0.089053,0.019471,0.971343,0.0,0.0,0.0,0,0
2026-06-16 15:45:08.204,721398,R_Ankle,0.013,-0.0151,1.0115,0.77,-1.72,-0.49,0.0,0.0,0.0,0.219367,0.089053,0.019501,0.971343,0.0,0.0,0.0,0,0
2026-06-16 15:45:08.206,721418,R_Ankle,0.017,-0.0086,1.0096,0.76,-1.73,-0.48,-21.27,30.9,-25.8,0.219367,0.089053,0.019501,0.971343,0.0,0.0,0.0,0,0
2026-06-16 15:45:08.209,721360,R_Shank,0.0443,1.4688,1.0028,-0.09,-1.46,-8.42,-16.93,25.62,-21.83,0.928892,0.035096,-0.020631,0.368084,0.0,0.0,0.0,0,0
2026-06-16 15:45:08.211,721380,R_Shank,0.0394,-1.3548,1.0133,-0.09,-1.47,-8.41,0.0,0.0,0.0,0.928892,0.035096,-0.020631,0.368084,0.0,0.0,0.0,0,0
2026-06-16 15:45:08.213,721400,R_Shank,0.0458,-2.3844,1.0037,-0.09,-1.45,-8.43,-16.95,25.96,-20.62,0.928892,0.035096,-0.020631,0.368084,0.0,0.0,0.0,0,0
2026-06-16 15:45:08.214,721420,R_Shank,0.0414,2.4984,1.0104,-0.09,-1.46,-8.42,0.0,0.0,0.0,0.928892,0.035096,-0.020631,0.368084,0.0,0.0,0.0,0,0
2026-06-16 15:45:08.217,721510,L_Ankle,0.129,0.0227,0.9784,5.41,-0.81,-10.31,-38.96,-0.19,-42.94,0.951353,0.042085,-0.067049,0.297708,0.0,0.0,0.0,0,0
2026-06-16 15:45:08.218,721530,L_Ankle,0.1227,0.0227,0.9894,5.4,-0.83,-10.29,-38.25,-0.9,-42.93,0.951353,0.042085,-0.067049,0.297739,0.0,0.0,0.0,0,0
2026-06-16 15:45:08.220,721550,L_Ankle,0.13,0.0129,0.9846,5.41,-0.81,-10.29,0.0,0.0,0.0,0.951323,0.042116,-0.06708,0.297739,0.0,0.0,0.0,0,0
2026-06-16 15:45:08.221,721570,L_Ankle,0.1266,0.0188,0.9822,5.41,-0.83,-10.29,-38.62,-0.19,-43.61,0.951323,0.042116,-0.06708,0.297739,0.0,0.0,0.0,0,0
2026-06-16 15:45:08.224,721380,R_Ankle,0.0067,-0.0131,1.0081,0.77,-1.73,-0.49,-22.29,31.21,-25.51,0.219367,0.089053,0.019471,0.971343,0.0,0.0,0.0,0,0
2026-06-16 15:45:08.226,721400,R_Ankle,0.016,-0.0111,1.0072,0.77,-1.72,-0.49,-21.1,31.06,-25.65,0.219367,0.089022,0.019501,0.971343,0.0,0.0,0.0,0,0
2026-06-16 15:45:08.227,721519,L_Hip,0.1151,-0.0705,0.988,-4.17,4.5,2.98,-17.66,17.69,-25.09,0.955138,-0.045991,-0.060335,-0.286233,0.0,0.0,0.0,0,0
2026-06-16 15:45:08.228,721420,R_Ankle,0.0204,-0.0067,1.0053,0.76,-1.72,-0.48,0.0,0.0,0.0,0.219367,0.089022,0.019471,0.971343,0.0,0.0,0.0,0,0
2026-06-16 15:45:08.229,721539,L_Hip,0.121,-0.0715,1.0001,-4.16,4.51,2.97,-18.64,18.97,-25.67,0.955138,-0.045991,-0.060335,-0.286233,0.0,0.0,0.0,0,0
2026-06-16 15:45:08.230,721440,R_Ankle,0.0204,-0.0106,0.9952,0.76,-1.73,-0.5,-20.08,30.42,-25.02,0.219367,0.089053,0.019471,0.971343,0.0,0.0,0.0,0,0
2026-06-16 15:45:08.231,721559,L_Hip,0.1264,-0.073,0.9924,-4.16,4.51,2.97,-17.46,18.51,-26.41,0.955138,-0.046022,-0.060305,-0.286233,0.0,0.0,0.0,0,0
2026-06-16 15:45:08.233,721381,R_Shank,0.0429,-3.0256,1.01,-0.09,-1.45,-8.41,-18.14,26.15,-20.76,0.928892,0.035096,-0.020661,0.368084,0.0,0.0,0.0,0,0
2026-06-16 15:45:08.233,721579,L_Hip,0.1171,-0.0695,0.989,-4.16,4.49,2.96,0.0,0.0,0.0,0.955138,-0.046022,-0.060305,-0.286233,0.0,0.0,0.0,0,0
2026-06-16 15:45:08.235,721401,R_Shank,0.0345,-0.7136,1.0104,-0.08,-1.46,-8.42,-16.62,25.96,-20.33,0.928892,0.035035,-0.020661,0.368084,0.0,0.0,0.0,0,0
2026-06-16 15:45:08.236,721421,R_Shank,0.0434,-2.6436,1.0176,-0.08,-1.46,-8.43,0.0,0.0,0.0,0.928892,0.035035,-0.020661,0.368053,0.0,0.0,0.0,0,0
2026-06-16 15:45:08.239,721441,R_Shank,0.0316,-0.0724,1.01,-0.09,-1.46,-8.43,-16.44,25.78,-21.38,0.928892,0.035035,-0.020661,0.368053,0.0,0.0,0.0,0,0
2026-06-16 15:45:08.239,721531,L_Ankle,0.1349,0.0222,0.9798,5.41,-0.84,-10.29,-36.83,-1.28,-42.23,0.951323,0.042116,-0.06708,0.297739,0.0,0.0,0.0,0,0
2026-06-16 15:45:08.241,721551,L_Ankle,0.1325,0.0149,0.9938,5.39,-0.82,-10.31,-38.92,-1.24,-41.92,0.951323,0.042116,-0.06711,0.297739,0.0,0.0,0.0,0,0
2026-06-16 15:45:08.241,721387,R_Hip,0.0451,0.0074,1.002,0.28,-1.58,1.77,-19.41,26.34,-31.96,0.931394,-0.005127,-0.042116,-0.361461,0.0,0.0,0.0,0,0
2026-06-16 15:45:08.243,721407,R_Hip,0.0412,0.003,0.9818,0.29,-1.57,1.77,0.0,0.0,0.0,0.931394,-0.005127,-0.042146,-0.361461,0.0,0.0,0.0,0,0
2026-06-16 15:45:08.244,721571,L_Ankle,0.1305,0.0241,0.9822,5.4,-0.83,-10.29,-39.13,0.0,-42.77,0.951323,0.042116,-0.06708,0.297739,0.0,0.0,0.0,0,0
2026-06-16 15:45:08.245,721427,R_Hip,0.0456,0.0113,0.9871,0.27,-1.56,1.76,-18.5,27.26,-32.48,0.931394,-0.005127,-0.042146,-0.361461,0.0,0.0,0.0,0,0
2026-06-16 15:45:08.246,721591,L_Ankle,0.1271,0.0241,1.001,5.39,-0.84,-10.31,0.0,0.0,0.0,0.951323,0.042116,-0.06708,0.297769,0.0,0.0,0.0,0,0
2026-06-16 15:45:08.248,721447,R_Hip,0.0407,0.0054,0.9755,0.25,-1.58,1.79,-19.05,27.44,-30.94,0.931394,-0.005127,-0.042146,-0.361461,0.0,0.0,0.0,0,0
2026-06-16 15:45:08.248,721536,L_Shank,0.0003,-0.0258,0.9887,1.77,-1.18,-0.18,-4.15,13.97,-23.46,0.988311,-0.004761,-0.025544,0.150151,0.0,0.0,0.0,0,0
2026-06-16 15:45:08.250,721556,L_Shank,0.0023,-0.0278,0.9863,1.76,-1.17,-0.21,-4.84,14.31,-23.46,0.988311,-0.00473,-0.025544,0.150151,0.0,0.0,0.0,0,0
2026-06-16 15:45:08.251,721404,R_Shank,0.0384,-1.7432,1.0143,-0.09,-1.45,-8.42,-15.95,25.95,-20.33,0.928892,0.035005,-0.020631,0.368053,0.0,0.0,0.0,0,0
2026-06-16 15:45:08.252,721576,L_Shank,0.0033,-0.0219,0.9911,1.75,-1.18,-0.19,0.0,0.0,0.0,0.988311,-0.004761,-0.025544,0.150151,0.0,0.0,0.0,0,0
2026-06-16 15:45:08.253,721424,R_Shank,0.0448,2.4984,0.9989,-0.1,-1.46,-8.42,-16.29,26.28,-20.33,0.928892,0.035005,-0.020631,0.368053,0.0,0.0,0.0,0,0
2026-06-16 15:45:08.255,721596,L_Shank,0.0111,-0.016,0.9873,1.75,-1.17,-0.19,-5.02,15.5,-23.32,0.988311,-0.00473,-0.025544,0.150151,0.0,0.0,0.0,0,0
2026-06-16 15:45:08.256,721444,R_Shank,0.0375,-0.9728,0.997,-0.09,-1.46,-8.43,0.0,0.0,0.0,0.928892,0.035005,-0.020631,0.368053,0.0,0.0,0.0,0,0
2026-06-16 15:45:08.257,721541,L_Hip,0.1161,-0.0784,0.987,-4.16,4.52,2.96,-18.64,18.65,-26.25,0.955138,-0.046022,-0.060274,-0.286233,0.0,0.0,0.0,0,0
2026-06-16 15:45:08.258,721464,R_Shank,0.0458,-1.6136,1.0152,-0.09,-1.46,-8.41,-15.76,25.11,-20.49,0.928892,0.034974,-0.020631,0.368053,0.0,0.0,0.0,0,0
2026-06-16 15:45:08.260,721561,L_Hip,0.1244,-0.0646,0.9735,-4.16,4.51,2.96,-17.82,18.49,-24.66,0.955138,-0.045991,-0.060305,-0.286233,0.0,0.0,0.0,0,0
2026-06-16 15:45:08.260,721412,R_Hip,0.0358,0.0089,0.9861,0.28,-1.56,1.77,-17.96,26.34,-31.96,0.931394,-0.005127,-0.042146,-0.361461,0.0,0.0,0.0,0,0
2026-06-16 15:45:08.262,721581,L_Hip,0.1156,-0.072,0.9856,-4.16,4.48,2.98,0.0,0.0,0.0,0.955138,-0.045991,-0.060305,-0.286233,0.0,0.0,0.0,0,0
2026-06-16 15:45:08.262,721432,R_Hip,0.0412,0.0108,0.9866,0.27,-1.58,1.77,0.0,0.0,0.0,0.931394,-0.005127,-0.042146,-0.361461,0.0,0.0,0.0,0,0
2026-06-16 15:45:08.264,721601,L_Hip,0.119,-0.0661,0.99,-4.17,4.5,2.97,-18.48,18.16,-26.1,0.955138,-0.045991,-0.060305,-0.286233,0.0,0.0,0.0,0,0
2026-06-16 15:45:08.265,721452,R_Hip,0.0412,0.0113,0.9938,0.26,-1.57,1.76,-18.69,27.44,-32.65,0.931394,-0.005158,-0.042146,-0.361461,0.0,0.0,0.0,0,0
2026-06-16 15:45:08.267,721472,R_Hip,0.0412,0.0108,1.0039,0.28,-1.57,1.78,-20.33,25.8,-32.13,0.931394,-0.005127,-0.042116,-0.361461,0.0,0.0,0.0,0,0
2026-06-16 15:45:08.267,721554,L_Ankle,0.1369,0.0178,0.9976,5.4,-0.84,-10.3,-38.4,-1.08,-42.08,0.951323,0.042085,-0.06708,0.297769,0.0,0.0,0.0,0,0
2026-06-16 15:45:08.270,721574,L_Ankle,0.1374,0.0241,0.9861,5.41,-0.83,-10.29,-37.86,-1.61,-41.57,0.951323,0.042116,-0.06708,0.297769,0.0,0.0,0.0,0,0
2026-06-16 15:45:08.270,721425,R_Ankle,0.0219,-0.0101,1.0053,0.77,-1.72,-0.49,-21.78,30.74,-25.65,0.219367,0.089084,0.019501,0.971343,0.0,0.0,0.0,0,0
2026-06-16 15:45:08.272,721594,L_Ankle,0.1325,0.0163,0.988,5.41,-0.84,-10.3,0.0,0.0,0.0,0.951323,0.042085,-0.06708,0.297769,0.0,0.0,0.0,0,0
2026-06-16 15:45:08.272,721445,R_Ankle,0.0106,-0.0151,1.0072,0.77,-1.72,-0.5,-21.11,30.43,-25.95,0.219367,0.089084,0.019471,0.971343,0.0,0.0,0.0,0,0
2026-06-16 15:45:08.274,721465,R_Ankle,0.0101,-0.0151,0.9995,0.76,-1.7,-0.49,0.0,0.0,0.0,0.219367,0.089053,0.019471,0.971343,0.0,0.0,0.0,0,0
2026-06-16 15:45:08.275,721614,L_Ankle,0.1305,0.0173,0.9952,5.41,-0.83,-10.3,-37.9,-0.91,-43.26,0.951323,0.042116,-0.06708,0.297769,0.0,0.0,0.0,0,0
2026-06-16 15:45:08.277,721561,L_Shank,0.0052,-0.02,0.9902,1.77,-1.18,-0.2,-4.66,14.84,-24.56,0.988311,-0.00473,-0.025483,0.150151,0.0,0.0,0.0,0,0
2026-06-16 15:45:08.277,721426,R_Ankle,0.0184,-0.0195,1.0034,0.76,-1.71,-0.48,-20.95,30.28,-27.03,0.219367,0.089053,0.01944,0.971343,0.0,0.0,0.0,0,0
2026-06-16 15:45:08.279,721581,L_Shank,0.0072,-0.0209,0.9998,1.76,-1.17,-0.2,-4.82,15.7,-25.35,0.988311,-0.00473,-0.025513,0.150151,0.0,0.0,0.0,0,0
2026-06-16 15:45:08.280,721601,L_Shank,-0.001,-0.0244,1.0022,1.75,-1.17,-0.21,0.0,0.0,0.0,0.988311,-0.00473,-0.025513,0.150151,0.0,0.0,0.0,0,0
2026-06-16 15:45:08.282,721621,L_Shank,0.0042,-0.016,0.9892,1.75,-1.18,-0.2,-4.14,14.66,-23.78,0.988311,-0.0047,-0.025513,0.150151,0.0,0.0,0.0,0,0
2026-06-16 15:45:08.283,721437,R_Hip,0.0431,0.0113,1.0001,0.26,-1.58,1.77,-19.41,26.34,-31.62,0.931394,-0.005097,-0.042116,-0.361461,0.0,0.0,0.0,0,0
2026-06-16 15:45:08.284,721564,L_Hip,0.1161,-0.0784,0.9841,-4.16,4.51,2.97,-18.47,19.45,-25.23,0.955138,-0.045991,-0.060305,-0.286233,0.0,0.0,0.0,0,0
2026-06-16 15:45:08.285,721457,R_Hip,0.0491,0.0006,0.9914,0.27,-1.58,1.77,0.0,0.0,0.0,0.931394,-0.005066,-0.042085,-0.361461,0.0,0.0,0.0,0,0
2026-06-16 15:45:08.286,721584,L_Hip,0.1136,-0.0705,0.9953,-4.15,4.51,2.96,-19.84,19.1,-24.34,0.955138,-0.046022,-0.060305,-0.286233,0.0,0.0,0.0,0,0
2026-06-16 15:45:08.287,721477,R_Hip,0.0417,0.0059,0.9861,0.27,-1.56,1.79,-19.42,26.71,-32.99,0.931394,-0.005036,-0.042085,-0.361461,0.0,0.0,0.0,0,0
2026-06-16 15:45:08.288,721604,L_Hip,0.1185,-0.0749,0.9812,-4.16,4.5,2.97,0.0,0.0,0.0,0.955138,-0.046022,-0.060305,-0.286233,0.0,0.0,0.0,0,0
2026-06-16 15:45:08.290,721497,R_Hip,0.0382,-0.0003,0.9905,0.26,-1.57,1.78,-20.33,26.89,-32.48,0.931394,-0.005066,-0.042085,-0.361461,0.0,0.0,0.0,0,0
2026-06-16 15:45:08.291,721624,L_Hip,0.12,-0.0715,0.9745,-4.18,4.49,2.97,-17.82,18.82,-24.66,0.955138,-0.046022,-0.060274,-0.286203,0.0,0.0,0.0,0,0
2026-06-16 15:45:08.292,721448,R_Ankle,0.013,-0.0116,0.9962,0.77,-1.72,-0.48,-20.1,30.77,-27.18,0.219367,0.089022,0.01944,0.971343,0.0,0.0,0.0,0,0
2026-06-16 15:45:08.294,721468,R_Ankle,0.015,-0.0116,1.0,0.77,-1.72,-0.49,-21.79,31.06,-26.27,0.219367,0.089022,0.01944,0.971343,0.0,0.0,0.0,0,0
2026-06-16 15:45:08.294,721586,L_Shank,-0.001,-0.0263,0.994,1.75,-1.19,-0.2,-5.36,13.81,-23.91,0.988311,-0.004669,-0.025544,0.150151,0.0,0.0,0.0,0,0
2026-06-16 15:45:08.296,721488,R_Ankle,0.0219,-0.0126,1.0105,0.75,-1.71,-0.49,0.0,0.0,0.0,0.219367,0.089053,0.01944,0.971374,0.0,0.0,0.0,0,0
2026-06-16 15:45:08.296,721606,L_Shank,0.0028,-0.0234,0.9815,1.77,-1.19,-0.19,-3.97,14.82,-23.32,0.988311,-0.0047,-0.025544,0.150151,0.0,0.0,0.0,0,0
2026-06-16 15:45:08.298,721508,R_Ankle,0.0268,-0.0096,0.9981,0.76,-1.7,-0.49,-20.41,31.7,-25.34,0.219337,0.089053,0.01944,0.971343,0.0,0.0,0.0,0,0
2026-06-16 15:45:08.299,721626,L_Shank,0.0111,-0.0185,0.9897,1.76,-1.16,-0.19,-5.53,14.67,-25.01,0.988311,-0.0047,-0.025544,0.150151,0.0,0.0,0.0,0,0
2026-06-16 15:45:08.301,721449,R_Shank,0.0424,-3.1552,1.0013,-0.09,-1.45,-8.42,-16.1,25.45,-20.49,0.928892,0.034974,-0.020631,0.368053,0.0,0.0,0.0,0,0
2026-06-16 15:45:08.301,721587,L_Shank,-0.0006,-0.0263,0.9954,1.75,-1.17,-0.19,0.0,0.0,0.0,0.988311,-0.0047,-0.025544,0.150151,0.0,0.0,0.0,0,0
2026-06-16 15:45:08.303,721469,R_Shank,0.0404,2.2392,0.996,-0.09,-1.46,-8.42,-16.92,24.96,-21.84,0.928892,0.034944,-0.020661,0.368053,0.0,0.0,0.0,0,0
2026-06-16 15:45:08.304,721489,R_Shank,0.0389,-2.0024,0.997,-0.09,-1.46,-8.43,0.0,0.0,0.0,0.928892,0.034974,-0.020631,0.368053,0.0,0.0,0.0,0,0
2026-06-16 15:45:08.306,721509,R_Shank,0.038,0.698,1.009,-0.09,-1.46,-8.41,-17.62,25.97,-21.52,0.928892,0.034974,-0.0206,0.368053,0.0,0.0,0.0,0,0
2026-06-16 15:45:08.308,721462,R_Hip,0.0476,0.0152,0.9943,0.27,-1.56,1.77,-18.87,26.53,-32.47,0.931394,-0.005066,-0.042055,-0.361461,0.0,0.0,0.0,0,0
2026-06-16 15:45:08.309,721482,R_Hip,0.0461,0.0069,0.9779,0.27,-1.57,1.79,0.0,0.0,0.0,0.931394,-0.005036,-0.042055,-0.361461,0.0,0.0,0.0,0,0
2026-06-16 15:45:08.311,721502,R_Hip,0.0456,0.0045,0.9919,0.27,-1.57,1.79,-19.24,26.9,-33.5,0.931394,-0.005036,-0.042055,-0.361461,0.0,0.0,0.0,0,0
2026-06-16 15:45:08.313,721522,R_Hip,0.0436,0.0157,0.9856,0.27,-1.56,1.78,-19.78,27.07,-31.96,0.931394,-0.005036,-0.042024,-0.361461,0.0,0.0,0.0,0,0
2026-06-16 15:45:08.315,721470,R_Ankle,0.0204,-0.02,0.9899,0.75,-1.73,-0.49,-20.59,29.94,-24.55,0.219337,0.089084,0.01941,0.971343,0.0,0.0,0.0,0,0
2026-06-16 15:45:08.316,721609,L_Hip,0.1161,-0.0695,1.0069,-4.15,4.51,2.97,-18.65,18.64,-25.37,0.955138,-0.046022,-0.060305,-0.286203,0.0,0.0,0.0,0,0
2026-06-16 15:45:08.317,721490,R_Ankle,0.0243,-0.0121,1.0029,0.77,-1.71,-0.49,-21.27,31.54,-25.81,0.219337,0.089084,0.019379,0.971343,0.0,0.0,0.0,0,0
2026-06-16 15:45:08.319,721629,L_Hip,0.1176,-0.0715,0.9832,-4.16,4.51,2.96,-18.82,18.8,-25.52,0.955138,-0.046022,-0.060274,-0.286203,0.0,0.0,0.0,0,0
2026-06-16 15:45:08.319,721510,R_Ankle,0.015,-0.0062,0.9995,0.77,-1.72,-0.51,0.0,0.0,0.0,0.219337,0.089114,0.019379,0.971343,0.0,0.0,0.0,0,0
2026-06-16 15:45:08.321,721530,R_Ankle,0.0037,-0.0141,1.0211,0.77,-1.72,-0.48,-20.42,31.39,-26.26,0.219337,0.089084,0.01941,0.971343,0.0,0.0,0.0,0,0
2026-06-16 15:45:08.321,721649,L_Hip,0.1215,-0.0705,1.0001,-4.16,4.5,2.99,-19.32,18.31,-26.23,0.955138,-0.046052,-0.060274,-0.286203,0.0,0.0,0.0,0,0
2026-06-16 15:45:08.323,721669,L_Hip,0.1244,-0.073,0.987,-4.15,4.49,2.98,0.0,0.0,0.0,0.955138,-0.046052,-0.060305,-0.286203,0.0,0.0,0.0,0,0
2026-06-16 15:45:08.328,721621,L_Ankle,0.1246,0.0197,0.9822,5.41,-0.83,-10.32,-37.38,-0.74,-43.08,0.951323,0.042085,-0.06708,0.297769,0.0,0.0,0.0,0,0
2026-06-16 15:45:08.331,721641,L_Ankle,0.132,0.0163,0.9808,5.41,-0.83,-10.28,-38.08,-1.09,-43.78,0.951323,0.042085,-0.06711,0.2978,0.0,0.0,0.0,0,0
2026-06-16 15:45:08.332,721661,L_Ankle,0.133,0.0207,0.9789,5.41,-0.83,-10.3,-37.37,-1.1,-42.74,0.951323,0.042085,-0.06711,0.2978,0.0,0.0,0.0,0,0
2026-06-16 15:45:08.334,721681,L_Ankle,0.1286,0.0207,0.9933,5.41,-0.84,-10.3,0.0,0.0,0.0,0.951323,0.042085,-0.06711,0.2978,0.0,0.0,0.0,0,0
2026-06-16 15:45:08.335,721492,R_Ankle,0.013,-0.0161,1.0177,0.78,-1.73,-0.49,-21.63,29.95,-26.41,0.219367,0.089114,0.01941,0.971343,0.0,0.0,0.0,0,0
2026-06-16 15:45:08.337,721512,R_Ankle,0.0121,-0.0042,1.0072,0.77,-1.73,-0.49,-20.1,29.81,-26.55,0.219337,0.089114,0.01941,0.971343,0.0,0.0,0.0,0,0
2026-06-16 15:45:08.338,721532,R_Ankle,0.015,-0.0131,1.0067,0.77,-1.73,-0.49,0.0,0.0,0.0,0.219367,0.089084,0.01941,0.971343,0.0,0.0,0.0,0,0
2026-06-16 15:45:08.340,721552,R_Ankle,0.017,-0.0062,1.0038,0.77,-1.74,-0.51,-21.44,30.41,-25.03,0.219367,0.089114,0.01941,0.971343,0.0,0.0,0.0,0,0
2026-06-16 15:45:08.342,721494,R_Shank,0.0355,-0.9728,1.0061,-0.09,-1.47,-8.41,-16.79,26.12,-20.77,0.928892,0.034944,-0.0206,0.368053,0.0,0.0,0.0,0,0
2026-06-16 15:45:08.344,721636,L_Shank,0.0047,-0.0185,0.9892,1.75,-1.18,-0.19,-5.04,14.46,-21.75,0.988311,-0.0047,-0.025544,0.150151,0.0,0.0,0.0,0,0
2026-06-16 15:45:08.345,721514,R_Shank,0.0345,2.3688,1.0167,-0.09,-1.45,-8.41,-17.28,25.31,-20.62,0.928892,0.034974,-0.0206,0.368053,0.0,0.0,0.0,0,0
2026-06-16 15:45:08.347,721534,R_Shank,0.0453,-0.3316,0.997,-0.09,-1.45,-8.41,0.0,0.0,0.0,0.928892,0.034944,-0.020569,0.368053,0.0,0.0,0.0,0,0
2026-06-16 15:45:08.347,721637,L_Shank,0.0086,-0.0204,0.9897,1.76,-1.18,-0.19,-5.19,13.98,-24.07,0.988311,-0.00473,-0.025544,0.150151,0.0,0.0,0.0,0,0
2026-06-16 15:45:08.349,721657,L_Shank,0.0008,-0.019,0.9988,1.76,-1.19,-0.21,-5.02,13.81,-23.61,0.988311,-0.00473,-0.025544,0.150151,0.0,0.0,0.0,0,0
2026-06-16 15:45:08.349,721554,R_Shank,0.0414,0.8276,1.0152,-0.09,-1.46,-8.42,-16.42,24.79,-21.09,0.928892,0.034974,-0.020539,0.368053,0.0,0.0,0.0,0,0
2026-06-16 15:45:08.351,721677,L_Shank,0.0003,-0.0273,0.9935,1.77,-1.18,-0.21,0.0,0.0,0.0,0.988311,-0.00473,-0.025544,0.150151,0.0,0.0,0.0,0,0
2026-06-16 15:45:08.352,721644,L_Ankle,0.1305,0.0202,0.9808,5.41,-0.83,-10.31,-37.71,-0.73,-42.07,0.951323,0.042085,-0.06711,0.2978,0.0,0.0,0.0,0,0
2026-06-16 15:45:08.354,721664,L_Ankle,0.132,0.0202,0.9813,5.4,-0.84,-10.3,-39.44,-1.06,-41.42,0.951323,0.042085,-0.06711,0.2978,0.0,0.0,0.0,0,0
2026-06-16 15:45:08.356,721512,R_Hip,0.0456,0.0089,0.9919,0.26,-1.57,1.78,-19.6,29.08,-32.14,0.931394,-0.005005,-0.042055,-0.361431,0.0,0.0,0.0,0,0
2026-06-16 15:45:08.357,721684,L_Ankle,0.1227,0.0202,0.9971,5.41,-0.82,-10.29,-37.7,-1.44,-42.41,0.951323,0.042085,-0.06711,0.2978,0.0,0.0,0.0,0,0
2026-06-16 15:45:08.358,721532,R_Hip,0.0417,0.0074,0.9789,0.26,-1.56,1.78,0.0,0.0,0.0,0.931394,-0.005036,-0.042024,-0.361461,0.0,0.0,0.0,0,0
2026-06-16 15:45:08.359,721704,L_Ankle,0.1241,0.0129,0.9952,5.41,-0.83,-10.29,0.0,0.0,0.0,0.951323,0.042085,-0.06711,0.2978,0.0,0.0,0.0,0,0
2026-06-16 15:45:08.360,721552,R_Hip,0.0417,0.0006,0.9861,0.27,-1.57,1.78,-19.23,28.72,-31.11,0.931425,-0.005036,-0.042024,-0.361431,0.0,0.0,0.0,0,0
2026-06-16 15:45:08.362,721654,L_Hip,0.1151,-0.071,0.9832,-4.15,4.51,2.96,-17.11,18.84,-26.41,0.955138,-0.046022,-0.060274,-0.286203,0.0,0.0,0.0,0,0
2026-06-16 15:45:08.363,721572,R_Hip,0.0486,0.0181,0.9823,0.27,-1.58,1.77,-19.05,27.08,-32.99,0.931425,-0.005036,-0.042024,-0.361431,0.0,0.0,0.0,0,0
2026-06-16 15:45:08.365,721674,L_Hip,0.1176,-0.0705,0.9832,-4.16,4.5,2.97,-17.97,18.34,-26.25,0.955138,-0.046022,-0.060305,-0.286203,0.0,0.0,0.0,0,0
2026-06-16 15:45:08.366,721514,R_Ankle,0.017,-0.0096,1.0029,0.76,-1.72,-0.48,-21.1,31.71,-26.58,0.219337,0.089145,0.01941,0.971343,0.0,0.0,0.0,0,0
2026-06-16 15:45:08.367,721694,L_Hip,0.119,-0.0705,0.9846,-4.15,4.49,2.96,-19.16,18.47,-25.51,0.955138,-0.046052,-0.060274,-0.286203,0.0,0.0,0.0,0,0
2026-06-16 15:45:08.369,721714,L_Hip,0.122,-0.0681,0.9832,-4.16,4.49,2.97,0.0,0.0,0.0,0.955138,-0.046052,-0.060244,-0.286203,0.0,0.0,0.0,0,0
2026-06-16 15:45:08.370,721534,R_Ankle,0.0155,-0.0101,0.999,0.77,-1.72,-0.48,-19.91,31.55,-26.11,0.219337,0.089145,0.019379,0.971343,0.0,0.0,0.0,0,0
2026-06-16 15:45:08.371,721661,L_Shank,0.0067,-0.0156,0.9791,1.76,-1.17,-0.2,-4.48,16.03,-25.04,0.988311,-0.0047,-0.025544,0.150151,0.0,0.0,0.0,0,0
2026-06-16 15:45:08.373,721554,R_Ankle,0.0116,-0.0062,1.0038,0.77,-1.74,-0.5,-20.43,31.39,-26.57,0.219337,0.089175,0.01941,0.971343,0.0,0.0,0.0,0,0
2026-06-16 15:45:08.373,721681,L_Shank,-0.0094,-0.0204,0.9714,1.77,-1.19,-0.2,-5.18,14.33,-24.39,0.988311,-0.0047,-0.025575,0.150151,0.0,0.0,0.0,0,0
2026-06-16 15:45:08.375,721574,R_Ankle,0.0135,-0.0086,1.0053,0.77,-1.73,-0.48,0.0,0.0,0.0,0.219337,0.089175,0.01941,0.971343,0.0,0.0,0.0,0,0
2026-06-16 15:45:08.376,721701,L_Shank,-0.001,-0.0214,0.9878,1.76,-1.18,-0.19,-4.5,14.64,-22.84,0.988311,-0.00473,-0.025544,0.150151,0.0,0.0,0.0,0,0
2026-06-16 15:45:08.378,721517,R_Shank,0.0414,0.9572,1.0119,-0.09,-1.47,-8.43,-16.09,25.12,-21.09,0.928892,0.034974,-0.020539,0.368053,0.0,0.0,0.0,0,0
2026-06-16 15:45:08.379,721662,L_Shank,0.0018,-0.0278,0.9959,1.75,-1.19,-0.2,0.0,0.0,0.0,0.988311,-0.00473,-0.025544,0.150151,0.0,0.0,0.0,0,0
2026-06-16 15:45:08.380,721537,R_Shank,0.0424,-0.8432,1.0176,-0.09,-1.45,-8.41,0.0,0.0,0.0,0.928892,0.034974,-0.020569,0.368053,0.0,0.0,0.0,0,0
2026-06-16 15:45:08.381,721666,L_Ankle,0.1281,0.0241,0.9856,5.41,-0.83,-10.31,-36.67,-1.46,-43.07,0.951323,0.042085,-0.067141,0.29783,0.0,0.0,0.0,0,0
2026-06-16 15:45:08.383,721557,R_Shank,0.0326,0.5684,0.9989,-0.09,-1.46,-8.42,-16.8,25.8,-19.57,0.928892,0.034974,-0.020569,0.368053,0.0,0.0,0.0,0,0
2026-06-16 15:45:08.384,721686,L_Ankle,0.1237,0.0153,0.9899,5.42,-0.83,-10.3,-38.94,-0.89,-42.26,0.951323,0.042085,-0.067141,0.29783,0.0,0.0,0.0,0,0
2026-06-16 15:45:08.385,721577,R_Shank,0.0345,-0.584,1.0167,-0.09,-1.47,-8.41,-15.78,25.45,-19.59,0.928892,0.034974,-0.020539,0.368053,0.0,0.0,0.0,0,0
2026-06-16 15:45:08.386,721706,L_Ankle,0.1276,0.0144,0.9789,5.42,-0.82,-10.29,-38.4,-1.79,-42.43,0.951292,0.042085,-0.067141,0.29783,0.0,0.0,0.0,0,0
2026-06-16 15:45:08.388,721726,L_Ankle,0.1305,0.0207,0.9803,5.42,-0.84,-10.29,-38.81,0.69,-43.44,0.951292,0.042085,-0.067141,0.29783,0.0,0.0,0.0,0,0
2026-06-16 15:45:08.406,721699,L_Hip,0.1195,-0.0705,0.9914,-4.16,4.52,2.96,-17.33,17.7,-24.81,0.955138,-0.046083,-0.060244,-0.286203,0.0,0.0,0.0,0,0
2026-06-16 15:45:08.408,721719,L_Hip,0.1215,-0.0685,0.9919,-4.16,4.51,2.96,-17.79,19.15,-26.11,0.955138,-0.046052,-0.060244,-0.286203,0.0,0.0,0.0,0,0
2026-06-16 15:45:08.409,721739,L_Hip,0.1171,-0.0676,0.9958,-4.16,4.51,2.97,-17.48,17.54,-26.11,0.955138,-0.046052,-0.060244,-0.286203,0.0,0.0,0.0,0,0
2026-06-16 15:45:08.411,721759,L_Hip,0.1283,-0.0651,0.9866,-4.15,4.5,2.97,-18.67,17.68,-25.66,0.955138,-0.046083,-0.060244,-0.286203,0.0,0.0,0.0,0,0
2026-06-16 15:45:08.425,721582,R_Ankle,0.0135,-0.0151,1.0034,0.77,-1.72,-0.49,-19.92,30.6,-26.71,0.219337,0.089175,0.01941,0.971343,0.0,0.0,0.0,0,0
2026-06-16 15:45:08.427,721602,R_Ankle,0.0101,-0.0131,0.9909,0.76,-1.73,-0.48,-20.77,30.11,-25.64,0.219337,0.089175,0.01941,0.971343,0.0,0.0,0.0,0,0
2026-06-16 15:45:08.429,721721,L_Hip,0.1195,-0.0744,0.9832,-4.15,4.5,2.99,-19.47,19.11,-26.38,0.955138,-0.046083,-0.060244,-0.286203,0.0,0.0,0.0,0,0
2026-06-16 15:45:08.430,721622,R_Ankle,0.0204,-0.0126,0.9995,0.76,-1.72,-0.48,0.0,0.0,0.0,0.219337,0.089175,0.019379,0.971343,0.0,0.0,0.0,0,0
2026-06-16 15:45:08.431,721741,L_Hip,0.119,-0.0749,1.0021,-4.16,4.5,2.97,0.0,0.0,0.0,0.955138,-0.046083,-0.060213,-0.286172,0.0,0.0,0.0,0,0
2026-06-16 15:45:08.432,721642,R_Ankle,0.0199,-0.0116,0.9981,0.77,-1.72,-0.48,-19.93,30.61,-27.02,0.219337,0.089206,0.019379,0.971343,0.0,0.0,0.0,0,0
2026-06-16 15:45:08.434,721761,L_Hip,0.119,-0.0685,0.9885,-4.16,4.51,2.97,-19.51,17.5,-25.79,0.955138,-0.046052,-0.060213,-0.286172,0.0,0.0,0.0,0,0
2026-06-16 15:45:08.435,721585,R_Shank,0.0434,1.4688,1.009,-0.08,-1.46,-8.42,-16.26,25.94,-22.14,0.928892,0.034944,-0.020539,0.368053,0.0,0.0,0.0,0,0
2026-06-16 15:45:08.437,721722,L_Hip,0.1249,-0.071,0.9866,-4.15,4.5,2.97,-18.82,18.48,-25.52,0.955138,-0.046052,-0.060213,-0.286172,0.0,0.0,0.0,0,0
2026-06-16 15:45:08.438,721605,R_Shank,0.0453,-2.132,1.0186,-0.09,-1.47,-8.41,0.0,0.0,0.0,0.928892,0.034944,-0.020539,0.368053,0.0,0.0,0.0,0,0
2026-06-16 15:45:08.440,721625,R_Shank,0.0419,2.2392,0.9994,-0.09,-1.46,-8.43,-16.6,25.62,-21.84,0.928892,0.034944,-0.020539,0.368053,0.0,0.0,0.0,0,0
2026-06-16 15:45:08.441,721734,L_Ankle,0.1261,0.0153,0.9803,5.42,-0.82,-10.29,-38.07,-0.37,-42.07,0.951292,0.042116,-0.067171,0.29783,0.0,0.0,0.0,0,0
2026-06-16 15:45:08.442,721645,R_Shank,0.0365,3.01,1.0119,-0.08,-1.47,-8.41,-16.27,25.95,-21.23,0.928892,0.034974,-0.020539,0.368053,0.0,0.0,0.0,0,0
2026-06-16 15:45:08.443,721754,L_Ankle,0.1276,0.007,0.9698,5.42,-0.83,-10.29,0.0,0.0,0.0,0.951292,0.042116,-0.067171,0.29783,0.0,0.0,0.0,0,0
2026-06-16 15:45:08.445,721587,R_Hip,0.0412,0.0074,0.9943,0.26,-1.58,1.77,-17.96,28.17,-32.31,0.931425,-0.005005,-0.042024,-0.361431,0.0,0.0,0.0,0,0
2026-06-16 15:45:08.446,721774,L_Ankle,0.133,0.0075,0.9966,5.41,-0.83,-10.3,-38.44,-1.08,-44.12,0.951292,0.042116,-0.067171,0.29783,0.0,0.0,0.0,0,0
2026-06-16 15:45:08.447,721607,R_Hip,0.051,0.0089,0.9938,0.26,-1.57,1.78,0.0,0.0,0.0,0.931425,-0.004975,-0.042024,-0.361431,0.0,0.0,0.0,0,0
2026-06-16 15:45:08.449,721794,L_Ankle,0.1241,0.0266,0.9856,5.41,-0.83,-10.29,-38.08,-0.73,-43.1,0.951292,0.042116,-0.067171,0.29783,0.0,0.0,0.0,0,0
2026-06-16 15:45:08.450,721627,R_Hip,0.0436,0.0093,0.9871,0.26,-1.58,1.77,-19.42,27.81,-32.65,0.931425,-0.004975,-0.042024,-0.361431,0.0,0.0,0.0,0,0
2026-06-16 15:45:08.452,721736,L_Shank,-0.0001,-0.0219,0.981,1.77,-1.19,-0.2,-5.37,14.48,-22.99,0.988311,-0.00473,-0.025544,0.150151,0.0,0.0,0.0,0,0
2026-06-16 15:45:08.453,721647,R_Hip,0.0496,0.0093,0.9842,0.27,-1.57,1.77,-19.23,27.99,-31.79,0.931425,-0.004975,-0.042024,-0.361431,0.0,0.0,0.0,0,0
2026-06-16 15:45:08.454,721756,L_Shank,0.0042,-0.0214,0.9714,1.77,-1.19,-0.2,-4.49,14.66,-24.09,0.988311,-0.00473,-0.025544,0.150151,0.0,0.0,0.0,0,0
2026-06-16 15:45:08.456,721776,L_Shank,0.0067,-0.0288,0.9878,1.77,-1.18,-0.19,-5.19,13.64,-23.76,0.988311,-0.00473,-0.025544,0.150151,0.0,0.0,0.0,0,0
2026-06-16 15:45:08.457,721612,R_Hip,0.052,0.0015,0.9914,0.26,-1.58,1.77,-18.69,27.44,-32.65,0.931425,-0.004975,-0.042024,-0.361431,0.0,0.0,0.0,0,0
2026-06-16 15:45:08.459,721632,R_Hip,0.0476,0.0181,0.99,0.26,-1.56,1.77,0.0,0.0,0.0,0.931425,-0.004975,-0.042024,-0.361431,0.0,0.0,0.0,0,0
2026-06-16 15:45:08.459,721796,L_Shank,-0.0015,-0.019,0.9825,1.77,-1.19,-0.19,-5.53,15.35,-25.02,0.988311,-0.004761,-0.025575,0.150151,0.0,0.0,0.0,0,0
2026-06-16 15:45:08.461,721652,R_Hip,0.0377,-0.0023,0.9885,0.28,-1.58,1.78,-18.87,27.26,-31.79,0.931425,-0.004975,-0.042055,-0.361431,0.0,0.0,0.0,0,0
2026-06-16 15:45:08.463,721672,R_Hip,0.0491,0.0074,0.9996,0.26,-1.56,1.77,-19.05,27.08,-32.99,0.931425,-0.004975,-0.042055,-0.361431,0.0,0.0,0.0,0,0
2026-06-16 15:45:08.464,721756,L_Ankle,0.1286,0.0149,0.9808,5.41,-0.83,-10.3,-37.7,-2.51,-43.1,0.951292,0.042116,-0.067202,0.29783,0.0,0.0,0.0,0,0
2026-06-16 15:45:08.466,721776,L_Ankle,0.1261,0.0158,0.9904,5.41,-0.82,-10.29,0.0,0.0,0.0,0.951292,0.042116,-0.067171,0.29783,0.0,0.0,0.0,0,0
2026-06-16 15:45:08.468,721757,L_Ankle,0.1271,0.0163,0.9851,5.41,-0.83,-10.29,-38.56,-2.67,-42.6,0.951292,0.042116,-0.067202,0.29783,0.0,0.0,0.0,0,0
2026-06-16 15:45:08.470,721777,L_Ankle,0.13,0.0149,0.9885,5.41,-0.83,-10.29,-38.07,-0.73,-42.76,0.951292,0.042116,-0.067232,0.29783,0.0,0.0,0.0,0,0
2026-06-16 15:45:08.472,721761,L_Shank,-0.0006,-0.0146,0.9806,1.75,-1.18,-0.19,-5.54,15.33,-23.47,0.988311,-0.00473,-0.025575,0.150151,0.0,0.0,0.0,0,0
2026-06-16 15:45:08.474,721629,R_Shank,0.038,-1.8728,1.0109,-0.08,-1.46,-8.43,-16.47,26.78,-20.47,0.928892,0.035005,-0.020508,0.368053,0.0,0.0,0.0,0,0
2026-06-16 15:45:08.476,721781,L_Shank,0.0081,-0.017,0.9916,1.75,-1.19,-0.2,0.0,0.0,0.0,0.988311,-0.0047,-0.025575,0.150151,0.0,0.0,0.0,0,0
2026-06-16 15:45:08.477,721649,R_Shank,0.0458,0.5684,1.0172,-0.09,-1.47,-8.43,0.0,0.0,0.0,0.928892,0.035005,-0.020508,0.368053,0.0,0.0,0.0,0,0
2026-06-16 15:45:08.478,721801,L_Shank,-0.0006,-0.017,0.9983,1.76,-1.17,-0.19,-5.53,15.34,-24.09,0.988311,-0.00473,-0.025575,0.150151,0.0,0.0,0.0,0,0
2026-06-16 15:45:08.481,721669,R_Shank,0.0394,-2.3844,1.0205,-0.09,-1.45,-8.43,-15.43,26.09,-21.69,0.928892,0.035005,-0.020508,0.368023,0.0,0.0,0.0,0,0
2026-06-16 15:45:08.482,721821,L_Shank,0.0111,-0.0258,0.9791,1.75,-1.19,-0.2,-5.53,14.67,-24.39,0.988311,-0.0047,-0.025544,0.150151,0.0,0.0,0.0,0,0
2026-06-16 15:45:08.484,721766,L_Hip,0.119,-0.0671,0.9846,-4.16,4.51,2.96,-19.33,18.63,-25.07,0.955138,-0.046052,-0.060213,-0.286172,0.0,0.0,0.0,0,0
2026-06-16 15:45:08.485,721689,R_Shank,0.0434,-1.6136,1.0143,-0.09,-1.45,-8.41,-16.78,25.79,-21.08,0.928892,0.035005,-0.020508,0.368023,0.0,0.0,0.0,0,0
2026-06-16 15:45:08.487,721786,L_Hip,0.1141,-0.0744,0.9822,-4.16,4.51,2.96,0.0,0.0,0.0,0.955138,-0.046052,-0.060213,-0.286172,0.0,0.0,0.0,0,0
2026-06-16 15:45:08.488,721637,R_Hip,0.0481,0.001,0.9914,0.27,-1.58,1.76,-19.05,27.07,-31.28,0.931425,-0.005005,-0.042024,-0.3614,0.0,0.0,0.0,0,0
2026-06-16 15:45:08.491,721806,L_Hip,0.1102,-0.071,0.9943,-4.16,4.49,2.96,-18.83,18.15,-25.22,0.955138,-0.046083,-0.060213,-0.286172,0.0,0.0,0.0,0,0
2026-06-16 15:45:08.491,721657,R_Hip,0.0441,0.0093,0.9861,0.25,-1.56,1.78,0.0,0.0,0.0,0.931425,-0.004975,-0.042024,-0.3614,0.0,0.0,0.0,0,0
2026-06-16 15:45:08.494,721767,L_Hip,0.1068,-0.0715,0.9885,-4.16,4.5,2.97,-18.97,19.6,-25.37,0.955138,-0.046052,-0.060183,-0.286172,0.0,0.0,0.0,0,0
2026-06-16 15:45:08.495,721677,R_Hip,0.0451,0.0045,0.9914,0.26,-1.57,1.77,-18.32,27.07,-32.3,0.931425,-0.005005,-0.042024,-0.3614,0.0,0.0,0.0,0,0
2026-06-16 15:45:08.497,721786,L_Shank,0.0008,-0.0204,0.9892,1.76,-1.18,-0.2,-5.71,15.17,-24.24,0.988311,-0.0047,-0.025575,0.150151,0.0,0.0,0.0,0,0
2026-06-16 15:45:08.498,721697,R_Hip,0.0505,0.004,0.9967,0.27,-1.57,1.78,-19.41,26.71,-31.28,0.931425,-0.005005,-0.042024,-0.361431,0.0,0.0,0.0,0,0
2026-06-16 15:45:08.500,721806,L_Shank,0.0072,-0.0146,0.9858,1.77,-1.18,-0.22,0.0,0.0,0.0,0.988311,-0.0047,-0.025575,0.150151,0.0,0.0,0.0,0,0
2026-06-16 15:45:08.502,721826,L_Shank,0.0013,-0.0126,0.9954,1.77,-1.18,-0.21,-4.31,14.84,-24.87,0.988311,-0.0047,-0.025575,0.150151,0.0,0.0,0.0,0,0
2026-06-16 15:45:08.503,721650,R_Ankle,0.0175,-0.0076,1.0091,0.78,-1.72,-0.49,-20.93,31.86,-26.12,0.219306,0.089206,0.019379,0.971343,0.0,0.0,0.0,0,0
2026-06-16 15:45:08.504,721846,L_Shank,0.0062,-0.0165,0.9916,1.75,-1.18,-0.18,-4.31,14.5,-24.56,0.988311,-0.0047,-0.025636,0.150151,0.0,0.0,0.0,0,0
2026-06-16 15:45:08.505,721670,R_Ankle,0.0189,-0.0111,1.0105,0.77,-1.73,-0.49,-20.42,32.02,-26.27,0.219306,0.089236,0.01941,0.971343,0.0,0.0,0.0,0,0
2026-06-16 15:45:08.507,721690,R_Ankle,0.0116,-0.0166,0.9928,0.77,-1.71,-0.48,-20.6,31.55,-26.73,0.219306,0.089236,0.01941,0.971343,0.0,0.0,0.0,0,0
2026-06-16 15:45:08.509,721710,R_Ankle,0.0111,-0.0101,1.0091,0.77,-1.73,-0.49,0.0,0.0,0.0,0.219306,0.089236,0.01941,0.971343,0.0,0.0,0.0,0,0
2026-06-16 15:45:08.514,721652,R_Shank,0.0419,0.698,1.008,-0.09,-1.46,-8.41,-16.26,25.29,-20.94,0.928892,0.035005,-0.020508,0.368023,0.0,0.0,0.0,0,0
2026-06-16 15:45:08.517,721672,R_Shank,0.0399,-2.3844,0.996,-0.09,-1.45,-8.42,0.0,0.0,0.0,0.928892,0.035005,-0.020539,0.368053,0.0,0.0,0.0,0,0
2026-06-16 15:45:08.519,721692,R_Shank,0.0429,3.01,1.0186,-0.09,-1.48,-8.41,-16.8,26.13,-19.87,0.928892,0.034974,-0.020539,0.368053,0.0,0.0,0.0,0,0
2026-06-16 15:45:08.522,721712,R_Shank,0.0291,3.1396,1.008,-0.08,-1.47,-8.42,-17.6,24.98,-21.23,0.928892,0.034974,-0.020539,0.368053,0.0,0.0,0.0,0,0
2026-06-16 15:45:08.524,721662,R_Hip,0.0476,0.0079,0.9856,0.29,-1.58,1.77,-18.32,27.44,-31.62,0.931425,-0.005005,-0.042024,-0.361431,0.0,0.0,0.0,0,0
2026-06-16 15:45:08.527,721682,R_Hip,0.0436,0.001,0.9828,0.28,-1.57,1.79,0.0,0.0,0.0,0.931425,-0.005005,-0.042055,-0.361431,0.0,0.0,0.0,0,0
2026-06-16 15:45:08.529,721702,R_Hip,0.0456,0.0069,0.9765,0.27,-1.57,1.77,-19.96,26.89,-32.13,0.931425,-0.004975,-0.042055,-0.3614,0.0,0.0,0.0,0,0
2026-06-16 15:45:08.531,721823,L_Ankle,0.1335,0.0139,0.988,5.41,-0.83,-10.31,-38.76,-1.78,-43.11,0.951292,0.042116,-0.067202,0.297861,0.0,0.0,0.0,0,0
2026-06-16 15:45:08.533,721722,R_Hip,0.0466,0.0045,0.9919,0.25,-1.57,1.77,-17.77,26.89,-30.76,0.931425,-0.005005,-0.042055,-0.361431,0.0,0.0,0.0,0,0
2026-06-16 15:45:08.533,721843,L_Ankle,0.1256,0.0075,0.9683,5.4,-0.83,-10.3,0.0,0.0,0.0,0.951292,0.042116,-0.067202,0.297861,0.0,0.0,0.0,0,0
2026-06-16 15:45:08.536,721673,R_Ankle,0.0165,-0.0181,0.9933,0.77,-1.73,-0.48,-20.61,30.92,-27.34,0.219306,0.089236,0.01941,0.971343,0.0,0.0,0.0,0,0
2026-06-16 15:45:08.536,721863,L_Ankle,0.1222,0.0222,0.9851,5.41,-0.83,-10.29,-37.36,-1.8,-42.75,0.951292,0.042116,-0.067202,0.297861,0.0,0.0,0.0,0,0
2026-06-16 15:45:08.539,721883,L_Ankle,0.1261,0.0124,0.9755,5.41,-0.83,-10.32,-38.94,-0.89,-42.6,0.951292,0.042116,-0.067202,0.297861,0.0,0.0,0.0,0,0
2026-06-16 15:45:08.540,721693,R_Ankle,0.0145,-0.0116,1.0115,0.77,-1.7,-0.5,-20.93,32.18,-26.74,0.219306,0.089267,0.019379,0.971343,0.0,0.0,0.0,0,0
2026-06-16 15:45:08.542,721834,L_Hip,0.1229,-0.0671,0.9706,-4.16,4.51,2.98,-17.78,19.15,-26.41,0.955138,-0.046052,-0.060213,-0.286172,0.0,0.0,0.0,0,0
2026-06-16 15:45:08.542,721713,R_Ankle,0.0165,0.0017,1.0038,0.76,-1.72,-0.49,-20.43,30.44,-26.25,0.219306,0.089267,0.01941,0.971343,0.0,0.0,0.0,0,0
2026-06-16 15:45:08.545,721854,L_Hip,0.1171,-0.0764,0.9788,-4.16,4.51,2.97,0.0,0.0,0.0,0.955138,-0.046052,-0.060213,-0.286172,0.0,0.0,0.0,0,0
2026-06-16 15:45:08.545,721733,R_Ankle,0.014,-0.019,0.9952,0.76,-1.73,-0.48,0.0,0.0,0.0,0.219306,0.089236,0.019379,0.971343,0.0,0.0,0.0,0,0
2026-06-16 15:45:08.548,721874,L_Hip,0.1239,-0.0656,0.9769,-4.15,4.5,2.96,-17.68,16.4,-25.38,0.955138,-0.046052,-0.060213,-0.286172,0.0,0.0,0.0,0,0
2026-06-16 15:45:08.548,721697,R_Shank,0.0483,-0.8432,1.0095,-0.09,-1.46,-8.42,-15.76,25.44,-21.39,0.928892,0.034974,-0.020539,0.368053,0.0,0.0,0.0,0,0
2026-06-16 15:45:08.551,721894,L_Hip,0.1205,-0.0789,0.9948,-4.16,4.51,2.96,-19.0,18.31,-25.37,0.955168,-0.046052,-0.060213,-0.286172,0.0,0.0,0.0,0,0
2026-06-16 15:45:08.552,721717,R_Shank,0.0394,-1.1024,1.0181,-0.08,-1.48,-8.41,0.0,0.0,0.0,0.928892,0.034974,-0.020539,0.368053,0.0,0.0,0.0,0,0
2026-06-16 15:45:08.553,721836,L_Shank,0.0008,-0.0185,0.9935,1.75,-1.19,-0.19,-4.48,15.35,-24.41,0.988311,-0.0047,-0.025636,0.150151,0.0,0.0,0.0,0,0
2026-06-16 15:45:08.554,721737,R_Shank,0.0404,0.8276,0.998,-0.07,-1.47,-8.42,-16.44,25.46,-20.18,0.928892,0.035005,-0.020539,0.368053,0.0,0.0,0.0,0,0
2026-06-16 15:45:08.556,721856,L_Shank,-0.003,-0.019,0.9897,1.76,-1.19,-0.19,0.0,0.0,0.0,0.988311,-0.0047,-0.025605,0.150151,0.0,0.0,0.0,0,0
2026-06-16 15:45:08.558,721757,R_Shank,0.0409,1.4688,1.0148,-0.09,-1.46,-8.43,-17.44,25.14,-21.08,0.928892,0.035005,-0.020539,0.368053,0.0,0.0,0.0,0,0
2026-06-16 15:45:08.559,721876,L_Shank,0.0091,-0.019,0.9887,1.75,-1.18,-0.19,-5.18,13.65,-24.38,0.988311,-0.0047,-0.025605,0.150151,0.0,0.0,0.0,0,0
2026-06-16 15:45:08.561,721712,R_Hip,0.0422,0.0103,0.9842,0.26,-1.58,1.77,-18.87,27.26,-32.82,0.931425,-0.005005,-0.042024,-0.361431,0.0,0.0,0.0,0,0
2026-06-16 15:45:08.562,721896,L_Shank,0.0111,-0.0253,0.9897,1.77,-1.19,-0.19,-5.18,15.34,-24.4,0.988311,-0.0047,-0.025605,0.150151,0.0,0.0,0.0,0,0
2026-06-16 15:45:08.565,721732,R_Hip,0.0451,0.0089,0.9871,0.28,-1.57,1.77,0.0,0.0,0.0,0.931425,-0.004975,-0.042055,-0.361431,0.0,0.0,0.0,0,0
2026-06-16 15:45:08.565,721846,L_Ankle,0.1335,0.0241,0.9669,5.41,-0.81,-10.3,-38.77,-2.14,-43.79,0.951292,0.042116,-0.067202,0.297861,0.0,0.0,0.0,0,0
2026-06-16 15:45:08.567,721752,R_Hip,0.0427,0.0089,0.9919,0.25,-1.58,1.78,-19.23,27.99,-32.14,0.931425,-0.004975,-0.042055,-0.361431,0.0,0.0,0.0,0,0
2026-06-16 15:45:08.567,721866,L_Ankle,0.1286,0.0188,0.9885,5.41,-0.84,-10.3,0.0,0.0,0.0,0.951292,0.042116,-0.067202,0.297891,0.0,0.0,0.0,0,0
2026-06-16 15:45:08.570,721772,R_Hip,0.0431,0.0064,0.9842,0.26,-1.58,1.77,-19.05,27.44,-32.31,0.931425,-0.004975,-0.042055,-0.361431,0.0,0.0,0.0,0,0
2026-06-16 15:45:08.570,721886,L_Ankle,0.1197,0.0173,0.9851,5.41,-0.83,-10.29,-38.95,-1.25,-43.28,0.951292,0.042146,-0.067202,0.297891,0.0,0.0,0.0,0,0
2026-06-16 15:45:08.573,721719,R_Shank,0.0384,1.5984,0.9941,-0.08,-1.46,-8.43,-17.28,25.31,-20.62,0.928892,0.035005,-0.020539,0.368053,0.0,0.0,0.0,0,0
2026-06-16 15:45:08.573,721906,L_Ankle,0.1325,0.0051,0.9875,5.42,-0.83,-10.3,-37.37,-1.1,-43.09,0.951262,0.042146,-0.067202,0.297891,0.0,0.0,0.0,0,0
2026-06-16 15:45:08.576,721739,R_Shank,0.0453,-0.9728,1.0148,-0.1,-1.45,-8.41,-16.78,25.47,-20.18,0.928892,0.034974,-0.020539,0.368053,0.0,0.0,0.0,0,0
2026-06-16 15:45:08.576,721856,L_Hip,0.119,-0.0631,0.9861,-4.15,4.51,2.97,-17.94,20.91,-25.1,0.955168,-0.046052,-0.060244,-0.286172,0.0,0.0,0.0,0,0
2026-06-16 15:45:08.578,721876,L_Hip,0.1239,-0.0666,0.9909,-4.15,4.51,2.97,0.0,0.0,0.0,0.955168,-0.046052,-0.060244,-0.286172,0.0,0.0,0.0,0,0
2026-06-16 15:45:08.579,721759,R_Shank,0.0434,1.4688,1.0104,-0.09,-1.45,-8.42,-17.29,26.62,-21.52,0.928892,0.035005,-0.020539,0.368053,0.0,0.0,0.0,0,0
2026-06-16 15:45:08.582,721896,L_Hip,0.1185,-0.0671,0.9735,-4.16,4.5,2.97,-18.81,18.8,-25.81,0.955138,-0.046052,-0.060244,-0.286172,0.0,0.0,0.0,0,0
2026-06-16 15:45:08.582,721779,R_Shank,0.033,-1.8728,1.0138,-0.09,-1.45,-8.43,0.0,0.0,0.0,0.928892,0.035005,-0.020539,0.368023,0.0,0.0,0.0,0,0
2026-06-16 15:45:08.585,721857,L_Hip,0.1264,-0.0661,0.9837,-4.15,4.51,2.98,-17.79,19.14,-25.82,0.955168,-0.046052,-0.060213,-0.286172,0.0,0.0,0.0,0,0
2026-06-16 15:45:08.585,721740,R_Ankle,0.014,-0.0052,0.9995,0.76,-1.72,-0.5,-21.45,30.42,-25.65,0.219306,0.089236,0.01941,0.971343,0.0,0.0,0.0,0,0
2026-06-16 15:45:08.587,721760,R_Ankle,0.0253,-0.0076,0.9971,0.77,-1.72,-0.49,-20.43,31.08,-26.88,0.219306,0.089267,0.01941,0.971343,0.0,0.0,0.0,0,0
2026-06-16 15:45:08.588,721861,L_Shank,0.0072,-0.018,0.9801,1.77,-1.19,-0.2,-5.19,14.32,-24.08,0.988311,-0.0047,-0.025605,0.150151,0.0,0.0,0.0,0,0
2026-06-16 15:45:08.590,721881,L_Shank,0.0018,-0.0204,0.9954,1.78,-1.19,-0.2,0.0,0.0,0.0,0.988311,-0.0047,-0.025605,0.150151,0.0,0.0,0.0,0,0
2026-06-16 15:45:08.590,721780,R_Ankle,0.0121,-0.0101,1.0105,0.76,-1.71,-0.48,-18.9,29.97,-26.08,0.219306,0.089267,0.01941,0.971343,0.0,0.0,0.0,0,0
2026-06-16 15:45:08.593,721800,R_Ankle,0.0189,-0.0156,0.9813,0.76,-1.72,-0.49,0.0,0.0,0.0,0.219306,0.089297,0.01941,0.971343,0.0,0.0,0.0,0,0
2026-06-16 15:45:08.593,721862,L_Shank,0.0013,-0.018,0.982,1.76,-1.19,-0.2,-4.31,14.84,-24.87,0.988311,-0.004669,-0.025605,0.150151,0.0,0.0,0.0,0,0
2026-06-16 15:45:08.595,721882,L_Shank,-0.0015,-0.0058,0.9993,1.76,-1.17,-0.2,-4.84,14.66,-24.09,0.988311,-0.004669,-0.025636,0.150151,0.0,0.0,0.0,0,0
2026-06-16 15:45:08.597,721869,L_Ankle,0.1197,0.0178,0.9822,5.4,-0.83,-10.29,-37.86,-1.97,-41.91,0.951262,0.042116,-0.067232,0.297891,0.0,0.0,0.0,0,0
2026-06-16 15:45:08.599,721889,L_Ankle,0.1286,0.0119,0.9794,5.41,-0.83,-10.3,0.0,0.0,0.0,0.951262,0.042146,-0.067232,0.297891,0.0,0.0,0.0,0,0
2026-06-16 15:45:08.602,721909,L_Ankle,0.1163,0.0212,0.9885,5.41,-0.83,-10.3,-39.11,-0.71,-42.1,0.951262,0.042146,-0.067232,0.297891,0.0,0.0,0.0,0,0
2026-06-16 15:45:08.604,721929,L_Ankle,0.132,0.0153,1.0024,5.41,-0.83,-10.29,-38.75,-2.49,-43.11,0.951262,0.042116,-0.067232,0.297922,0.0,0.0,0.0,0,0
2026-06-16 15:45:08.606,721762,R_Hip,0.0476,0.0108,0.9919,0.26,-1.57,1.77,-19.78,25.24,-31.27,0.931425,-0.004975,-0.042055,-0.361431,0.0,0.0,0.0,0,0
2026-06-16 15:45:08.607,721879,L_Hip,0.122,-0.072,0.9885,-4.16,4.51,2.97,-18.66,17.68,-25.95,0.955168,-0.046083,-0.060183,-0.286172,0.0,0.0,0.0,0,0
2026-06-16 15:45:08.609,721782,R_Hip,0.0431,0.0059,1.002,0.26,-1.57,1.77,0.0,0.0,0.0,0.931425,-0.004975,-0.042055,-0.361431,0.0,0.0,0.0,0,0
2026-06-16 15:45:08.610,721899,L_Hip,0.1107,-0.0676,0.9933,-4.16,4.49,2.96,0.0,0.0,0.0,0.955168,-0.046083,-0.060183,-0.286172,0.0,0.0,0.0,0,0
2026-06-16 15:45:08.612,721802,R_Hip,0.0431,0.0064,0.9943,0.28,-1.57,1.77,-17.96,27.07,-31.62,0.931425,-0.004975,-0.042055,-0.361431,0.0,0.0,0.0,0,0
2026-06-16 15:45:08.613,721919,L_Hip,0.1288,-0.0754,0.9822,-4.16,4.51,2.97,-16.95,18.68,-25.98,0.955168,-0.046083,-0.060213,-0.286142,0.0,0.0,0.0,0,0
2026-06-16 15:45:08.615,721822,R_Hip,0.0476,0.0118,0.9953,0.25,-1.56,1.77,-18.51,27.26,-33.5,0.931425,-0.004975,-0.042055,-0.361431,0.0,0.0,0.0,0,0
2026-06-16 15:45:08.615,721939,L_Hip,0.1239,-0.0676,0.9943,-4.15,4.49,2.97,-17.81,18.82,-24.95,0.955168,-0.046083,-0.060213,-0.286172,0.0,0.0,0.0,0,0
2026-06-16 15:45:08.618,721764,R_Shank,0.0355,-0.0724,1.01,-0.1,-1.47,-8.42,-17.28,25.63,-21.23,0.928892,0.035005,-0.020539,0.368053,0.0,0.0,0.0,0,0
2026-06-16 15:45:08.620,721911,L_Shank,0.0091,-0.016,0.9777,1.75,-1.18,-0.2,-4.32,14.48,-23.31,0.988311,-0.004669,-0.025666,0.150151,0.0,0.0,0.0,0,0
2026-06-16 15:45:08.621,721784,R_Shank,0.0321,3.01,1.0052,-0.09,-1.47,-8.42,-16.58,24.95,-22.14,0.928892,0.035005,-0.020539,0.368053,0.0,0.0,0.0,0,0
2026-06-16 15:45:08.623,721931,L_Shank,-0.003,-0.0219,0.9921,1.74,-1.17,-0.21,0.0,0.0,0.0,0.988311,-0.004669,-0.025666,0.150151,0.0,0.0,0.0,0,0
2026-06-16 15:45:08.625,721804,R_Shank,0.0434,-2.6436,1.0316,-0.09,-1.47,-8.41,0.0,0.0,0.0,0.928892,0.035005,-0.020508,0.368053,0.0,0.0,0.0,0,0
2026-06-16 15:45:08.626,721951,L_Shank,-0.004,-0.0195,0.9988,1.75,-1.17,-0.2,-4.49,15.0,-23.78,0.988311,-0.004639,-0.025666,0.150151,0.0,0.0,0.0,0,0
2026-06-16 15:45:08.628,721824,R_Shank,0.0488,0.8276,1.0133,-0.09,-1.45,-8.42,-17.96,25.65,-20.92,0.928892,0.035005,-0.020539,0.368053,0.0,0.0,0.0,0,0
2026-06-16 15:45:08.629,721971,L_Shank,-0.0015,-0.018,1.0007,1.76,-1.19,-0.21,-4.49,13.98,-23.77,0.988311,-0.004608,-0.025666,0.150151,0.0,0.0,0.0,0,0
2026-06-16 15:45:08.632,721914,L_Ankle,0.1286,0.0173,0.9923,5.4,-0.83,-10.29,-38.78,-0.72,-43.11,0.951262,0.042116,-0.067232,0.297922,0.0,0.0,0.0,0,0
2026-06-16 15:45:08.632,721787,R_Hip,0.0427,0.002,0.9991,0.28,-1.58,1.79,-18.14,27.26,-32.47,0.931425,-0.004944,-0.042055,-0.361431,0.0,0.0,0.0,0,0
2026-06-16 15:45:08.635,721807,R_Hip,0.0505,0.0064,0.99,0.26,-1.58,1.77,0.0,0.0,0.0,0.931425,-0.004913,-0.042024,-0.361431,0.0,0.0,0.0,0,0
2026-06-16 15:45:08.635,721934,L_Ankle,0.1207,0.0173,0.9851,5.41,-0.83,-10.29,-38.4,-1.79,-42.43,0.951262,0.042116,-0.067232,0.297922,0.0,0.0,0.0,0,0
2026-06-16 15:45:08.637,721954,L_Ankle,0.1232,0.0251,0.9966,5.41,-0.83,-10.29,0.0,0.0,0.0,0.951262,0.042116,-0.067232,0.297922,0.0,0.0,0.0,0,0
2026-06-16 15:45:08.638,721827,R_Hip,0.0407,0.0147,0.9905,0.25,-1.58,1.77,-18.87,27.25,-31.45,0.931425,-0.004944,-0.042024,-0.361431,0.0,0.0,0.0,0,0
2026-06-16 15:45:08.640,721974,L_Ankle,0.1232,0.0183,0.9914,5.41,-0.83,-10.31,-38.21,-2.32,-41.91,0.951262,0.042085,-0.067232,0.297922,0.0,0.0,0.0,0,0
2026-06-16 15:45:08.640,721847,R_Hip,0.0431,0.0064,0.9982,0.26,-1.58,1.77,-17.59,27.44,-31.28,0.931425,-0.004944,-0.042024,-0.361431,0.0,0.0,0.0,0,0
2026-06-16 15:45:08.653,721809,R_Shank,0.0458,-2.3844,0.9989,-0.09,-1.47,-8.43,-18.63,25.66,-20.61,0.928892,0.035005,-0.020539,0.368053,0.0,0.0,0.0,0,0
2026-06-16 15:45:08.655,721946,L_Hip,0.12,-0.0744,0.9759,-4.16,4.51,2.98,-19.01,17.35,-25.36,0.955168,-0.046083,-0.060183,-0.286172,0.0,0.0,0.0,0,0
2026-06-16 15:45:08.656,721829,R_Shank,0.0438,-0.8432,1.0143,-0.08,-1.45,-8.43,-17.28,25.3,-20.93,0.928892,0.035005,-0.020539,0.368023,0.0,0.0,0.0,0,0
2026-06-16 15:45:08.657,721966,L_Hip,0.1171,-0.0764,0.9948,-4.15,4.51,2.98,-17.49,17.22,-26.11,0.955168,-0.046083,-0.060213,-0.286142,0.0,0.0,0.0,0,0
2026-06-16 15:45:08.659,721849,R_Shank,0.0438,-2.514,1.0037,-0.07,-1.45,-8.43,0.0,0.0,0.0,0.928892,0.035005,-0.020539,0.368023,0.0,0.0,0.0,0,0
2026-06-16 15:45:08.660,721986,L_Hip,0.1195,-0.07,0.9924,-4.14,4.51,2.96,0.0,0.0,0.0,0.955168,-0.046083,-0.060213,-0.286142,0.0,0.0,0.0,0,0
2026-06-16 15:45:08.662,721869,R_Shank,0.0409,-2.6436,1.0172,-0.09,-1.45,-8.41,-16.76,25.13,-21.08,0.928892,0.035005,-0.020539,0.368023,0.0,0.0,0.0,0,0
2026-06-16 15:45:08.662,722006,L_Hip,0.119,-0.0626,0.9832,-4.14,4.51,2.96,-16.94,19.64,-25.69,0.955168,-0.046052,-0.060213,-0.286142,0.0,0.0,0.0,0,0
2026-06-16 15:45:08.667,721959,L_Ankle,0.1192,0.0158,0.9909,5.41,-0.83,-10.31,-38.78,-1.08,-43.45,0.951262,0.042085,-0.067232,0.297922,0.0,0.0,0.0,0,0
2026-06-16 15:45:08.669,721979,L_Ankle,0.1339,0.0222,0.9808,5.41,-0.83,-10.29,-38.76,-1.43,-42.77,0.951262,0.042055,-0.067263,0.297922,0.0,0.0,0.0,0,0
2026-06-16 15:45:08.671,721999,L_Ankle,0.133,0.0158,0.9894,5.41,-0.83,-10.29,0.0,0.0,0.0,0.951262,0.042055,-0.067263,0.297922,0.0,0.0,0.0,0,0
2026-06-16 15:45:08.673,722019,L_Ankle,0.1261,0.0134,0.9813,5.42,-0.83,-10.31,-38.61,0.86,-42.25,0.951262,0.042085,-0.067263,0.297922,0.0,0.0,0.0,0,0
2026-06-16 15:45:08.674,721830,R_Ankle,0.0228,-0.0047,0.9919,0.77,-1.71,-0.49,-20.94,30.91,-26.42,0.219306,0.089267,0.01941,0.971343,0.0,0.0,0.0,0,0
2026-06-16 15:45:08.676,721961,L_Shank,0.0111,-0.0204,0.9806,1.77,-1.19,-0.2,-5.19,15.0,-24.09,0.988311,-0.004608,-0.025666,0.150151,0.0,0.0,0.0,0,0
2026-06-16 15:45:08.677,721850,R_Ankle,0.015,-0.0072,1.0048,0.77,-1.72,-0.49,-21.44,31.37,-25.66,0.219275,0.089328,0.01941,0.971343,0.0,0.0,0.0,0,0
2026-06-16 15:45:08.678,721981,L_Shank,0.0145,-0.0219,0.9815,1.77,-1.17,-0.22,0.0,0.0,0.0,0.988311,-0.004608,-0.025666,0.150151,0.0,0.0,0.0,0,0
2026-06-16 15:45:08.680,721870,R_Ankle,0.0135,-0.019,1.0014,0.77,-1.71,-0.48,-19.4,31.4,-26.25,0.219275,0.089297,0.01941,0.971343,0.0,0.0,0.0,0,0
2026-06-16 15:45:08.681,722001,L_Shank,-0.0006,-0.02,0.9777,1.77,-1.18,-0.22,-6.07,15.16,-23.3,0.988311,-0.004608,-0.025636,0.150121,0.0,0.0,0.0,0,0
2026-06-16 15:45:08.682,721890,R_Ankle,0.0057,-0.0096,1.0019,0.76,-1.72,-0.48,0.0,0.0,0.0,0.219275,0.089297,0.01941,0.971343,0.0,0.0,0.0,0,0
2026-06-16 15:45:08.683,722021,L_Shank,0.0003,-0.0224,0.993,1.75,-1.18,-0.2,-6.41,14.48,-23.6,0.988311,-0.004578,-0.025636,0.150121,0.0,0.0,0.0,0,0
2026-06-16 15:45:08.685,721837,R_Hip,0.0441,0.0113,0.9948,0.26,-1.57,1.78,-17.77,28.35,-31.79,0.931425,-0.004944,-0.042024,-0.361431,0.0,0.0,0.0,0,0
2026-06-16 15:45:08.686,721969,L_Hip,0.1279,-0.0656,0.99,-4.16,4.5,2.96,-18.46,18.49,-26.68,0.955168,-0.046052,-0.060213,-0.286142,0.0,0.0,0.0,0,0
2026-06-16 15:45:08.687,721857,R_Hip,0.051,0.0074,1.0006,0.26,-1.58,1.77,0.0,0.0,0.0,0.931425,-0.004944,-0.042024,-0.361431,0.0,0.0,0.0,0,0
2026-06-16 15:45:08.688,721989,L_Hip,0.1195,-0.07,0.989,-4.16,4.51,2.96,-18.0,18.01,-24.8,0.955168,-0.046022,-0.060244,-0.286142,0.0,0.0,0.0,0,0
2026-06-16 15:45:08.689,721877,R_Hip,0.0491,-0.0003,0.9938,0.26,-1.58,1.77,-19.42,25.98,-33.33,0.931425,-0.004913,-0.042024,-0.361431,0.0,0.0,0.0,0,0
2026-06-16 15:45:08.690,722009,L_Hip,0.1185,-0.0764,0.9914,-4.16,4.51,2.96,0.0,0.0,0.0,0.955168,-0.046052,-0.060244,-0.286142,0.0,0.0,0.0,0,0
2026-06-16 15:45:08.692,721897,R_Hip,0.0476,0.0054,0.9938,0.27,-1.58,1.78,-18.69,27.08,-34.01,0.931425,-0.004944,-0.042055,-0.361431,0.0,0.0,0.0,0,0
2026-06-16 15:45:08.693,722029,L_Hip,0.1171,-0.0641,0.9822,-4.16,4.51,2.96,-18.15,17.21,-26.68,0.955168,-0.046052,-0.060244,-0.286142,0.0,0.0,0.0,0,0
2026-06-16 15:45:08.695,721986,L_Shank,0.0072,-0.0288,0.9993,1.76,-1.19,-0.2,-3.97,14.83,-23.94,0.988311,-0.004578,-0.025666,0.150121,0.0,0.0,0.0,0,0
2026-06-16 15:45:08.697,721853,R_Ankle,0.017,-0.0086,1.0029,0.77,-1.73,-0.5,-20.94,29.95,-25.79,0.219275,0.089297,0.01941,0.971343,0.0,0.0,0.0,0,0
2026-06-16 15:45:08.697,722006,L_Shank,0.0013,-0.0293,0.9782,1.78,-1.18,-0.19,0.0,0.0,0.0,0.988311,-0.004578,-0.025666,0.150121,0.0,0.0,0.0,0,0
2026-06-16 15:45:08.699,721873,R_Ankle,0.017,-0.0141,1.0254,0.76,-1.72,-0.49,-19.74,31.08,-26.25,0.219275,0.089297,0.01944,0.971343,0.0,0.0,0.0,0,0
2026-06-16 15:45:08.700,722026,L_Shank,0.0111,-0.0195,0.9858,1.75,-1.18,-0.19,-5.18,13.99,-24.39,0.988311,-0.004578,-0.025666,0.150121,0.0,0.0,0.0,0,0
2026-06-16 15:45:08.702,721893,R_Ankle,0.0135,-0.0057,1.0053,0.77,-1.72,-0.48,-20.09,29.8,-25.63,0.219275,0.089297,0.01944,0.971343,0.0,0.0,0.0,0,0
2026-06-16 15:45:08.702,722046,L_Shank,0.0013,-0.018,0.9878,1.76,-1.18,-0.19,-4.65,14.16,-24.86,0.988311,-0.004578,-0.025666,0.150121,0.0,0.0,0.0,0,0
2026-06-16 15:45:08.704,721913,R_Ankle,0.0175,-0.0062,0.9976,0.77,-1.71,-0.49,-21.62,30.26,-25.8,0.219275,0.089297,0.01944,0.971343,0.0,0.0,0.0,0,0
2026-06-16 15:45:08.706,721862,R_Hip,0.0441,0.0074,1.0001,0.26,-1.57,1.77,-19.05,27.07,-31.96,0.931425,-0.004944,-0.042055,-0.361431,0.0,0.0,0.0,0,0
2026-06-16 15:45:08.707,721882,R_Hip,0.0318,0.0171,1.003,0.26,-1.56,1.77,0.0,0.0,0.0,0.931425,-0.004944,-0.042055,-0.361431,0.0,0.0,0.0,0,0
2026-06-16 15:45:08.710,721902,R_Hip,0.0427,0.001,0.9881,0.25,-1.57,1.77,-18.5,27.62,-31.45,0.931425,-0.004944,-0.042024,-0.361431,0.0,0.0,0.0,0,0
2026-06-16 15:45:08.712,722004,L_Ankle,0.1217,0.0144,0.9765,5.41,-0.82,-10.3,-38.21,-2.67,-42.26,0.951262,0.042085,-0.067263,0.297952,0.0,0.0,0.0,0,0
2026-06-16 15:45:08.713,721922,R_Hip,0.0505,0.0054,1.003,0.25,-1.58,1.78,-19.78,27.44,-32.65,0.931425,-0.004944,-0.041993,-0.361431,0.0,0.0,0.0,0,0
2026-06-16 15:45:08.714,722024,L_Ankle,0.1232,0.0192,0.988,5.41,-0.83,-10.3,-38.57,-1.25,-41.92,0.951262,0.042085,-0.067263,0.297952,0.0,0.0,0.0,0,0
2026-06-16 15:45:08.716,722044,L_Ankle,0.1232,0.0202,0.9818,5.42,-0.83,-10.29,0.0,0.0,0.0,0.951262,0.042055,-0.067293,0.297952,0.0,0.0,0.0,0,0
2026-06-16 15:45:08.718,722064,L_Ankle,0.1188,0.0222,0.9966,5.41,-0.83,-10.3,-38.78,-0.72,-43.45,0.951262,0.042055,-0.067293,0.297952,0.0,0.0,0.0,0,0
2026-06-16 15:45:08.719,721875,R_Ankle,0.0199,-0.0086,1.0,0.77,-1.72,-0.5,-19.05,30.43,-25.01,0.219275,0.089297,0.019471,0.971343,0.0,0.0,0.0,0,0
2026-06-16 15:45:08.721,721895,R_Ankle,0.0204,-0.0161,1.0081,0.76,-1.73,-0.5,-21.11,31.39,-26.89,0.219275,0.089328,0.019471,0.971343,0.0,0.0,0.0,0,0
2026-06-16 15:45:08.722,722014,L_Hip,0.1254,-0.0754,1.0074,-4.16,4.5,2.97,-18.31,18.33,-25.96,0.955168,-0.046022,-0.060244,-0.286142,0.0,0.0,0.0,0,0
2026-06-16 15:45:08.724,721915,R_Ankle,0.014,-0.0081,1.0072,0.76,-1.71,-0.5,-19.74,31.07,-25.94,0.219275,0.089358,0.01944,0.971343,0.0,0.0,0.0,0,0
2026-06-16 15:45:08.725,722034,L_Hip,0.1087,-0.071,0.988,-4.16,4.51,2.96,-18.32,18.65,-24.8,0.955168,-0.046022,-0.060244,-0.286142,0.0,0.0,0.0,0,0
2026-06-16 15:45:08.726,721935,R_Ankle,0.0248,-0.0131,0.9952,0.77,-1.71,-0.49,-21.77,31.36,-25.05,0.219275,0.089358,0.01944,0.971343,0.0,0.0,0.0,0,0
2026-06-16 15:45:08.727,722054,L_Hip,0.1161,-0.073,0.9769,-4.15,4.51,2.98,0.0,0.0,0.0,0.955168,-0.046022,-0.060244,-0.286142,0.0,0.0,0.0,0,0
2026-06-16 15:45:08.729,722074,L_Hip,0.1156,-0.0749,1.0117,-4.15,4.51,2.97,-17.46,18.83,-25.83,0.955168,-0.046052,-0.060244,-0.286142,0.0,0.0,0.0,0,0
2026-06-16 15:45:08.729,721877,R_Shank,0.0365,0.9572,1.0008,-0.09,-1.48,-8.41,-17.93,24.32,-21.23,0.928892,0.035005,-0.020539,0.368023,0.0,0.0,0.0,0,0
2026-06-16 15:45:08.731,721897,R_Shank,0.0438,2.3688,1.0028,-0.09,-1.46,-8.41,-16.78,25.79,-20.78,0.928892,0.035005,-0.020539,0.368023,0.0,0.0,0.0,0,0
2026-06-16 15:45:08.733,721917,R_Shank,0.0375,1.728,1.0244,-0.09,-1.47,-8.41,0.0,0.0,0.0,0.928892,0.035035,-0.020539,0.368053,0.0,0.0,0.0,0,0
2026-06-16 15:45:08.734,722026,L_Ankle,0.1364,0.0217,1.0024,5.41,-0.83,-10.29,-38.06,-1.44,-42.76,0.951262,0.042055,-0.067263,0.297952,0.0,0.0,0.0,0,0
2026-06-16 15:45:08.736,721937,R_Shank,0.0375,-1.232,1.0066,-0.09,-1.46,-8.42,-16.46,26.45,-20.78,0.928892,0.035005,-0.020539,0.368053,0.0,0.0,0.0,0,0
2026-06-16 15:45:08.736,722046,L_Ankle,0.1246,0.0217,1.0096,5.4,-0.81,-10.29,-38.77,-0.72,-42.43,0.951262,0.042055,-0.067293,0.297983,0.0,0.0,0.0,0,0
2026-06-16 15:45:08.738,722066,L_Ankle,0.1232,0.0163,0.9875,5.41,-0.81,-10.29,0.0,0.0,0.0,0.951231,0.042055,-0.067293,0.297983,0.0,0.0,0.0,0,0
2026-06-16 15:45:08.740,722086,L_Ankle,0.132,0.0134,0.9765,5.41,-0.83,-10.3,-38.57,-1.25,-41.92,0.951231,0.042055,-0.067293,0.297983,0.0,0.0,0.0,0,0
2026-06-16 15:45:08.742,721898,R_Ankle,0.0121,-0.0116,1.0058,0.75,-1.73,-0.49,-21.1,30.1,-25.33,0.219275,0.089358,0.01944,0.971343,0.0,0.0,0.0,0,0
2026-06-16 15:45:08.744,721918,R_Ankle,0.0179,-0.0101,0.9943,0.77,-1.73,-0.5,0.0,0.0,0.0,0.219275,0.089389,0.01941,0.971343,0.0,0.0,0.0,0,0
2026-06-16 15:45:08.744,722036,L_Shank,0.0067,-0.0229,0.9945,1.77,-1.17,-0.21,-4.83,14.67,-24.4,0.988311,-0.004578,-0.025697,0.150121,0.0,0.0,0.0,0,0
2026-06-16 15:45:08.746,721938,R_Ankle,0.015,-0.0032,0.9866,0.76,-1.71,-0.48,-22.14,30.43,-26.89,0.219275,0.089389,0.01944,0.971343,0.0,0.0,0.0,0,0
2026-06-16 15:45:08.747,722056,L_Shank,-0.0001,-0.018,0.9954,1.76,-1.19,-0.19,-6.58,14.66,-24.07,0.988311,-0.004578,-0.025697,0.150121,0.0,0.0,0.0,0,0
2026-06-16 15:45:08.748,721958,R_Ankle,0.0057,-0.0101,1.0029,0.76,-1.72,-0.49,-19.73,32.67,-26.27,0.219275,0.089358,0.01944,0.971343,0.0,0.0,0.0,0,0
2026-06-16 15:45:08.749,722076,L_Shank,-0.0069,-0.019,0.9983,1.76,-1.17,-0.21,0.0,0.0,0.0,0.988311,-0.004578,-0.025697,0.150121,0.0,0.0,0.0,0,0
2026-06-16 15:45:08.751,722096,L_Shank,0.0018,-0.0268,0.9868,1.76,-1.18,-0.2,-4.32,12.79,-23.91,0.988311,-0.004578,-0.025697,0.150121,0.0,0.0,0.0,0,0
2026-06-16 15:45:08.751,721899,R_Shank,0.0448,-0.0724,1.008,-0.09,-1.48,-8.42,-16.29,26.28,-20.33,0.928892,0.035005,-0.020539,0.368053,0.0,0.0,0.0,0,0
2026-06-16 15:45:08.753,721919,R_Shank,0.0389,3.1396,1.0066,-0.08,-1.48,-8.41,-16.75,24.79,-21.69,0.928892,0.035035,-0.020539,0.368023,0.0,0.0,0.0,0,0
2026-06-16 15:45:08.755,721939,R_Shank,0.0326,2.3688,1.0071,-0.08,-1.46,-8.43,0.0,0.0,0.0,0.928892,0.035035,-0.020569,0.368023,0.0,0.0,0.0,0,0
2026-06-16 15:45:08.757,721959,R_Shank,0.0438,-1.7432,1.008,-0.08,-1.47,-8.41,-16.1,24.8,-19.59,0.928892,0.035035,-0.020539,0.368023,0.0,0.0,0.0,0,0
2026-06-16 15:45:08.759,721912,R_Hip,0.0476,0.0118,0.9914,0.25,-1.58,1.79,-18.87,28.72,-32.48,0.931425,-0.004944,-0.041993,-0.361431,0.0,0.0,0.0,0,0
2026-06-16 15:45:08.760,721932,R_Hip,0.0545,0.0093,0.9986,0.26,-1.58,1.79,0.0,0.0,0.0,0.931425,-0.004944,-0.041963,-0.361431,0.0,0.0,0.0,0,0
2026-06-16 15:45:08.762,721952,R_Hip,0.0505,0.0069,0.9837,0.25,-1.58,1.77,-19.6,27.62,-31.79,0.931425,-0.004944,-0.041963,-0.3614,0.0,0.0,0.0,0,0
2026-06-16 15:45:08.764,721972,R_Hip,0.0456,0.0147,1.0006,0.29,-1.56,1.77,-19.23,26.89,-31.79,0.931425,-0.004944,-0.041993,-0.3614,0.0,0.0,0.0,0,0
2026-06-16 15:45:08.767,722059,L_Hip,0.1205,-0.07,0.9885,-4.16,4.51,2.98,-19.18,17.18,-25.8,0.955168,-0.046022,-0.060244,-0.286142,0.0,0.0,0.0,0,0
2026-06-16 15:45:08.767,721920,R_Ankle,0.0248,-0.0106,1.0,0.77,-1.73,-0.51,-19.58,30.28,-26.09,0.219275,0.089358,0.01944,0.971343,0.0,0.0,0.0,0,0
2026-06-16 15:45:08.769,722079,L_Hip,0.1141,-0.0685,0.9764,-4.15,4.5,2.96,-18.52,17.51,-24.35,0.955168,-0.046022,-0.060244,-0.286142,0.0,0.0,0.0,0,0
2026-06-16 15:45:08.769,721940,R_Ankle,0.017,-0.0146,0.9928,0.77,-1.7,-0.49,0.0,0.0,0.0,0.219275,0.089389,0.01944,0.971343,0.0,0.0,0.0,0,0
2026-06-16 15:45:08.772,722099,L_Hip,0.1176,-0.0725,1.0103,-4.16,4.5,2.96,0.0,0.0,0.0,0.955168,-0.046022,-0.060274,-0.286142,0.0,0.0,0.0,0,0
2026-06-16 15:45:08.773,721960,R_Ankle,0.0145,-0.0052,1.001,0.77,-1.73,-0.49,-20.08,30.75,-25.64,0.219245,0.089389,0.01944,0.971343,0.0,0.0,0.0,0,0
2026-06-16 15:45:08.775,722119,L_Hip,0.1195,-0.0651,0.9706,-4.16,4.48,2.96,-18.35,17.36,-24.79,0.955168,-0.046022,-0.060244,-0.286142,0.0,0.0,0.0,0,0
2026-06-16 15:45:08.776,721980,R_Ankle,0.016,-0.0126,1.0038,0.75,-1.74,-0.49,-20.08,30.43,-25.32,0.219245,0.089389,0.01941,0.971343,0.0,0.0,0.0,0,0
2026-06-16 15:45:08.777,722061,L_Shank,-0.0001,-0.0204,0.9815,1.76,-1.19,-0.22,-4.48,14.0,-25.33,0.988311,-0.004578,-0.025697,0.150121,0.0,0.0,0.0,0,0
2026-06-16 15:45:08.779,722081,L_Shank,0.0013,-0.0214,0.982,1.77,-1.18,-0.19,-5.02,15.16,-23.62,0.988311,-0.004578,-0.025666,0.150121,0.0,0.0,0.0,0,0
2026-06-16 15:45:08.781,722101,L_Shank,0.0072,-0.0258,0.9935,1.76,-1.16,-0.19,0.0,0.0,0.0,0.988311,-0.004578,-0.025636,0.150121,0.0,0.0,0.0,0,0
2026-06-16 15:45:08.783,722121,L_Shank,0.0023,-0.0248,0.9782,1.76,-1.16,-0.19,-5.01,15.17,-24.25,0.988311,-0.004608,-0.025636,0.150121,0.0,0.0,0.0,0,0
2026-06-16 15:45:08.784,722071,L_Ankle,0.1335,0.0197,0.9923,5.4,-0.82,-10.29,-36.33,-0.4,-42.72,0.951231,0.042055,-0.067263,0.298013,0.0,0.0,0.0,0,0
2026-06-16 15:45:08.787,722091,L_Ankle,0.1256,0.0139,0.9808,5.41,-0.81,-10.3,-37.86,-1.97,-41.57,0.951231,0.042055,-0.067263,0.297983,0.0,0.0,0.0,0,0
2026-06-16 15:45:08.788,721944,R_Shank,0.0345,-1.4844,1.0143,-0.09,-1.47,-8.43,-16.96,26.62,-21.52,0.928892,0.035035,-0.020569,0.368023,0.0,0.0,0.0,0,0
2026-06-16 15:45:08.790,722111,L_Ankle,0.1398,0.0139,0.9914,5.41,-0.84,-10.29,-39.3,-1.6,-43.63,0.951231,0.042085,-0.067263,0.297983,0.0,0.0,0.0,0,0
2026-06-16 15:45:08.791,721964,R_Shank,0.0409,0.9572,0.9984,-0.09,-1.45,-8.42,0.0,0.0,0.0,0.928892,0.035005,-0.020539,0.368023,0.0,0.0,0.0,0,0
2026-06-16 15:45:08.792,722131,L_Ankle,0.1207,0.0188,0.9774,5.41,-0.83,-10.31,0.0,0.0,0.0,0.951231,0.042055,-0.067232,0.298013,0.0,0.0,0.0,0,0
2026-06-16 15:45:08.793,721984,R_Shank,0.036,0.698,1.0052,-0.09,-1.47,-8.42,-16.6,25.62,-21.23,0.928892,0.035005,-0.020569,0.368023,0.0,0.0,0.0,0,0
2026-06-16 15:45:08.795,722081,L_Hip,0.118,-0.0631,0.9962,-4.15,4.51,2.97,-16.75,19.81,-26.71,0.955168,-0.046022,-0.060244,-0.286142,0.0,0.0,0.0,0,0
2026-06-16 15:45:08.796,722004,R_Shank,0.0424,1.4688,0.9975,-0.08,-1.47,-8.41,-17.26,24.31,-20.93,0.928892,0.035005,-0.020539,0.368053,0.0,0.0,0.0,0,0
2026-06-16 15:45:08.797,722101,L_Hip,0.1141,-0.0779,0.9895,-4.15,4.51,2.96,-18.78,19.77,-26.68,0.955168,-0.046022,-0.060244,-0.286142,0.0,0.0,0.0,0,0
2026-06-16 15:45:08.799,722121,L_Hip,0.1254,-0.0631,0.9769,-4.16,4.5,2.96,-18.3,18.97,-25.67,0.955168,-0.046052,-0.060244,-0.286142,0.0,0.0,0.0,0,0
2026-06-16 15:45:08.801,722141,L_Hip,0.1146,-0.0779,0.9745,-4.16,4.51,2.97,0.0,0.0,0.0,0.955168,-0.046022,-0.060213,-0.286142,0.0,0.0,0.0,0,0
2026-06-16 15:45:08.806,721962,R_Hip,0.0343,0.002,0.9905,0.25,-1.57,1.76,-18.69,27.44,-31.96,0.931425,-0.004913,-0.041993,-0.3614,0.0,0.0,0.0,0,0
2026-06-16 15:45:08.808,721982,R_Hip,0.0407,0.0123,0.9832,0.27,-1.57,1.78,0.0,0.0,0.0,0.931425,-0.004913,-0.041963,-0.3614,0.0,0.0,0.0,0,0
2026-06-16 15:45:08.809,722002,R_Hip,0.0476,0.0152,1.002,0.27,-1.58,1.78,-18.87,27.26,-32.48,0.931425,-0.004944,-0.041932,-0.3614,0.0,0.0,0.0,0,0
2026-06-16 15:45:08.811,722022,R_Hip,0.0441,0.0201,1.0049,0.27,-1.56,1.76,-21.97,26.34,-31.62,0.931425,-0.004913,-0.041963,-0.3614,0.0,0.0,0.0,0,0
2026-06-16 15:45:08.813,721965,R_Ankle,0.0111,-0.0076,1.0048,0.76,-1.72,-0.49,-19.75,30.44,-26.55,0.219245,0.089389,0.01941,0.971343,0.0,0.0,0.0,0,0
2026-06-16 15:45:08.815,721985,R_Ankle,0.017,-0.0057,1.0129,0.77,-1.72,-0.49,0.0,0.0,0.0,0.219245,0.089389,0.01941,0.971343,0.0,0.0,0.0,0,0
2026-06-16 15:45:08.817,722005,R_Ankle,0.0106,-0.0121,1.0048,0.76,-1.71,-0.49,-20.1,30.45,-27.17,0.219245,0.089389,0.01941,0.971343,0.0,0.0,0.0,0,0
2026-06-16 15:45:08.819,722111,L_Shank,0.0003,-0.0165,0.9887,1.75,-1.19,-0.2,-5.02,16.18,-23.33,0.988311,-0.004608,-0.025636,0.150121,0.0,0.0,0.0,0,0
2026-06-16 15:45:08.820,722025,R_Ankle,0.0165,-0.0086,1.0048,0.77,-1.71,-0.48,-20.43,29.8,-25.94,0.219245,0.089389,0.01941,0.971343,0.0,0.0,0.0,0,0
2026-06-16 15:45:08.821,722131,L_Shank,0.0033,-0.0229,1.0007,1.75,-1.18,-0.19,-5.19,14.32,-23.77,0.988311,-0.004608,-0.025636,0.150121,0.0,0.0,0.0,0,0
2026-06-16 15:45:08.823,721967,R_Shank,0.0453,-1.8728,1.0028,-0.09,-1.45,-8.41,-17.93,24.65,-21.53,0.928892,0.035035,-0.020539,0.368053,0.0,0.0,0.0,0,0
2026-06-16 15:45:08.823,722151,L_Shank,0.0033,-0.0195,0.9844,1.76,-1.18,-0.19,0.0,0.0,0.0,0.988311,-0.004608,-0.025636,0.150121,0.0,0.0,0.0,0,0
2026-06-16 15:45:08.825,721987,R_Shank,0.0438,-1.1024,0.9999,-0.09,-1.47,-8.41,0.0,0.0,0.0,0.928892,0.035035,-0.020569,0.368053,0.0,0.0,0.0,0,0
2026-06-16 15:45:08.826,722171,L_Shank,-0.005,-0.0229,0.9873,1.75,-1.18,-0.19,-5.72,13.46,-23.28,0.988311,-0.004639,-0.025636,0.150121,0.0,0.0,0.0,0,0
2026-06-16 15:45:08.828,722007,R_Shank,0.0394,-0.0724,1.0071,-0.09,-1.46,-8.41,-17.13,26.13,-20.47,0.928892,0.035035,-0.020569,0.368053,0.0,0.0,0.0,0,0
2026-06-16 15:45:08.828,722116,L_Ankle,0.1325,0.0173,0.9933,5.41,-0.83,-10.31,-37.88,-1.97,-42.93,0.951231,0.042085,-0.067263,0.298013,0.0,0.0,0.0,0,0
2026-06-16 15:45:08.830,722027,R_Shank,0.0414,-0.8432,1.0066,-0.09,-1.47,-8.41,-16.76,24.47,-20.79,0.928892,0.035035,-0.020569,0.368053,0.0,0.0,0.0,0,0
2026-06-16 15:45:08.831,722136,L_Ankle,0.1246,0.0241,0.988,5.4,-0.84,-10.3,-36.66,-1.82,-42.73,0.951231,0.042085,-0.067263,0.298013,0.0,0.0,0.0,0,0
2026-06-16 15:45:08.833,721987,R_Hip,0.0422,0.0108,0.9861,0.28,-1.56,1.78,-20.51,26.34,-32.31,0.931425,-0.004852,-0.041963,-0.361431,0.0,0.0,0.0,0,0
2026-06-16 15:45:08.834,722156,L_Ankle,0.1256,0.0212,0.9784,5.41,-0.82,-10.31,-38.41,-1.43,-42.76,0.951231,0.042085,-0.067232,0.298013,0.0,0.0,0.0,0,0
2026-06-16 15:45:08.836,722007,R_Hip,0.0456,0.0089,0.9909,0.28,-1.58,1.77,0.0,0.0,0.0,0.931425,-0.004883,-0.041932,-0.3614,0.0,0.0,0.0,0,0
2026-06-16 15:45:08.836,722176,L_Ankle,0.132,0.0227,0.9861,5.41,-0.83,-10.29,0.0,0.0,0.0,0.951231,0.042055,-0.067232,0.298013,0.0,0.0,0.0,0,0
2026-06-16 15:45:08.838,722027,R_Hip,0.0461,0.0093,1.001,0.27,-1.57,1.77,-19.42,27.07,-32.31,0.931425,-0.004852,-0.041902,-0.3614,0.0,0.0,0.0,0,0
2026-06-16 15:45:08.841,722047,R_Hip,0.0525,0.0113,0.9919,0.27,-1.58,1.77,-19.23,26.89,-31.79,0.931425,-0.004852,-0.041902,-0.3614,0.0,0.0,0.0,0,0
2026-06-16 15:45:08.855,722148,L_Hip,0.1283,-0.0666,0.9924,-4.16,4.5,2.96,-18.85,17.51,-24.93,0.955168,-0.046052,-0.060183,-0.286142,0.0,0.0,0.0,0,0
2026-06-16 15:45:08.857,722168,L_Hip,0.1161,-0.0784,0.9774,-4.16,4.49,2.96,-17.43,20.12,-26.12,0.955168,-0.046052,-0.060183,-0.286142,0.0,0.0,0.0,0,0
2026-06-16 15:45:08.859,722188,L_Hip,0.1126,-0.0651,0.9914,-4.15,4.5,2.96,-17.3,19.31,-24.82,0.955168,-0.046052,-0.060183,-0.286142,0.0,0.0,0.0,0,0
2026-06-16 15:45:08.860,722208,L_Hip,0.1112,-0.0759,0.9812,-4.14,4.51,2.98,0.0,0.0,0.0,0.955168,-0.046052,-0.060183,-0.286142,0.0,0.0,0.0,0,0
2026-06-16 15:45:08.880,722037,R_Hip,0.0412,0.0123,0.9818,0.28,-1.58,1.77,-18.32,26.34,-32.64,0.931425,-0.004883,-0.041932,-0.3614,0.0,0.0,0.0,0,0
2026-06-16 15:45:08.882,722057,R_Hip,0.0496,-0.0023,1.001,0.27,-1.58,1.79,0.0,0.0,0.0,0.931425,-0.004883,-0.041963,-0.361431,0.0,0.0,0.0,0,0
2026-06-16 15:45:08.884,722077,R_Hip,0.0441,0.0118,0.9996,0.26,-1.58,1.77,-18.14,26.52,-31.1,0.931425,-0.004883,-0.041963,-0.3614,0.0,0.0,0.0,0,0
2026-06-16 15:45:08.886,722097,R_Hip,0.0427,0.0132,0.9929,0.27,-1.57,1.77,-17.96,27.44,-32.99,0.931425,-0.004883,-0.041963,-0.3614,0.0,0.0,0.0,0,0
2026-06-16 15:45:08.891,722184,L_Ankle,0.131,0.0153,1.0019,5.41,-0.83,-10.3,-40.02,-0.88,-43.98,0.951231,0.042055,-0.067232,0.298013,0.0,0.0,0.0,0,0
2026-06-16 15:45:08.893,722204,L_Ankle,0.1212,0.0271,0.9712,5.41,-0.8,-10.3,-37.71,-1.44,-42.75,0.951231,0.042055,-0.067232,0.298013,0.0,0.0,0.0,0,0
2026-06-16 15:45:08.895,722224,L_Ankle,0.1344,0.0212,0.9794,5.41,-0.83,-10.31,-37.86,-2.33,-42.25,0.951231,0.042055,-0.067232,0.298013,0.0,0.0,0.0,0,0
2026-06-16 15:45:08.897,722244,L_Ankle,0.1246,0.0109,1.0072,5.41,-0.82,-10.31,-37.37,-1.1,-43.09,0.951231,0.042055,-0.067232,0.298013,0.0,0.0,0.0,0,0
2026-06-16 15:45:08.899,722055,R_Ankle,0.0219,-0.0185,0.9957,0.77,-1.72,-0.51,-20.6,30.28,-26.41,0.219245,0.089358,0.01941,0.971343,0.0,0.0,0.0,0,0
2026-06-16 15:45:08.900,722187,L_Shank,0.0013,-0.016,0.983,1.75,-1.17,-0.19,-5.18,15.01,-24.4,0.988311,-0.004608,-0.025605,0.150121,0.0,0.0,0.0,0,0
2026-06-16 15:45:08.902,722075,R_Ankle,0.0116,-0.0126,1.0158,0.75,-1.73,-0.51,0.0,0.0,0.0,0.219245,0.089389,0.019379,0.971343,0.0,0.0,0.0,0,0
2026-06-16 15:45:08.903,722207,L_Shank,0.0013,-0.0253,0.9892,1.77,-1.18,-0.21,-5.36,15.85,-24.25,0.988311,-0.004639,-0.025605,0.150121,0.0,0.0,0.0,0,0
2026-06-16 15:45:08.904,722095,R_Ankle,0.0199,-0.0062,0.9895,0.77,-1.71,-0.49,-20.94,30.27,-26.1,0.219245,0.089389,0.019379,0.971343,0.0,0.0,0.0,0,0
2026-06-16 15:45:08.905,722227,L_Shank,0.0047,-0.016,0.9767,1.77,-1.19,-0.19,0.0,0.0,0.0,0.988311,-0.004639,-0.025636,0.150121,0.0,0.0,0.0,0,0
2026-06-16 15:45:08.907,722115,R_Ankle,0.0091,-0.0111,1.0014,0.76,-1.73,-0.49,-21.27,30.9,-25.5,0.219245,0.089389,0.019379,0.971343,0.0,0.0,0.0,0,0
2026-06-16 15:45:08.908,722247,L_Shank,0.0062,-0.0244,0.9854,1.76,-1.19,-0.19,-4.84,14.65,-23.46,0.988311,-0.004639,-0.025605,0.150121,0.0,0.0,0.0,0,0
2026-06-16 15:45:08.909,722062,R_Hip,0.0422,0.0093,0.9885,0.27,-1.57,1.79,-18.68,27.07,-31.28,0.931425,-0.004883,-0.041963,-0.3614,0.0,0.0,0.0,0,0
2026-06-16 15:45:08.910,722194,L_Hip,0.12,-0.0744,0.987,-4.16,4.51,2.96,-18.15,17.53,-26.69,0.955168,-0.046052,-0.060183,-0.286142,0.0,0.0,0.0,0,0
2026-06-16 15:45:08.912,722082,R_Hip,0.0476,0.0035,1.0025,0.27,-1.56,1.77,0.0,0.0,0.0,0.931425,-0.004883,-0.041963,-0.3614,0.0,0.0,0.0,0,0
2026-06-16 15:45:08.913,722214,L_Hip,0.1254,-0.0671,0.9706,-4.16,4.51,2.98,-17.45,19.15,-26.12,0.955168,-0.046022,-0.060213,-0.286142,0.0,0.0,0.0,0,0
2026-06-16 15:45:08.915,722102,R_Hip,0.0436,0.0049,0.9842,0.26,-1.56,1.77,-18.87,27.99,-31.79,0.931425,-0.004852,-0.041932,-0.3614,0.0,0.0,0.0,0,0
2026-06-16 15:45:08.916,722234,L_Hip,0.122,-0.071,0.9798,-4.16,4.51,2.96,-18.32,18.97,-24.51,0.955168,-0.045991,-0.060213,-0.286142,0.0,0.0,0.0,0,0
2026-06-16 15:45:08.918,722122,R_Hip,0.0387,0.0006,0.9885,0.25,-1.57,1.78,-19.42,28.54,-32.65,0.931425,-0.004883,-0.041932,-0.3614,0.0,0.0,0.0,0,0
2026-06-16 15:45:08.919,722254,L_Hip,0.1239,-0.0676,0.9992,-4.16,4.5,2.97,-19.18,16.86,-26.09,0.955168,-0.046022,-0.060183,-0.286142,0.0,0.0,0.0,0,0
2026-06-16 15:45:08.921,722206,L_Ankle,0.1241,0.0168,0.987,5.41,-0.83,-10.29,-38.6,-1.61,-43.62,0.951231,0.042055,-0.067202,0.298013,0.0,0.0,0.0,0,0
2026-06-16 15:45:08.922,722078,R_Ankle,0.013,-0.0121,0.9899,0.77,-1.71,-0.48,-20.44,30.44,-26.87,0.219245,0.089389,0.01941,0.971343,0.0,0.0,0.0,0,0
2026-06-16 15:45:08.924,722098,R_Ankle,0.0116,-0.0067,1.0048,0.76,-1.72,-0.49,0.0,0.0,0.0,0.219245,0.089389,0.01941,0.971343,0.0,0.0,0.0,0,0
2026-06-16 15:45:08.924,722226,L_Ankle,0.133,0.0139,0.9923,5.41,-0.83,-10.3,-38.94,-1.6,-43.29,0.951231,0.042055,-0.067202,0.298013,0.0,0.0,0.0,0,0
2026-06-16 15:45:08.927,722118,R_Ankle,0.017,-0.02,0.9943,0.76,-1.73,-0.5,-20.43,30.43,-25.94,0.219245,0.089389,0.019379,0.971343,0.0,0.0,0.0,0,0
2026-06-16 15:45:08.927,722207,L_Ankle,0.1202,0.0246,0.9904,5.42,-0.83,-10.31,-38.6,-1.61,-43.62,0.951231,0.042055,-0.067202,0.298044,0.0,0.0,0.0,0,0
2026-06-16 15:45:08.929,722138,R_Ankle,0.0214,-0.0081,1.0048,0.77,-1.71,-0.5,-20.77,31.08,-26.88,0.219245,0.089419,0.019379,0.971343,0.0,0.0,0.0,0,0
2026-06-16 15:45:08.929,722227,L_Ankle,0.131,0.0217,0.9827,5.41,-0.83,-10.29,-37.19,-0.92,-42.57,0.951231,0.042055,-0.067202,0.298044,0.0,0.0,0.0,0,0
2026-06-16 15:45:08.932,722211,L_Shank,0.0028,-0.0268,0.9825,1.75,-1.17,-0.2,-5.01,13.47,-23.91,0.988311,-0.004639,-0.025605,0.150121,0.0,0.0,0.0,0,0
2026-06-16 15:45:08.933,722231,L_Shank,0.0008,-0.0185,1.0065,1.77,-1.18,-0.19,-4.32,14.15,-23.62,0.988311,-0.004639,-0.025575,0.150121,0.0,0.0,0.0,0,0
2026-06-16 15:45:08.935,722251,L_Shank,0.0042,-0.0253,0.9892,1.75,-1.16,-0.19,0.0,0.0,0.0,0.988311,-0.004608,-0.025575,0.150121,0.0,0.0,0.0,0,0
2026-06-16 15:45:08.937,722212,L_Shank,0.0057,-0.02,0.9902,1.75,-1.19,-0.21,-5.18,15.01,-24.4,0.988311,-0.004608,-0.025575,0.150121,0.0,0.0,0.0,0,0
2026-06-16 15:45:08.938,722216,L_Hip,0.1254,-0.0666,1.0045,-4.16,4.51,2.97,-18.63,19.29,-25.67,0.955168,-0.046022,-0.060183,-0.286142,0.0,0.0,0.0,0,0
2026-06-16 15:45:08.940,722236,L_Hip,0.119,-0.0774,0.9895,-4.16,4.5,2.97,-18.33,18.65,-24.51,0.955168,-0.046022,-0.060213,-0.286142,0.0,0.0,0.0,0,0
2026-06-16 15:45:08.942,722256,L_Hip,0.1146,-0.07,0.9691,-4.16,4.51,2.97,-18.81,18.48,-26.39,0.955168,-0.046022,-0.060213,-0.286172,0.0,0.0,0.0,0,0
2026-06-16 15:45:08.945,722100,R_Ankle,0.017,-0.0141,1.0034,0.76,-1.72,-0.5,-20.76,30.43,-25.64,0.219245,0.089419,0.019379,0.971343,0.0,0.0,0.0,0,0
2026-06-16 15:45:08.945,722217,L_Hip,0.1298,-0.073,0.9861,-4.16,4.5,2.97,-17.63,18.34,-26.26,0.955168,-0.046022,-0.060213,-0.286172,0.0,0.0,0.0,0,0
2026-06-16 15:45:08.947,722120,R_Ankle,0.017,-0.0131,1.0091,0.77,-1.73,-0.51,0.0,0.0,0.0,0.219275,0.089419,0.019379,0.971343,0.0,0.0,0.0,0,0
2026-06-16 15:45:08.948,722236,L_Shank,0.0106,-0.0131,0.9945,1.76,-1.19,-0.19,-6.06,14.82,-23.61,0.988311,-0.004608,-0.025575,0.150121,0.0,0.0,0.0,0,0
2026-06-16 15:45:08.949,722140,R_Ankle,0.0135,-0.0161,0.9904,0.77,-1.71,-0.49,-19.06,31.08,-25.94,0.219275,0.089419,0.019379,0.971343,0.0,0.0,0.0,0,0
2026-06-16 15:45:08.950,722256,L_Shank,-0.0069,-0.018,0.9916,1.76,-1.18,-0.19,-3.44,15.0,-23.79,0.988311,-0.004608,-0.025575,0.150121,0.0,0.0,0.0,0,0
2026-06-16 15:45:08.952,722160,R_Ankle,0.0224,-0.0166,1.0014,0.77,-1.72,-0.48,-20.1,30.45,-27.48,0.219245,0.08945,0.019349,0.971343,0.0,0.0,0.0,0,0
2026-06-16 15:45:08.953,722276,L_Shank,0.0028,-0.0116,0.9791,1.76,-1.17,-0.19,-5.71,15.17,-24.24,0.988311,-0.004608,-0.025575,0.150121,0.0,0.0,0.0,0,0
2026-06-16 15:45:08.955,722102,R_Shank,0.0321,-1.232,1.0128,-0.09,-1.48,-8.41,-17.46,25.81,-20.47,0.928892,0.035035,-0.020569,0.368053,0.0,0.0,0.0,0,0
2026-06-16 15:45:08.955,722296,L_Shank,-0.0064,-0.0244,0.982,1.76,-1.18,-0.2,0.0,0.0,0.0,0.988311,-0.004639,-0.025605,0.150121,0.0,0.0,0.0,0,0
2026-06-16 15:45:08.957,722122,R_Shank,0.0419,0.8276,1.0109,-0.09,-1.47,-8.41,0.0,0.0,0.0,0.928892,0.035035,-0.020569,0.368053,0.0,0.0,0.0,0,0
2026-06-16 15:45:08.958,722239,L_Hip,0.1225,-0.0695,0.9827,-4.16,4.49,2.97,-18.83,18.48,-25.23,0.955168,-0.045991,-0.060183,-0.286172,0.0,0.0,0.0,0,0
2026-06-16 15:45:08.960,722259,L_Hip,0.1176,-0.0764,0.9992,-4.16,4.49,2.96,0.0,0.0,0.0,0.955168,-0.045991,-0.060213,-0.286172,0.0,0.0,0.0,0,0
2026-06-16 15:45:08.960,722142,R_Shank,0.0399,-1.6136,1.0066,-0.09,-1.45,-8.41,-17.43,25.13,-21.98,0.928892,0.035005,-0.020569,0.368053,0.0,0.0,0.0,0,0
2026-06-16 15:45:08.962,722279,L_Hip,0.1185,-0.0725,0.9972,-4.16,4.51,2.96,-17.29,18.67,-26.27,0.955168,-0.045991,-0.060183,-0.286172,0.0,0.0,0.0,0,0
2026-06-16 15:45:08.963,722162,R_Shank,0.0463,0.0572,1.0008,-0.08,-1.46,-8.41,-16.93,25.29,-21.53,0.928892,0.035005,-0.020569,0.368053,0.0,0.0,0.0,0,0
2026-06-16 15:45:08.965,722299,L_Hip,0.1117,-0.072,0.9817,-4.16,4.5,2.96,-18.48,18.49,-25.81,0.955168,-0.045991,-0.060213,-0.286172,0.0,0.0,0.0,0,0
2026-06-16 15:45:08.965,722112,R_Hip,0.0535,0.0059,1.003,0.26,-1.55,1.8,-18.5,27.62,-31.79,0.931425,-0.004883,-0.041902,-0.3614,0.0,0.0,0.0,0,0
2026-06-16 15:45:08.967,722251,L_Ankle,0.1276,0.0109,1.0,5.41,-0.83,-10.31,-37.03,-0.75,-43.08,0.951231,0.042055,-0.067232,0.298044,0.0,0.0,0.0,0,0
2026-06-16 15:45:08.968,722132,R_Hip,0.0402,0.0103,0.9765,0.25,-1.56,1.77,0.0,0.0,0.0,0.931425,-0.004883,-0.041871,-0.3614,0.0,0.0,0.0,0,0
2026-06-16 15:45:08.970,722271,L_Ankle,0.1178,0.0192,0.9899,5.41,-0.83,-10.3,0.0,0.0,0.0,0.951231,0.042055,-0.067232,0.298044,0.0,0.0,0.0,0,0
2026-06-16 15:45:08.971,722152,R_Hip,0.0471,0.0074,0.9972,0.27,-1.57,1.79,-19.23,27.26,-32.82,0.931425,-0.004883,-0.041871,-0.3614,0.0,0.0,0.0,0,0
2026-06-16 15:45:08.973,722291,L_Ankle,0.1286,0.0251,0.976,5.41,-0.83,-10.3,-38.59,-1.96,-43.28,0.951231,0.042055,-0.067202,0.298044,0.0,0.0,0.0,0,0
2026-06-16 15:45:08.974,722172,R_Hip,0.0367,0.0035,0.9986,0.28,-1.58,1.77,-19.6,27.99,-32.82,0.931425,-0.004883,-0.041871,-0.3614,0.0,0.0,0.0,0,0
2026-06-16 15:45:08.975,722311,L_Ankle,0.13,0.0207,0.9794,5.41,-0.82,-10.29,-37.36,-1.8,-42.75,0.951231,0.042055,-0.067232,0.298044,0.0,0.0,0.0,0,0
2026-06-16 15:45:08.977,722123,R_Ankle,0.016,-0.0116,1.0014,0.75,-1.72,-0.49,-22.46,30.09,-25.04,0.219245,0.08945,0.019349,0.971343,0.0,0.0,0.0,0,0
2026-06-16 15:45:08.978,722261,L_Shank,0.0052,-0.0322,0.9983,1.75,-1.18,-0.19,-5.01,15.51,-23.94,0.988311,-0.004608,-0.025605,0.150121,0.0,0.0,0.0,0,0
2026-06-16 15:45:08.979,722143,R_Ankle,0.016,-0.0106,1.0091,0.76,-1.73,-0.49,0.0,0.0,0.0,0.219245,0.08945,0.019349,0.971343,0.0,0.0,0.0,0,0
2026-06-16 15:45:08.981,722281,L_Shank,0.0081,-0.019,1.0017,1.75,-1.17,-0.19,-4.83,14.33,-24.7,0.988311,-0.004608,-0.025575,0.150121,0.0,0.0,0.0,0,0
2026-06-16 15:45:08.981,722163,R_Ankle,0.013,-0.0007,0.9976,0.76,-1.72,-0.51,-19.74,31.08,-26.25,0.219275,0.08945,0.019349,0.971343,0.0,0.0,0.0,0,0
2026-06-16 15:45:08.983,722301,L_Shank,0.0076,-0.0234,0.994,1.75,-1.18,-0.22,-5.19,15.34,-24.09,0.988311,-0.004578,-0.025575,0.150121,0.0,0.0,0.0,0,0
2026-06-16 15:45:08.984,722183,R_Ankle,0.0145,-0.0131,1.0048,0.76,-1.72,-0.48,-19.23,30.92,-25.78,0.219245,0.08945,0.019349,0.971343,0.0,0.0,0.0,0,0
2026-06-16 15:45:08.985,722321,L_Shank,-0.001,-0.0126,0.9897,1.77,-1.18,-0.19,0.0,0.0,0.0,0.988311,-0.004547,-0.025575,0.150121,0.0,0.0,0.0,0,0
2026-06-16 15:45:08.987,722274,L_Ankle,0.1202,0.0178,0.9933,5.4,-0.83,-10.31,-38.05,-1.08,-42.08,0.951231,0.042055,-0.067232,0.298044,0.0,0.0,0.0,0,0
2026-06-16 15:45:08.989,722294,L_Ankle,0.133,0.0192,0.9918,5.41,-0.83,-10.31,0.0,0.0,0.0,0.951231,0.042055,-0.067232,0.298044,0.0,0.0,0.0,0,0
2026-06-16 15:45:08.990,722145,R_Ankle,0.013,-0.0106,1.012,0.76,-1.72,-0.5,-21.63,29.95,-26.41,0.219245,0.08945,0.019318,0.971343,0.0,0.0,0.0,0,0
2026-06-16 15:45:08.991,722165,R_Ankle,0.016,-0.0081,1.0115,0.77,-1.71,-0.49,0.0,0.0,0.0,0.219245,0.08945,0.019318,0.971343,0.0,0.0,0.0,0,0
2026-06-16 15:45:08.992,722314,L_Ankle,0.1241,0.0183,1.0101,5.41,-0.83,-10.3,-38.56,-2.67,-42.6,0.951231,0.042055,-0.067232,0.298044,0.0,0.0,0.0,0,0
2026-06-16 15:45:08.994,722185,R_Ankle,0.0091,-0.027,1.0014,0.76,-1.73,-0.5,-20.07,31.7,-25.03,0.219245,0.089419,0.019288,0.971343,0.0,0.0,0.0,0,0
2026-06-16 15:45:08.995,722334,L_Ankle,0.1276,0.0124,0.9851,5.41,-0.82,-10.29,-38.43,-1.08,-43.44,0.951231,0.042055,-0.067202,0.298044,0.0,0.0,0.0,0,0
2026-06-16 15:45:08.997,722205,R_Ankle,0.0116,-0.0131,1.001,0.76,-1.73,-0.5,-21.1,31.71,-26.58,0.219245,0.089419,0.019288,0.971343,0.0,0.0,0.0,0,0
2026-06-16 15:45:08.997,722284,L_Hip,0.1141,-0.0725,0.9832,-4.16,4.49,2.96,-17.63,18.98,-25.39,0.955168,-0.045991,-0.060213,-0.286172,0.0,0.0,0.0,0,0
2026-06-16 15:45:08.999,722147,R_Shank,0.0488,-1.4844,1.0056,-0.08,-1.45,-8.42,-17.62,26.3,-21.52,0.928892,0.035005,-0.0206,0.368053,0.0,0.0,0.0,0,0
2026-06-16 15:45:09.000,722304,L_Hip,0.122,-0.0602,0.9856,-4.15,4.49,2.96,0.0,0.0,0.0,0.955168,-0.045991,-0.060213,-0.286172,0.0,0.0,0.0,0,0
2026-06-16 15:45:09.002,722167,R_Shank,0.0394,-0.0724,1.0181,-0.09,-1.45,-8.41,0.0,0.0,0.0,0.928892,0.035005,-0.0206,0.368053,0.0,0.0,0.0,0,0
2026-06-16 15:45:09.003,722324,L_Hip,0.121,-0.0666,0.9851,-4.16,4.51,2.98,-19.31,18.95,-25.95,0.955168,-0.045961,-0.060244,-0.286172,0.0,0.0,0.0,0,0
2026-06-16 15:45:09.006,722187,R_Shank,0.0438,-1.7432,1.0071,-0.09,-1.47,-8.42,-16.62,26.29,-20.93,0.928892,0.034974,-0.0206,0.368053,0.0,0.0,0.0,0,0
2026-06-16 15:45:09.007,722344,L_Hip,0.1225,-0.0612,0.9977,-4.16,4.51,2.98,-18.48,19.13,-25.23,0.955168,-0.045991,-0.060213,-0.286172,0.0,0.0,0.0,0,0
2026-06-16 15:45:09.008,722207,R_Shank,0.035,-1.3548,0.997,-0.08,-1.44,-8.42,-16.77,25.46,-21.38,0.928892,0.034974,-0.020569,0.368053,0.0,0.0,0.0,0,0
2026-06-16 15:45:09.011,722162,R_Hip,0.0422,0.0108,0.9876,0.27,-1.58,1.77,-17.59,27.8,-32.3,0.931425,-0.004883,-0.041841,-0.3614,0.0,0.0,0.0,0,0
2026-06-16 15:45:09.013,722182,R_Hip,0.0515,0.0059,1.0035,0.25,-1.57,1.78,0.0,0.0,0.0,0.931455,-0.004913,-0.041841,-0.3614,0.0,0.0,0.0,0,0
2026-06-16 15:45:09.015,722202,R_Hip,0.0402,0.0147,1.0044,0.28,-1.57,1.78,-19.96,27.25,-30.77,0.931455,-0.004883,-0.041841,-0.3614,0.0,0.0,0.0,0,0
2026-06-16 15:45:09.019,722222,R_Hip,0.0402,0.0118,0.9881,0.25,-1.57,1.77,-20.15,27.44,-32.65,0.931455,-0.004883,-0.041841,-0.3614,0.0,0.0,0.0,0,0
2026-06-16 15:45:09.020,722311,L_Shank,0.0062,-0.0244,0.9834,1.76,-1.19,-0.19,-3.97,14.83,-23.94,0.988311,-0.004578,-0.025575,0.150151,0.0,0.0,0.0,0,0
2026-06-16 15:45:09.023,722169,R_Shank,0.0458,0.698,1.0047,-0.09,-1.46,-8.41,-16.76,25.45,-21.68,0.928892,0.034944,-0.0206,0.368053,0.0,0.0,0.0,0,0
2026-06-16 15:45:09.024,722331,L_Shank,-0.0103,-0.0204,0.9921,1.75,-1.18,-0.2,-5.01,14.15,-24.23,0.988311,-0.004578,-0.025575,0.150121,0.0,0.0,0.0,0,0
2026-06-16 15:45:09.026,722189,R_Shank,0.0458,1.3392,1.0157,-0.09,-1.46,-8.43,0.0,0.0,0.0,0.928892,0.034974,-0.0206,0.368053,0.0,0.0,0.0,0,0
2026-06-16 15:45:09.027,722351,L_Shank,0.0033,-0.0151,0.9854,1.76,-1.19,-0.2,-5.7,13.48,-24.84,0.988311,-0.004578,-0.025575,0.150121,0.0,0.0,0.0,0,0
2026-06-16 15:45:09.030,722209,R_Shank,0.0458,-0.8432,1.0253,-0.09,-1.48,-8.41,-17.94,25.64,-22.12,0.928892,0.034974,-0.0206,0.368053,0.0,0.0,0.0,0,0
2026-06-16 15:45:09.031,722371,L_Shank,-0.0025,-0.0204,1.007,1.76,-1.18,-0.19,0.0,0.0,0.0,0.988311,-0.004547,-0.025575,0.150151,0.0,0.0,0.0,0,0
2026-06-16 15:45:09.033,722229,R_Shank,0.0438,2.3688,1.0104,-0.09,-1.47,-8.42,-15.27,26.59,-21.24,0.928892,0.034974,-0.020631,0.368053,0.0,0.0,0.0,0,0
2026-06-16 15:45:09.034,722319,L_Ankle,0.1364,0.0163,0.988,5.41,-0.83,-10.3,-38.4,-1.79,-42.43,0.951231,0.042085,-0.067232,0.298044,0.0,0.0,0.0,0,0
2026-06-16 15:45:09.037,722187,R_Hip,0.0471,0.0054,0.9885,0.26,-1.56,1.77,-19.42,27.81,-32.31,0.931455,-0.004852,-0.04181,-0.3614,0.0,0.0,0.0,0,0
2026-06-16 15:45:09.039,722339,L_Ankle,0.1251,0.0114,0.9942,5.41,-0.83,-10.29,0.0,0.0,0.0,0.951231,0.042055,-0.067232,0.298044,0.0,0.0,0.0,0,0
2026-06-16 15:45:09.040,722188,R_Hip,0.0476,0.0049,0.9808,0.26,-1.58,1.78,0.0,0.0,0.0,0.931455,-0.004852,-0.04181,-0.36137,0.0,0.0,0.0,0,0
2026-06-16 15:45:09.043,722359,L_Ankle,0.1241,0.0192,0.9842,5.41,-0.83,-10.3,-38.39,-1.79,-42.09,0.951231,0.042085,-0.067232,0.298044,0.0,0.0,0.0,0,0
2026-06-16 15:45:09.044,722208,R_Hip,0.0407,0.0103,1.0006,0.25,-1.56,1.78,-19.42,27.8,-31.97,0.931455,-0.004852,-0.04181,-0.36137,0.0,0.0,0.0,0,0
2026-06-16 15:45:09.046,722379,L_Ankle,0.1325,0.0149,0.9866,5.41,-0.83,-10.29,-38.74,-2.13,-42.09,0.951231,0.042055,-0.067232,0.298044,0.0,0.0,0.0,0,0
2026-06-16 15:45:09.047,722228,R_Hip,0.0491,0.0059,0.9842,0.28,-1.57,1.79,-19.23,26.89,-32.13,0.931455,-0.004852,-0.04181,-0.3614,0.0,0.0,0.0,0,0
2026-06-16 15:45:09.050,722329,L_Hip,0.1205,-0.0749,0.9861,-4.16,4.5,2.96,-18.15,18.17,-25.82,0.955168,-0.045991,-0.060213,-0.286142,0.0,0.0,0.0,0,0
2026-06-16 15:45:09.050,722190,R_Ankle,0.0135,-0.0027,1.001,0.77,-1.72,-0.49,-19.23,30.6,-25.78,0.219275,0.089419,0.019288,0.971343,0.0,0.0,0.0,0,0
2026-06-16 15:45:09.053,722349,L_Hip,0.121,-0.0563,0.9793,-4.15,4.51,2.97,0.0,0.0,0.0,0.955168,-0.046022,-0.060244,-0.286142,0.0,0.0,0.0,0,0
2026-06-16 15:45:09.054,722210,R_Ankle,0.0165,-0.0111,0.9952,0.77,-1.73,-0.5,0.0,0.0,0.0,0.219275,0.089419,0.019318,0.971343,0.0,0.0,0.0,0,0
2026-06-16 15:45:09.056,722369,L_Hip,0.1161,-0.0681,0.9875,-4.16,4.51,2.96,-19.33,18.31,-25.65,0.955168,-0.046022,-0.060244,-0.286142,0.0,0.0,0.0,0,0
2026-06-16 15:45:09.057,722230,R_Ankle,0.014,-0.0161,0.9837,0.76,-1.71,-0.48,-20.58,31.21,-24.88,0.219245,0.08945,0.019318,0.971343,0.0,0.0,0.0,0,0
2026-06-16 15:45:09.060,722389,L_Hip,0.1171,-0.07,0.9982,-4.17,4.5,2.97,-17.81,17.53,-26.69,0.955168,-0.046052,-0.060244,-0.286172,0.0,0.0,0.0,0,0
2026-06-16 15:45:09.060,722250,R_Ankle,0.0116,-0.0146,1.0024,0.75,-1.71,-0.49,-21.1,31.38,-25.96,0.219245,0.089419,0.019318,0.971343,0.0,0.0,0.0,0,0
2026-06-16 15:45:09.062,722192,R_Shank,0.0414,-0.3316,0.9994,-0.09,-1.47,-8.42,-17.12,26.13,-21.07,0.928892,0.034974,-0.020631,0.368053,0.0,0.0,0.0,0,0
2026-06-16 15:45:09.064,722212,R_Shank,0.0404,3.2692,1.01,-0.09,-1.47,-8.41,-17.29,26.3,-21.22,0.928892,0.035005,-0.020631,0.368053,0.0,0.0,0.0,0,0
2026-06-16 15:45:09.067,722232,R_Shank,0.034,1.2096,0.9984,-0.09,-1.45,-8.42,-15.93,25.61,-21.54,0.928892,0.034974,-0.020661,0.368053,0.0,0.0,0.0,0,0
2026-06-16 15:45:09.069,722252,R_Shank,0.0389,0.5684,1.0167,-0.09,-1.48,-8.42,0.0,0.0,0.0,0.928892,0.035005,-0.0206,0.368053,0.0,0.0,0.0,0,0
2026-06-16 15:45:09.070,722362,L_Shank,-0.0045,-0.0185,0.9863,1.77,-1.17,-0.2,-3.61,14.84,-24.88,0.988311,-0.004547,-0.025605,0.150151,0.0,0.0,0.0,0,0
2026-06-16 15:45:09.073,722216,R_Shank,0.036,-2.514,0.9999,-0.1,-1.45,-8.42,-16.45,25.79,-20.18,0.928892,0.034974,-0.0206,0.368053,0.0,0.0,0.0,0,0
2026-06-16 15:45:09.073,722382,L_Shank,0.0003,-0.019,0.9854,1.77,-1.17,-0.2,-4.67,14.48,-23.0,0.988311,-0.004578,-0.025575,0.150151,0.0,0.0,0.0,0,0
2026-06-16 15:45:09.076,722402,L_Shank,0.0033,-0.018,0.9892,1.77,-1.2,-0.19,-4.49,13.64,-23.76,0.988311,-0.004578,-0.025575,0.150151,0.0,0.0,0.0,0,0
2026-06-16 15:45:09.076,722236,R_Shank,0.0429,2.3688,1.0152,-0.1,-1.46,-8.41,-17.63,26.3,-20.91,0.928892,0.034974,-0.0206,0.368053,0.0,0.0,0.0,0,0
2026-06-16 15:45:09.078,722422,L_Shank,-0.0045,-0.017,0.9887,1.77,-1.19,-0.19,-5.02,14.48,-23.3,0.988311,-0.004578,-0.025575,0.150151,0.0,0.0,0.0,0,0
2026-06-16 15:45:09.079,722256,R_Shank,0.0434,2.4984,1.0114,-0.1,-1.45,-8.41,0.0,0.0,0.0,0.928892,0.034944,-0.0206,0.368053,0.0,0.0,0.0,0,0
2026-06-16 15:45:09.081,722364,L_Ankle,0.1276,0.0217,0.9813,5.41,-0.83,-10.3,-37.88,-1.62,-42.59,0.951231,0.042055,-0.067202,0.298044,0.0,0.0,0.0,0,0
2026-06-16 15:45:09.081,722276,R_Shank,0.0507,3.01,0.9999,-0.09,-1.47,-8.42,-16.78,26.45,-21.98,0.928892,0.034944,-0.0206,0.368053,0.0,0.0,0.0,0,0
2026-06-16 15:45:09.084,722384,L_Ankle,0.1241,0.0158,0.9942,5.41,-0.83,-10.31,0.0,0.0,0.0,0.951231,0.042055,-0.067232,0.298044,0.0,0.0,0.0,0,0
2026-06-16 15:45:09.085,722237,R_Hip,0.0466,0.0147,0.9909,0.27,-1.57,1.78,-19.05,27.08,-33.33,0.931455,-0.004883,-0.04181,-0.36137,0.0,0.0,0.0,0,0
2026-06-16 15:45:09.086,722404,L_Ankle,0.1286,0.0188,0.9899,5.42,-0.82,-10.29,-37.56,-0.92,-43.6,0.951231,0.042085,-0.067232,0.298044,0.0,0.0,0.0,0,0
2026-06-16 15:45:09.088,722257,R_Hip,0.0481,0.0015,0.9919,0.27,-1.58,1.77,0.0,0.0,0.0,0.931455,-0.004852,-0.04181,-0.36137,0.0,0.0,0.0,0,0
2026-06-16 15:45:09.090,722424,L_Ankle,0.1281,0.0178,0.9827,5.41,-0.82,-10.31,-37.73,-0.03,-42.41,0.951231,0.042085,-0.067232,0.298044,0.0,0.0,0.0,0,0
2026-06-16 15:45:09.091,722277,R_Hip,0.0402,0.0045,0.9967,0.25,-1.56,1.77,-19.23,27.62,-31.79,0.931455,-0.004852,-0.041841,-0.36137,0.0,0.0,0.0,0,0
2026-06-16 15:45:09.092,722374,L_Hip,0.1229,-0.0656,0.987,-4.15,4.51,2.96,-17.29,18.35,-26.56,0.955168,-0.046052,-0.060244,-0.286172,0.0,0.0,0.0,0,0
2026-06-16 15:45:09.093,722297,R_Hip,0.0525,0.0054,1.002,0.25,-1.57,1.77,-19.05,27.07,-32.3,0.931455,-0.004852,-0.04181,-0.36137,0.0,0.0,0.0,0,0
2026-06-16 15:45:09.094,722394,L_Hip,0.1264,-0.0671,0.9846,-4.15,4.51,2.96,0.0,0.0,0.0,0.955138,-0.046052,-0.060244,-0.286172,0.0,0.0,0.0,0,0
2026-06-16 15:45:09.097,722414,L_Hip,0.1205,-0.0735,0.9885,-4.16,4.51,2.98,-17.97,17.69,-26.83,0.955138,-0.046022,-0.060244,-0.286172,0.0,0.0,0.0,0,0
2026-06-16 15:45:09.099,722434,L_Hip,0.1274,-0.0685,0.9914,-4.16,4.51,2.96,-17.5,17.21,-25.53,0.955138,-0.046022,-0.060274,-0.286172,0.0,0.0,0.0,0,0
2026-06-16 15:45:09.102,722386,L_Shank,0.0028,-0.0165,0.995,1.77,-1.19,-0.19,-5.89,15.67,-23.47,0.988311,-0.004608,-0.025575,0.150151,0.0,0.0,0.0,0,0
2026-06-16 15:45:09.103,722258,R_Ankle,0.016,-0.0141,1.0077,0.74,-1.73,-0.49,-20.08,31.39,-26.26,0.219245,0.089419,0.019318,0.971343,0.0,0.0,0.0,0,0
2026-06-16 15:45:09.105,722406,L_Shank,0.0013,-0.0107,0.9762,1.77,-1.17,-0.19,0.0,0.0,0.0,0.988311,-0.004578,-0.025575,0.150151,0.0,0.0,0.0,0,0
2026-06-16 15:45:09.105,722278,R_Ankle,0.0219,-0.0151,0.9938,0.77,-1.72,-0.49,0.0,0.0,0.0,0.219245,0.089419,0.019318,0.971343,0.0,0.0,0.0,0,0
2026-06-16 15:45:09.107,722387,L_Shank,0.0086,-0.0234,0.9906,1.76,-1.19,-0.2,-5.19,15.0,-24.09,0.988311,-0.004578,-0.025575,0.150151,0.0,0.0,0.0,0,0
2026-06-16 15:45:09.108,722298,R_Ankle,0.015,-0.0151,1.0038,0.77,-1.73,-0.49,-19.93,30.29,-26.71,0.219245,0.089419,0.019318,0.971343,0.0,0.0,0.0,0,0
2026-06-16 15:45:09.110,722407,L_Shank,0.0013,-0.0219,0.983,1.76,-1.18,-0.2,-4.65,14.84,-24.87,0.988311,-0.004578,-0.025575,0.150151,0.0,0.0,0.0,0,0
2026-06-16 15:45:09.111,722318,R_Ankle,0.0214,-0.0136,1.0019,0.77,-1.71,-0.48,-19.91,31.23,-25.79,0.219245,0.089419,0.019318,0.971343,0.0,0.0,0.0,0,0
2026-06-16 15:45:09.113,722262,R_Hip,0.0525,0.0035,0.9803,0.28,-1.58,1.77,-18.5,27.99,-32.13,0.931455,-0.004883,-0.041841,-0.36137,0.0,0.0,0.0,0,0
2026-06-16 15:45:09.116,722282,R_Hip,0.0407,0.0006,0.9953,0.28,-1.58,1.77,0.0,0.0,0.0,0.931455,-0.004883,-0.041841,-0.36137,0.0,0.0,0.0,0,0
2026-06-16 15:45:09.117,722409,L_Ankle,0.133,0.0139,0.9914,5.42,-0.83,-10.31,-37.71,-1.8,-43.09,0.951231,0.042085,-0.067202,0.298044,0.0,0.0,0.0,0,0
2026-06-16 15:45:09.119,722302,R_Hip,0.052,0.004,0.9866,0.27,-1.57,1.77,-17.78,27.99,-32.13,0.931455,-0.004913,-0.041871,-0.36137,0.0,0.0,0.0,0,0
2026-06-16 15:45:09.120,722429,L_Ankle,0.1315,0.0158,0.9846,5.41,-0.83,-10.29,0.0,0.0,0.0,0.951231,0.042085,-0.067202,0.298074,0.0,0.0,0.0,0,0
2026-06-16 15:45:09.121,722322,R_Hip,0.0422,0.0069,0.9803,0.25,-1.57,1.77,-19.42,27.44,-32.31,0.931455,-0.004913,-0.041871,-0.36137,0.0,0.0,0.0,0,0
2026-06-16 15:45:09.122,722449,L_Ankle,0.1237,0.0192,0.9731,5.41,-0.83,-10.3,-36.5,-0.93,-42.9,0.951231,0.042085,-0.067202,0.298074,0.0,0.0,0.0,0,0
2026-06-16 15:45:09.124,722280,R_Ankle,0.0175,-0.0185,1.0024,0.76,-1.71,-0.49,-20.26,30.92,-26.41,0.219245,0.08945,0.019318,0.971343,0.0,0.0,0.0,0,0
2026-06-16 15:45:09.124,722469,L_Ankle,0.1281,0.0075,0.9933,5.42,-0.83,-10.29,-38.94,-1.96,-43.63,0.951231,0.042055,-0.067202,0.298074,0.0,0.0,0.0,0,0
2026-06-16 15:45:09.127,722300,R_Ankle,0.015,-0.0047,1.0048,0.76,-1.72,-0.49,0.0,0.0,0.0,0.219245,0.08945,0.019318,0.971343,0.0,0.0,0.0,0,0
2026-06-16 15:45:09.128,722419,L_Hip,0.121,-0.0676,0.9866,-4.16,4.51,2.98,-19.02,17.99,-24.2,0.955138,-0.045991,-0.060274,-0.286172,0.0,0.0,0.0,0,0
2026-06-16 15:45:09.129,722320,R_Ankle,0.0199,-0.0151,1.0024,0.78,-1.72,-0.48,-20.76,31.07,-25.96,0.219214,0.08945,0.019318,0.971343,0.0,0.0,0.0,0,0
2026-06-16 15:45:09.130,722439,L_Hip,0.1166,-0.0789,0.9851,-4.16,4.52,2.96,0.0,0.0,0.0,0.955138,-0.046022,-0.060274,-0.286172,0.0,0.0,0.0,0,0
2026-06-16 15:45:09.133,722340,R_Ankle,0.015,-0.0111,1.0091,0.77,-1.71,-0.5,-19.89,31.54,-24.87,0.219245,0.08945,0.019318,0.971343,0.0,0.0,0.0,0,0
2026-06-16 15:45:09.133,722459,L_Hip,0.1205,-0.0685,0.9778,-4.16,4.51,2.96,-18.32,18.65,-24.8,0.955138,-0.046022,-0.060274,-0.286172,0.0,0.0,0.0,0,0
2026-06-16 15:45:09.135,722282,R_Shank,0.0448,-2.3844,1.0037,-0.09,-1.47,-8.42,-15.6,25.61,-20.64,0.928892,0.034944,-0.020631,0.368053,0.0,0.0,0.0,0,0
2026-06-16 15:45:09.135,722479,L_Hip,0.121,-0.07,0.9929,-4.16,4.51,2.96,-17.96,18.98,-25.97,0.955138,-0.045991,-0.060244,-0.286172,0.0,0.0,0.0,0,0
2026-06-16 15:45:09.137,722302,R_Shank,0.0438,3.1396,1.0157,-0.09,-1.46,-8.42,-17.16,27.46,-20.16,0.928892,0.034944,-0.020631,0.368053,0.0,0.0,0.0,0,0
2026-06-16 15:45:09.140,722322,R_Shank,0.0434,-2.6436,1.0061,-0.08,-1.46,-8.41,0.0,0.0,0.0,0.928892,0.034944,-0.020631,0.368053,0.0,0.0,0.0,0,0
2026-06-16 15:45:09.141,722342,R_Shank,0.0414,3.1396,1.0028,-0.09,-1.46,-8.42,-15.58,24.61,-20.95,0.928892,0.034944,-0.020631,0.368053,0.0,0.0,0.0,0,0
2026-06-16 15:45:09.143,722436,L_Shank,0.0067,-0.0258,0.9873,1.75,-1.18,-0.2,-4.49,14.66,-23.78,0.988311,-0.004578,-0.025575,0.150151,0.0,0.0,0.0,0,0
2026-06-16 15:45:09.146,722456,L_Shank,0.0067,-0.0258,1.0041,1.77,-1.19,-0.19,0.0,0.0,0.0,0.988311,-0.004547,-0.025575,0.150151,0.0,0.0,0.0,0,0
2026-06-16 15:45:09.146,722302,R_Ankle,0.0145,-0.0096,0.9909,0.75,-1.72,-0.49,-19.06,30.12,-25.31,0.219214,0.08945,0.019288,0.971343,0.0,0.0,0.0,0,0
2026-06-16 15:45:09.148,722322,R_Ankle,0.0145,-0.0181,1.0172,0.77,-1.71,-0.5,0.0,0.0,0.0,0.219214,0.08945,0.019288,0.971343,0.0,0.0,0.0,0,0
2026-06-16 15:45:09.148,722476,L_Shank,-0.0006,-0.02,0.9863,1.76,-1.19,-0.19,-4.65,15.19,-25.18,0.988311,-0.004547,-0.025575,0.150151,0.0,0.0,0.0,0,0
2026-06-16 15:45:09.150,722437,L_Shank,0.0023,-0.0248,0.9897,1.74,-1.19,-0.19,-4.31,14.83,-23.94,0.988311,-0.004578,-0.025575,0.150151,0.0,0.0,0.0,0,0
2026-06-16 15:45:09.151,722342,R_Ankle,0.014,-0.0106,0.9986,0.77,-1.72,-0.48,-20.94,30.59,-26.41,0.219214,0.08945,0.019257,0.971343,0.0,0.0,0.0,0,0
2026-06-16 15:45:09.153,722441,L_Hip,0.1151,-0.0651,0.9745,-4.16,4.51,2.98,-17.95,19.3,-26.26,0.955138,-0.045991,-0.060244,-0.286172,0.0,0.0,0.0,0,0
2026-06-16 15:45:09.153,722362,R_Ankle,0.017,-0.0185,1.0034,0.77,-1.71,-0.49,-21.45,30.43,-26.26,0.219214,0.08945,0.019257,0.971343,0.0,0.0,0.0,0,0
2026-06-16 15:45:09.156,722461,L_Hip,0.1195,-0.0612,0.9919,-4.15,4.5,2.96,-17.65,18.02,-25.68,0.955138,-0.045961,-0.060244,-0.286203,0.0,0.0,0.0,0,0
2026-06-16 15:45:09.156,722312,R_Hip,0.0466,0.001,0.9861,0.28,-1.56,1.77,-19.42,27.44,-32.65,0.931455,-0.004944,-0.041871,-0.36137,0.0,0.0,0.0,0,0
2026-06-16 15:45:09.158,722481,L_Hip,0.12,-0.0676,0.9914,-4.15,4.49,2.97,0.0,0.0,0.0,0.955138,-0.045961,-0.060274,-0.286203,0.0,0.0,0.0,0,0
2026-06-16 15:45:09.159,722332,R_Hip,0.0515,0.0118,0.989,0.28,-1.58,1.77,0.0,0.0,0.0,0.931455,-0.004944,-0.041871,-0.36137,0.0,0.0,0.0,0,0
2026-06-16 15:45:09.161,722501,L_Hip,0.1185,-0.071,0.9948,-4.16,4.5,2.96,-17.86,16.56,-24.94,0.955138,-0.045961,-0.060305,-0.286203,0.0,0.0,0.0,0,0
2026-06-16 15:45:09.162,722352,R_Hip,0.0451,-0.0042,0.9982,0.27,-1.57,1.79,-18.32,26.34,-32.64,0.931455,-0.004944,-0.041871,-0.36137,0.0,0.0,0.0,0,0
2026-06-16 15:45:09.164,722453,L_Ankle,0.1251,0.0227,0.9938,5.41,-0.82,-10.3,-37.53,-0.91,-41.9,0.951231,0.042055,-0.067202,0.298074,0.0,0.0,0.0,0,0
2026-06-16 15:45:09.165,722372,R_Hip,0.0466,0.0079,0.9982,0.26,-1.57,1.77,-19.6,26.89,-31.79,0.931455,-0.004944,-0.041871,-0.36137,0.0,0.0,0.0,0,0
2026-06-16 15:45:09.166,722473,L_Ankle,0.1173,0.0139,0.9899,5.4,-0.85,-10.29,-39.12,-1.07,-43.12,0.951231,0.042055,-0.067171,0.298074,0.0,0.0,0.0,0,0
2026-06-16 15:45:09.167,722493,L_Ankle,0.1232,0.0168,0.9837,5.41,-0.83,-10.29,0.0,0.0,0.0,0.951231,0.042055,-0.067202,0.298074,0.0,0.0,0.0,0,0
2026-06-16 15:45:09.169,722513,L_Ankle,0.1325,0.0173,0.9986,5.41,-0.83,-10.3,-38.61,0.15,-42.93,0.951231,0.042055,-0.067202,0.298074,0.0,0.0,0.0,0,0
2026-06-16 15:45:09.171,722461,L_Shank,0.0106,-0.018,0.995,1.77,-1.18,-0.19,-5.53,14.33,-24.39,0.988311,-0.004578,-0.025605,0.150151,0.0,0.0,0.0,0,0
2026-06-16 15:45:09.173,722481,L_Shank,-0.0035,-0.017,0.9786,1.77,-1.17,-0.19,0.0,0.0,0.0,0.988311,-0.004578,-0.025605,0.150151,0.0,0.0,0.0,0,0
2026-06-16 15:45:09.175,722501,L_Shank,0.0052,-0.018,0.9921,1.77,-1.19,-0.2,-5.36,14.15,-23.92,0.988311,-0.004578,-0.025605,0.150151,0.0,0.0,0.0,0,0
2026-06-16 15:45:09.177,722521,L_Shank,0.0033,-0.0185,0.9954,1.76,-1.19,-0.19,-5.53,15.35,-25.02,0.988311,-0.004608,-0.025605,0.150151,0.0,0.0,0.0,0,0
2026-06-16 15:45:09.183,722476,L_Ankle,0.1281,0.0305,0.9918,5.42,-0.82,-10.3,-37.58,-0.21,-43.94,0.951231,0.042024,-0.067202,0.298074,0.0,0.0,0.0,0,0
2026-06-16 15:45:09.186,722496,L_Ankle,0.1192,0.0183,0.9837,5.42,-0.84,-10.31,-37.54,-1.27,-42.92,0.951231,0.042024,-0.067202,0.298105,0.0,0.0,0.0,0,0
2026-06-16 15:45:09.189,722516,L_Ankle,0.1305,0.0202,0.999,5.41,-0.83,-10.3,0.0,0.0,0.0,0.951231,0.042055,-0.067202,0.298105,0.0,0.0,0.0,0,0
2026-06-16 15:45:09.191,722477,L_Ankle,0.13,0.0129,0.9923,5.41,-0.81,-10.31,-37.57,-0.21,-43.6,0.951231,0.042085,-0.067202,0.298105,0.0,0.0,0.0,0,0
2026-06-16 15:45:09.192,722348,R_Ankle,0.013,-0.0126,1.0149,0.77,-1.73,-0.49,-21.27,31.85,-25.82,0.219214,0.08945,0.019257,0.971343,0.0,0.0,0.0,0,0
2026-06-16 15:45:09.194,722368,R_Ankle,0.0135,-0.0062,1.0038,0.76,-1.7,-0.48,0.0,0.0,0.0,0.219214,0.089419,0.019227,0.971374,0.0,0.0,0.0,0,0
