python_time,esp32_hw_time,sensor_name,ax,ay,az,gx,gy,gz,mx,my,mz,q0,q1,q2,q3,quat_roll,quat_pitch,quat_yaw,is_paused_flag,t_pose_flag
2026-06-16 16:08:58.922,2152196,L_Shank,0.037,-0.1173,0.9647,1.75,-1.16,-0.19,35.05,4.89,-16.08,0.461379,0.007935,-0.069765,0.884396,0.0,0.0,0.0,0,0
2026-06-16 16:08:58.924,2152072,R_Shank,-0.0091,2.97,0.9883,-0.08,-1.44,-8.5,0.0,0.0,0.0,0.851131,0.07419,-0.064272,-0.515641,0.0,0.0,0.0,0,0
2026-06-16 16:08:58.925,2152216,L_Shank,0.0345,-0.1222,0.9671,1.75,-1.16,-0.2,36.1,4.89,-16.4,0.461379,0.007904,-0.069765,0.884396,0.0,0.0,0.0,0,0
2026-06-16 16:08:58.926,2152092,R_Shank,-0.0046,-0.1128,1.0023,-0.09,-1.41,-8.48,-18.03,-21.72,-9.36,0.8511,0.074221,-0.064241,-0.515671,0.0,0.0,0.0,0,0
2026-06-16 16:08:58.927,2152236,L_Shank,0.0292,-0.1198,0.9686,1.77,-1.16,-0.21,35.57,5.73,-15.94,0.461379,0.007874,-0.069765,0.884396,0.0,0.0,0.0,0,0
2026-06-16 16:08:58.928,2152062,R_Hip,-0.0978,-0.9835,0.1227,0.28,-1.56,1.77,-24.48,8.04,-20.29,0.35783,-0.246559,0.565935,-0.700583,0.0,0.0,0.0,0,0
2026-06-16 16:08:58.929,2152194,L_Ankle,0.1614,-0.2201,0.9458,5.41,-0.84,-10.29,36.08,2.97,-10.29,-0.279641,-0.062716,0.122318,-0.950194,0.0,0.0,0.0,0,0
2026-06-16 16:08:58.930,2152082,R_Hip,-0.1096,-0.9801,0.1337,0.28,-1.53,1.76,0.0,0.0,0.0,0.357799,-0.246559,0.565935,-0.700583,0.0,0.0,0.0,0,0
2026-06-16 16:08:58.932,2152214,L_Ankle,0.1599,-0.2241,0.9568,5.39,-0.85,-10.28,36.91,2.77,-12.49,-0.279641,-0.062716,0.122318,-0.950194,0.0,0.0,0.0,0,0
2026-06-16 16:08:58.933,2152102,R_Hip,-0.1047,-0.984,0.1265,0.28,-1.54,1.74,-24.48,6.94,-19.26,0.357768,-0.246529,0.565935,-0.700613,0.0,0.0,0.0,0,0
2026-06-16 16:08:58.934,2152234,L_Ankle,0.1584,-0.2206,0.9568,5.4,-0.84,-10.29,0.0,0.0,0.0,-0.279641,-0.062716,0.122318,-0.950194,0.0,0.0,0.0,0,0
2026-06-16 16:08:58.935,2152122,R_Hip,-0.1146,-0.9889,0.1251,0.28,-1.53,1.74,-26.67,8.04,-19.27,0.357738,-0.246529,0.565935,-0.700644,0.0,0.0,0.0,0,0
2026-06-16 16:08:58.936,2152254,L_Ankle,0.1619,-0.2221,0.9578,5.39,-0.82,-10.29,34.66,3.34,-11.0,-0.279641,-0.062685,0.122288,-0.950194,0.0,0.0,0.0,0,0
2026-06-16 16:08:58.937,2152065,R_Ankle,0.1331,0.0453,0.988,0.84,-1.68,-0.43,-29.87,-15.85,-12.88,0.862239,0.128391,-0.086276,0.482223,0.0,0.0,0.0,0,0
2026-06-16 16:08:58.939,2152204,L_Hip,-0.1786,0.9118,0.3611,-4.12,4.51,2.98,36.27,-5.66,-19.58,0.691397,0.394848,0.372631,0.476608,0.0,0.0,0.0,0,0
2026-06-16 16:08:58.939,2152085,R_Ankle,0.1336,0.0537,0.9981,0.85,-1.67,-0.45,-29.87,-16.49,-12.25,0.862209,0.128422,-0.086215,0.482284,0.0,0.0,0.0,0,0
2026-06-16 16:08:58.941,2152224,L_Hip,-0.1791,0.9098,0.3708,-4.12,4.51,2.98,0.0,0.0,0.0,0.691427,0.394848,0.3726,0.476577,0.0,0.0,0.0,0,0
2026-06-16 16:08:58.942,2152105,R_Ankle,0.1326,0.0527,0.9962,0.85,-1.66,-0.45,-30.38,-16.65,-12.1,0.862209,0.128452,-0.086184,0.482315,0.0,0.0,0.0,0,0
2026-06-16 16:08:58.943,2152244,L_Hip,-0.1712,0.9078,0.365,-4.12,4.52,3.0,36.06,-6.47,-18.56,0.691458,0.394818,0.3726,0.476547,0.0,0.0,0.0,0,0
2026-06-16 16:08:58.944,2152125,R_Ankle,0.1262,0.0507,0.9799,0.86,-1.64,-0.49,-31.57,-16.18,-12.28,0.862178,0.128483,-0.086093,0.482345,0.0,0.0,0.0,0,0
2026-06-16 16:08:58.945,2152264,L_Hip,-0.1771,0.9167,0.3674,-4.12,4.52,3.0,36.6,-5.65,-19.3,0.691488,0.394818,0.3726,0.476516,0.0,0.0,0.0,0,0
2026-06-16 16:08:58.946,2152075,R_Shank,-0.0027,-1.0128,0.9917,-0.09,-1.45,-8.48,-18.38,-21.05,-9.36,0.8511,0.074252,-0.06415,-0.515702,0.0,0.0,0.0,0,0
2026-06-16 16:08:58.948,2152095,R_Shank,0.0021,-0.242,1.0056,-0.1,-1.46,-8.48,-18.7,-22.37,-9.36,0.85107,0.074282,-0.064119,-0.515763,0.0,0.0,0.0,0,0
2026-06-16 16:08:58.950,2152115,R_Shank,0.0021,-2.8132,0.9783,-0.09,-1.48,-8.45,0.0,0.0,0.0,0.85107,0.074282,-0.064089,-0.515793,0.0,0.0,0.0,0,0
2026-06-16 16:08:58.951,2152135,R_Shank,-0.0017,-1.9128,0.9898,-0.08,-1.5,-8.45,-18.68,-23.36,-9.37,0.851039,0.074282,-0.064089,-0.515793,0.0,0.0,0.0,0,0
2026-06-16 16:08:58.958,2152226,L_Hip,-0.1698,0.9059,0.3616,-4.11,4.51,3.0,36.95,-4.36,-18.44,0.691519,0.394787,0.372631,0.476485,0.0,0.0,0.0,0,0
2026-06-16 16:08:58.960,2152246,L_Hip,-0.1683,0.9152,0.3659,-4.12,4.52,3.01,0.0,0.0,0.0,0.691519,0.394787,0.372631,0.476455,0.0,0.0,0.0,0,0
2026-06-16 16:08:58.962,2152097,R_Shank,0.0011,-0.5012,0.998,-0.11,-1.52,-8.49,-19.37,-23.01,-8.45,0.851039,0.074282,-0.064089,-0.515793,0.0,0.0,0.0,0,0
2026-06-16 16:08:58.962,2152266,L_Hip,-0.1683,0.9132,0.3708,-4.12,4.52,3.0,35.91,-5.35,-18.42,0.691549,0.394787,0.372662,0.476455,0.0,0.0,0.0,0,0
2026-06-16 16:08:58.964,2152286,L_Hip,-0.1712,0.9137,0.3635,-4.12,4.53,2.99,36.79,-4.2,-19.16,0.691549,0.394757,0.372631,0.476455,0.0,0.0,0.0,0,0
2026-06-16 16:08:58.964,2152117,R_Shank,0.0036,1.2992,0.9864,-0.1,-1.53,-8.48,-18.37,-21.39,-9.96,0.851039,0.074282,-0.064089,-0.515824,0.0,0.0,0.0,0,0
2026-06-16 16:08:58.966,2152137,R_Shank,0.0065,2.4584,0.9922,-0.1,-1.54,-8.48,0.0,0.0,0.0,0.851009,0.074252,-0.064119,-0.515885,0.0,0.0,0.0,0,0
2026-06-16 16:08:58.968,2152157,R_Shank,0.0144,-2.172,1.0013,-0.09,-1.54,-8.48,-18.85,-23.19,-8.91,0.850978,0.074221,-0.06415,-0.515915,0.0,0.0,0.0,0,0
2026-06-16 16:08:58.969,2152237,L_Shank,0.0248,-0.1296,0.9714,1.76,-1.16,-0.23,35.57,5.74,-16.26,0.461379,0.007904,-0.069796,0.884396,0.0,0.0,0.0,0,0
2026-06-16 16:08:58.971,2152257,L_Shank,0.0306,-0.1261,0.9782,1.76,-1.18,-0.22,0.0,0.0,0.0,0.461379,0.007904,-0.069796,0.884396,0.0,0.0,0.0,0,0
2026-06-16 16:08:58.973,2152277,L_Shank,0.0311,-0.1217,0.981,1.76,-1.19,-0.23,36.44,4.55,-16.09,0.461348,0.007904,-0.069826,0.884426,0.0,0.0,0.0,0,0
2026-06-16 16:08:58.974,2152297,L_Shank,0.0296,-0.1408,0.969,1.77,-1.2,-0.23,36.43,5.55,-15.17,0.461318,0.007965,-0.069826,0.884426,0.0,0.0,0.0,0,0
2026-06-16 16:08:58.975,2152111,R_Ankle,0.1326,0.0527,0.9976,0.83,-1.61,-0.55,-30.37,-15.71,-11.5,0.862209,0.128483,-0.086032,0.482345,0.0,0.0,0.0,0,0
2026-06-16 16:08:58.977,2152131,R_Ankle,0.1444,0.0576,0.999,0.83,-1.61,-0.54,0.0,0.0,0.0,0.862209,0.128483,-0.08594,0.482345,0.0,0.0,0.0,0,0
2026-06-16 16:08:58.980,2152151,R_Ankle,0.1297,0.0552,0.9871,0.83,-1.61,-0.54,-30.4,-16.0,-13.65,0.862239,0.128483,-0.085849,0.482315,0.0,0.0,0.0,0,0
2026-06-16 16:08:58.982,2152249,L_Hip,-0.1585,0.9186,0.3664,-4.11,4.51,2.96,36.6,-5.98,-19.59,0.69158,0.394726,0.372631,0.476455,0.0,0.0,0.0,0,0
2026-06-16 16:08:58.983,2152171,R_Ankle,0.1297,0.0537,0.989,0.83,-1.61,-0.55,-30.23,-17.44,-12.86,0.862239,0.128483,-0.085757,0.482315,0.0,0.0,0.0,0,0
2026-06-16 16:08:58.984,2152269,L_Hip,-0.1747,0.9137,0.3606,-4.12,4.53,2.97,0.0,0.0,0.0,0.69158,0.394726,0.372662,0.476424,0.0,0.0,0.0,0,0
2026-06-16 16:08:58.986,2152289,L_Hip,-0.1693,0.9167,0.3533,-4.12,4.53,2.97,36.43,-5.82,-19.73,0.691549,0.394757,0.372692,0.476394,0.0,0.0,0.0,0,0
2026-06-16 16:08:58.989,2152309,L_Hip,-0.1693,0.9186,0.3703,-4.12,4.52,2.96,37.09,-6.45,-19.45,0.69158,0.394726,0.372692,0.476394,0.0,0.0,0.0,0,0
2026-06-16 16:08:58.997,2152132,R_Ankle,0.1164,0.0606,1.0062,0.84,-1.6,-0.51,-30.56,-16.49,-12.88,0.8623,0.128605,-0.08478,0.482376,0.0,0.0,0.0,0,0
2026-06-16 16:08:58.999,2152152,R_Ankle,0.1199,0.0631,0.9909,0.83,-1.61,-0.51,0.0,0.0,0.0,0.8623,0.128605,-0.084658,0.482376,0.0,0.0,0.0,0,0
2026-06-16 16:08:59.000,2152172,R_Ankle,0.1228,0.0517,0.989,0.82,-1.62,-0.51,-31.58,-17.14,-11.96,0.8623,0.128636,-0.084536,0.482376,0.0,0.0,0.0,0,0
2026-06-16 16:08:59.003,2152192,R_Ankle,0.1282,0.0616,0.9962,0.8,-1.61,-0.53,-29.73,-16.3,-14.57,0.862331,0.128605,-0.084414,0.482376,0.0,0.0,0.0,0,0
2026-06-16 16:08:59.004,2152271,L_Hip,-0.1688,0.9132,0.3698,-4.14,4.52,2.96,36.28,-5.34,-19.88,0.69158,0.394696,0.372692,0.476394,0.0,0.0,0.0,0,0
2026-06-16 16:08:59.006,2152291,L_Hip,-0.1659,0.9098,0.3693,-4.14,4.51,2.94,0.0,0.0,0.0,0.69161,0.394696,0.372692,0.476394,0.0,0.0,0.0,0,0
2026-06-16 16:08:59.007,2152143,R_Shank,-0.0022,-0.1128,0.9989,-0.09,-1.54,-8.48,-19.37,-22.36,-9.66,0.850948,0.07419,-0.06418,-0.515946,0.0,0.0,0.0,0,0
2026-06-16 16:08:59.008,2152311,L_Hip,-0.1678,0.9054,0.3616,-4.13,4.52,2.96,36.08,-5.83,-18.85,0.69158,0.394696,0.372662,0.476424,0.0,0.0,0.0,0,0
2026-06-16 16:08:59.010,2152163,R_Shank,0.0144,-1.0128,0.9893,-0.09,-1.52,-8.48,-18.2,-22.21,-9.22,0.850948,0.07416,-0.064211,-0.515976,0.0,0.0,0.0,0,0
2026-06-16 16:08:59.011,2152331,L_Hip,-0.1742,0.9122,0.3712,-4.13,4.51,2.96,36.08,-6.47,-19.72,0.69158,0.394696,0.372692,0.476424,0.0,0.0,0.0,0,0
2026-06-16 16:08:59.012,2152183,R_Shank,0.0007,1.558,0.9859,-0.11,-1.51,-8.47,0.0,0.0,0.0,0.850917,0.074129,-0.064241,-0.516007,0.0,0.0,0.0,0,0
2026-06-16 16:08:59.014,2152203,R_Shank,0.0036,-2.6836,1.0047,-0.12,-1.51,-8.48,-18.37,-21.06,-10.86,0.850917,0.074099,-0.064241,-0.516037,0.0,0.0,0.0,0,0
2026-06-16 16:08:59.019,2152155,R_Ankle,0.1203,0.0586,0.9971,0.78,-1.67,-0.54,-30.88,-16.19,-11.34,0.862362,0.128605,-0.084323,0.482345,0.0,0.0,0.0,0,0
2026-06-16 16:08:59.021,2152175,R_Ankle,0.1154,0.0581,1.0053,0.79,-1.67,-0.54,0.0,0.0,0.0,0.862362,0.128605,-0.084262,0.482315,0.0,0.0,0.0,0,0
2026-06-16 16:08:59.023,2152195,R_Ankle,0.1228,0.0537,1.0058,0.77,-1.68,-0.54,-30.54,-15.54,-11.96,0.862392,0.128574,-0.084201,0.482284,0.0,0.0,0.0,0,0
2026-06-16 16:08:59.024,2152215,R_Ankle,0.1184,0.0572,0.9938,0.75,-1.7,-0.52,-31.74,-16.67,-11.81,0.862423,0.128544,-0.08414,0.482284,0.0,0.0,0.0,0,0
2026-06-16 16:08:59.027,2152163,R_Hip,-0.1082,-0.9913,0.1193,0.28,-1.51,1.75,-24.12,8.04,-18.92,0.357707,-0.246529,0.565966,-0.700644,0.0,0.0,0.0,0,0
2026-06-16 16:08:59.029,2152183,R_Hip,-0.1042,-0.9796,0.1174,0.29,-1.51,1.76,0.0,0.0,0.0,0.357646,-0.246498,0.565996,-0.700644,0.0,0.0,0.0,0,0
2026-06-16 16:08:59.031,2152203,R_Hip,-0.0968,-0.9791,0.1265,0.3,-1.51,1.78,-26.49,7.86,-20.12,0.357616,-0.246467,0.565996,-0.700674,0.0,0.0,0.0,0,0
2026-06-16 16:08:59.032,2152223,R_Hip,-0.1037,-0.985,0.1198,0.29,-1.51,1.79,-25.03,7.86,-20.46,0.357585,-0.246467,0.566027,-0.700674,0.0,0.0,0.0,0,0
2026-06-16 16:08:59.034,2152165,R_Shank,0.008,2.3288,0.9984,-0.1,-1.5,-8.44,-17.51,-22.56,-9.23,0.850887,0.074038,-0.064241,-0.516068,0.0,0.0,0.0,0,0
2026-06-16 16:08:59.036,2152185,R_Shank,0.01,1.558,0.9859,-0.1,-1.51,-8.42,-19.73,-21.35,-9.04,0.850887,0.074007,-0.064241,-0.516068,0.0,0.0,0.0,0,0
2026-06-16 16:08:59.038,2152205,R_Shank,0.0026,1.4288,0.985,-0.09,-1.5,-8.41,0.0,0.0,0.0,0.850887,0.073977,-0.064272,-0.516068,0.0,0.0,0.0,0,0
2026-06-16 16:08:59.040,2152225,R_Shank,0.0075,-1.1424,1.0028,-0.06,-1.48,-8.41,-17.51,-22.56,-9.23,0.850917,0.073946,-0.064272,-0.516068,0.0,0.0,0.0,0,0
2026-06-16 16:08:59.042,2152177,R_Ankle,0.1194,0.0522,0.9784,0.75,-1.74,-0.5,-30.03,-16.35,-10.87,0.862423,0.128544,-0.08414,0.482284,0.0,0.0,0.0,0,0
2026-06-16 16:08:59.044,2152311,L_Shank,0.0311,-0.1247,0.9734,1.76,-1.21,-0.19,34.19,5.75,-17.18,0.461287,0.007996,-0.069826,0.884457,0.0,0.0,0.0,0,0
2026-06-16 16:08:59.044,2152197,R_Ankle,0.1267,0.0572,0.9976,0.76,-1.76,-0.5,0.0,0.0,0.0,0.862423,0.128513,-0.084109,0.482253,0.0,0.0,0.0,0,0
2026-06-16 16:08:59.046,2152331,L_Shank,0.0262,-0.1193,0.9705,1.76,-1.22,-0.21,0.0,0.0,0.0,0.461257,0.008057,-0.069887,0.884457,0.0,0.0,0.0,0,0
2026-06-16 16:08:59.046,2152217,R_Ankle,0.1301,0.0601,0.9899,0.74,-1.76,-0.51,-31.08,-16.96,-13.34,0.862423,0.128513,-0.08414,0.482253,0.0,0.0,0.0,0,0
2026-06-16 16:08:59.048,2152351,L_Shank,0.0335,-0.1222,0.9652,1.75,-1.22,-0.19,36.44,5.9,-15.8,0.461226,0.008087,-0.069918,0.884457,0.0,0.0,0.0,0,0
2026-06-16 16:08:59.048,2152237,R_Ankle,0.1145,0.0671,0.9856,0.75,-1.78,-0.51,-31.58,-17.78,-11.33,0.862423,0.128544,-0.08417,0.482253,0.0,0.0,0.0,0,0
2026-06-16 16:08:59.050,2152371,L_Shank,0.0423,-0.133,0.9566,1.76,-1.23,-0.18,36.44,5.22,-15.48,0.461226,0.008148,-0.069948,0.884457,0.0,0.0,0.0,0,0
2026-06-16 16:08:59.052,2152187,R_Hip,-0.1032,-0.9889,0.1347,0.3,-1.53,1.8,-25.57,7.67,-19.61,0.357555,-0.246437,0.566027,-0.700705,0.0,0.0,0.0,0,0
2026-06-16 16:08:59.053,2152207,R_Hip,-0.1082,-0.9777,0.1289,0.31,-1.54,1.8,0.0,0.0,0.0,0.357555,-0.246406,0.566027,-0.700735,0.0,0.0,0.0,0,0
2026-06-16 16:08:59.055,2152227,R_Hip,-0.1042,-0.986,0.1318,0.29,-1.56,1.8,-25.03,7.12,-19.43,0.357555,-0.246376,0.565996,-0.700735,0.0,0.0,0.0,0,0
2026-06-16 16:08:59.058,2152247,R_Hip,-0.0993,-0.9791,0.1275,0.27,-1.58,1.79,-25.21,8.04,-19.95,0.357524,-0.246376,0.566027,-0.700735,0.0,0.0,0.0,0,0
2026-06-16 16:08:59.071,2152339,L_Hip,-0.1678,0.9118,0.3621,-4.14,4.51,2.93,35.9,-5.35,-17.84,0.691549,0.394726,0.372662,0.476455,0.0,0.0,0.0,0,0
2026-06-16 16:08:59.073,2152359,L_Hip,-0.1639,0.9019,0.3587,-4.14,4.51,2.93,0.0,0.0,0.0,0.691549,0.394757,0.372662,0.476485,0.0,0.0,0.0,0,0
2026-06-16 16:08:59.075,2152379,L_Hip,-0.1766,0.9137,0.3683,-4.14,4.51,2.93,37.1,-5.49,-18.87,0.691519,0.394757,0.372662,0.476485,0.0,0.0,0.0,0,0
2026-06-16 16:08:59.075,2152211,R_Shank,0.0154,-1.1424,0.998,-0.07,-1.5,-8.41,-18.89,-21.86,-8.0,0.850917,0.073946,-0.064302,-0.516037,0.0,0.0,0.0,0,0
2026-06-16 16:08:59.078,2152399,L_Hip,-0.1762,0.9044,0.3683,-4.14,4.51,2.92,35.78,-5.18,-20.01,0.691488,0.394787,0.372631,0.476485,0.0,0.0,0.0,0,0
2026-06-16 16:08:59.078,2152231,R_Shank,0.0154,-2.6836,1.0028,-0.08,-1.48,-8.41,0.0,0.0,0.0,0.850917,0.073916,-0.064364,-0.516037,0.0,0.0,0.0,0,0
2026-06-16 16:08:59.080,2152251,R_Shank,0.0198,-0.5012,0.9922,-0.08,-1.48,-8.41,-18.53,-22.53,-8.91,0.850917,0.073885,-0.064394,-0.516007,0.0,0.0,0.0,0,0
2026-06-16 16:08:59.082,2152271,R_Shank,0.0075,2.1992,0.9898,-0.08,-1.48,-8.44,-18.03,-21.72,-9.36,0.850948,0.073855,-0.064425,-0.516007,0.0,0.0,0.0,0,0
2026-06-16 16:08:59.084,2152351,L_Ankle,0.1599,-0.2324,0.9429,5.41,-0.85,-10.29,34.68,1.92,-11.0,-0.27955,-0.06238,0.122196,-0.950255,0.0,0.0,0.0,0,0
2026-06-16 16:08:59.084,2152212,R_Hip,-0.1101,-0.9821,0.1212,0.25,-1.61,1.75,-25.75,5.66,-19.09,0.357524,-0.246376,0.565996,-0.700735,0.0,0.0,0.0,0,0
2026-06-16 16:08:59.086,2152371,L_Ankle,0.1545,-0.2299,0.9611,5.41,-0.85,-10.3,36.24,2.79,-10.8,-0.27955,-0.06238,0.122196,-0.950255,0.0,0.0,0.0,0,0
2026-06-16 16:08:59.087,2152232,R_Hip,-0.1082,-0.9879,0.1179,0.26,-1.61,1.76,0.0,0.0,0.0,0.357494,-0.246437,0.566027,-0.700735,0.0,0.0,0.0,0,0
2026-06-16 16:08:59.089,2152352,L_Ankle,0.1594,-0.2294,0.9496,5.41,-0.86,-10.3,0.0,0.0,0.0,-0.27958,-0.062349,0.122196,-0.950255,0.0,0.0,0.0,0,0
2026-06-16 16:08:59.089,2152252,R_Hip,-0.1077,-0.9855,0.1309,0.26,-1.61,1.76,-25.76,7.86,-20.46,0.357494,-0.246467,0.566027,-0.700735,0.0,0.0,0.0,0,0
2026-06-16 16:08:59.091,2152372,L_Ankle,0.1663,-0.2143,0.9477,5.39,-0.87,-10.31,37.65,2.05,-11.12,-0.27958,-0.062319,0.122196,-0.950255,0.0,0.0,0.0,0,0
2026-06-16 16:08:59.092,2152272,R_Hip,-0.1013,-0.9821,0.128,0.28,-1.61,1.77,-25.39,6.39,-18.75,0.357494,-0.246498,0.565996,-0.700735,0.0,0.0,0.0,0,0
2026-06-16 16:08:59.094,2152223,R_Ankle,0.1277,0.0562,0.9861,0.75,-1.76,-0.46,-31.92,-15.86,-12.9,0.862392,0.128483,-0.084689,0.482223,0.0,0.0,0.0,0,0
2026-06-16 16:08:59.096,2152243,R_Ankle,0.1267,0.0596,1.0053,0.75,-1.76,-0.47,0.0,0.0,0.0,0.862392,0.128483,-0.084719,0.482223,0.0,0.0,0.0,0,0
2026-06-16 16:08:59.097,2152263,R_Ankle,0.1199,0.0497,0.9876,0.76,-1.76,-0.48,-30.39,-16.64,-13.03,0.862392,0.128513,-0.08475,0.482253,0.0,0.0,0.0,0,0
2026-06-16 16:08:59.099,2152283,R_Ankle,0.1272,0.0567,0.9962,0.74,-1.73,-0.5,-31.07,-16.34,-12.42,0.862392,0.128483,-0.08475,0.482253,0.0,0.0,0.0,0,0
2026-06-16 16:08:59.101,2152237,R_Hip,-0.1057,-0.9928,0.1251,0.26,-1.61,1.77,-26.49,7.86,-20.81,0.357463,-0.246529,0.566027,-0.700705,0.0,0.0,0.0,0,0
2026-06-16 16:08:59.103,2152257,R_Hip,-0.1032,-0.9889,0.1256,0.27,-1.62,1.8,0.0,0.0,0.0,0.357463,-0.246559,0.566027,-0.700705,0.0,0.0,0.0,0,0
2026-06-16 16:08:59.105,2152277,R_Hip,-0.1136,-0.9879,0.1275,0.28,-1.62,1.8,-25.03,6.03,-19.77,0.357494,-0.246559,0.566027,-0.700674,0.0,0.0,0.0,0,0
2026-06-16 16:08:59.107,2152297,R_Hip,-0.1087,-0.9889,0.1203,0.27,-1.6,1.83,-25.57,7.67,-18.58,0.357524,-0.246559,0.566057,-0.700644,0.0,0.0,0.0,0,0
2026-06-16 16:08:59.117,2152385,L_Hip,-0.1698,0.9147,0.3664,-4.15,4.5,2.93,36.11,-4.86,-19.73,0.691488,0.394818,0.3726,0.476516,0.0,0.0,0.0,0,0
2026-06-16 16:08:59.119,2152405,L_Hip,-0.1801,0.9152,0.3606,-4.16,4.53,2.93,0.0,0.0,0.0,0.691458,0.394848,0.372631,0.476516,0.0,0.0,0.0,0,0
2026-06-16 16:08:59.120,2152425,L_Hip,-0.1845,0.9098,0.3766,-4.14,4.51,2.92,37.46,-5.15,-20.04,0.691458,0.394848,0.372631,0.476516,0.0,0.0,0.0,0,0
2026-06-16 16:08:59.122,2152445,L_Hip,-0.1742,0.9059,0.3717,-4.15,4.51,2.94,36.93,-5.97,-19.59,0.691458,0.394848,0.372631,0.476516,0.0,0.0,0.0,0,0
2026-06-16 16:08:59.126,2152262,R_Hip,-0.1032,-0.984,0.128,0.29,-1.61,1.84,-25.57,6.21,-19.26,0.357524,-0.246559,0.566088,-0.700613,0.0,0.0,0.0,0,0
2026-06-16 16:08:59.128,2152282,R_Hip,-0.1077,-0.9747,0.1164,0.28,-1.59,1.84,0.0,0.0,0.0,0.357555,-0.246559,0.566088,-0.700613,0.0,0.0,0.0,0,0
2026-06-16 16:08:59.130,2152302,R_Hip,-0.1008,-0.983,0.128,0.28,-1.61,1.82,-26.12,8.22,-19.44,0.357585,-0.246529,0.566088,-0.700583,0.0,0.0,0.0,0,0
2026-06-16 16:08:59.132,2152322,R_Hip,-0.0924,-0.9806,0.1337,0.27,-1.63,1.82,-26.85,7.85,-18.76,0.357585,-0.246559,0.566088,-0.700583,0.0,0.0,0.0,0,0
2026-06-16 16:08:59.138,2152406,L_Hip,-0.1815,0.9093,0.3712,-4.15,4.51,2.94,36.77,-5.81,-19.45,0.691458,0.394879,0.3726,0.476516,0.0,0.0,0.0,0,0
2026-06-16 16:08:59.140,2152426,L_Hip,-0.1712,0.9098,0.3621,-4.15,4.51,2.96,35.58,-5.68,-18.7,0.691458,0.394879,0.3726,0.476547,0.0,0.0,0.0,0,0
2026-06-16 16:08:59.142,2152277,R_Shank,0.01,-1.9128,0.9831,-0.09,-1.47,-8.45,-18.01,-23.04,-9.37,0.850948,0.073855,-0.064455,-0.516007,0.0,0.0,0.0,0,0
2026-06-16 16:08:59.143,2152446,L_Hip,-0.1776,0.9113,0.3717,-4.14,4.52,2.96,0.0,0.0,0.0,0.691458,0.394848,0.37257,0.476547,0.0,0.0,0.0,0,0
2026-06-16 16:08:59.144,2152297,R_Shank,0.011,-1.654,0.9917,-0.06,-1.47,-8.43,0.0,0.0,0.0,0.850917,0.073855,-0.064455,-0.516007,0.0,0.0,0.0,0,0
2026-06-16 16:08:59.145,2152407,L_Hip,-0.1717,0.9113,0.3727,-4.15,4.51,2.95,35.22,-6.01,-17.82,0.691488,0.394848,0.37257,0.476547,0.0,0.0,0.0,0,0
2026-06-16 16:08:59.146,2152317,R_Shank,0.0036,2.4584,0.9835,-0.07,-1.45,-8.44,-18.68,-22.71,-10.27,0.850917,0.073855,-0.064455,-0.516007,0.0,0.0,0.0,0,0
2026-06-16 16:08:59.149,2152337,R_Shank,0.0026,-0.1128,0.984,-0.07,-1.45,-8.43,-19.05,-21.7,-9.05,0.850948,0.073824,-0.064455,-0.516007,0.0,0.0,0.0,0,0
2026-06-16 16:08:59.151,2152287,R_Hip,-0.1047,-0.9869,0.1159,0.28,-1.63,1.81,-26.67,7.31,-19.61,0.357616,-0.246559,0.566088,-0.700552,0.0,0.0,0.0,0,0
2026-06-16 16:08:59.153,2152307,R_Hip,-0.1072,-0.9752,0.1304,0.26,-1.61,1.78,0.0,0.0,0.0,0.357646,-0.24659,0.566118,-0.700522,0.0,0.0,0.0,0,0
2026-06-16 16:08:59.155,2152327,R_Hip,-0.1042,-0.9821,0.1212,0.27,-1.62,1.79,-25.75,7.12,-18.75,0.357646,-0.24659,0.566088,-0.700522,0.0,0.0,0.0,0,0
2026-06-16 16:08:59.156,2152347,R_Hip,-0.1037,-0.9821,0.1265,0.26,-1.62,1.77,-24.84,8.04,-19.27,0.357646,-0.246651,0.566088,-0.700522,0.0,0.0,0.0,0,0
2026-06-16 16:08:59.158,2152290,R_Ankle,0.114,0.0477,0.9876,0.77,-1.74,-0.48,-31.4,-16.35,-11.81,0.862362,0.128513,-0.08478,0.482253,0.0,0.0,0.0,0,0
2026-06-16 16:08:59.160,2152310,R_Ankle,0.1223,0.0542,1.0034,0.77,-1.72,-0.48,0.0,0.0,0.0,0.862362,0.128513,-0.08478,0.482253,0.0,0.0,0.0,0,0
2026-06-16 16:08:59.161,2152429,L_Hip,-0.1693,0.9098,0.3645,-4.13,4.54,2.97,36.76,-5.17,-18.58,0.691519,0.394818,0.37257,0.476516,0.0,0.0,0.0,0,0
2026-06-16 16:08:59.162,2152330,R_Ankle,0.1228,0.0557,1.0139,0.77,-1.72,-0.49,-30.88,-15.55,-11.35,0.862362,0.128513,-0.08475,0.482253,0.0,0.0,0.0,0,0
2026-06-16 16:08:59.164,2152449,L_Hip,-0.1815,0.9063,0.3645,-4.14,4.54,2.96,36.44,-4.53,-18.86,0.691519,0.394818,0.37257,0.476516,0.0,0.0,0.0,0,0
2026-06-16 16:08:59.165,2152350,R_Ankle,0.1252,0.0651,0.9971,0.8,-1.71,-0.47,-31.91,-15.87,-12.28,0.862362,0.128483,-0.084719,0.482284,0.0,0.0,0.0,0,0
2026-06-16 16:08:59.167,2152469,L_Hip,-0.1771,0.9142,0.3732,-4.13,4.54,2.98,0.0,0.0,0.0,0.691549,0.394787,0.372539,0.476485,0.0,0.0,0.0,0,0
2026-06-16 16:08:59.167,2152300,R_Shank,0.0065,0.658,0.985,-0.06,-1.43,-8.4,-19.55,-21.53,-9.8,0.850948,0.073824,-0.064425,-0.516007,0.0,0.0,0.0,0,0
2026-06-16 16:08:59.169,2152489,L_Hip,-0.1776,0.925,0.3727,-4.12,4.53,3.0,36.26,-5.98,-19.58,0.69158,0.394757,0.372509,0.476516,0.0,0.0,0.0,0,0
2026-06-16 16:08:59.170,2152320,R_Shank,0.0129,3.2288,0.9831,-0.08,-1.43,-8.38,0.0,0.0,0.0,0.850948,0.073824,-0.064394,-0.515976,0.0,0.0,0.0,0,0
2026-06-16 16:08:59.172,2152436,L_Shank,0.0331,-0.13,0.9844,1.77,-1.24,-0.18,34.18,4.72,-16.23,0.461226,0.008209,-0.069948,0.884457,0.0,0.0,0.0,0,0
2026-06-16 16:08:59.172,2152340,R_Shank,0.0007,-1.0128,0.9999,-0.06,-1.43,-8.35,-17.36,-21.73,-9.37,0.850978,0.073855,-0.064394,-0.515946,0.0,0.0,0.0,0,0
2026-06-16 16:08:59.174,2152456,L_Shank,0.036,-0.1281,0.9662,1.76,-1.23,-0.19,0.0,0.0,0.0,0.461196,0.00824,-0.069979,0.884457,0.0,0.0,0.0,0,0
2026-06-16 16:08:59.175,2152360,R_Shank,0.0002,-2.6836,0.9898,-0.06,-1.42,-8.37,-19.0,-23.37,-10.87,0.851009,0.073855,-0.064364,-0.515885,0.0,0.0,0.0,0,0
2026-06-16 16:08:59.176,2152476,L_Shank,0.0243,-0.1251,0.9738,1.75,-1.24,-0.19,37.13,4.19,-14.85,0.461196,0.008301,-0.070009,0.884457,0.0,0.0,0.0,0,0
2026-06-16 16:08:59.178,2152496,L_Shank,0.0409,-0.1242,0.9681,1.75,-1.24,-0.19,36.62,5.74,-16.26,0.461165,0.008332,-0.070009,0.884487,0.0,0.0,0.0,0,0
2026-06-16 16:08:59.200,2152336,R_Ankle,0.1262,0.0562,1.0072,0.79,-1.7,-0.48,-30.55,-15.86,-12.27,0.862362,0.128483,-0.084658,0.482284,0.0,0.0,0.0,0,0
2026-06-16 16:08:59.201,2152356,R_Ankle,0.1272,0.0552,0.9995,0.79,-1.7,-0.48,0.0,0.0,0.0,0.862362,0.128483,-0.084628,0.482284,0.0,0.0,0.0,0,0
2026-06-16 16:08:59.203,2152376,R_Ankle,0.1243,0.0492,0.9904,0.79,-1.7,-0.48,-31.07,-16.66,-12.11,0.862362,0.128483,-0.084628,0.482315,0.0,0.0,0.0,0,0
2026-06-16 16:08:59.206,2152396,R_Ankle,0.1243,0.0522,0.9895,0.79,-1.7,-0.48,-29.87,-16.49,-11.95,0.862362,0.128483,-0.084597,0.482345,0.0,0.0,0.0,0,0
2026-06-16 16:08:59.207,2152474,L_Hip,-0.1766,0.9118,0.3674,-4.13,4.53,3.01,37.78,-5.47,-19.17,0.69161,0.394726,0.372509,0.476485,0.0,0.0,0.0,0,0
2026-06-16 16:08:59.208,2152337,R_Hip,-0.1096,-0.9845,0.128,0.25,-1.59,1.77,-25.75,5.66,-18.75,0.357677,-0.246651,0.566118,-0.700491,0.0,0.0,0.0,0,0
2026-06-16 16:08:59.209,2152494,L_Hip,-0.1712,0.9073,0.3727,-4.12,4.52,3.01,36.96,-5.64,-20.47,0.691641,0.394696,0.372539,0.476455,0.0,0.0,0.0,0,0
2026-06-16 16:08:59.210,2152357,R_Hip,-0.1101,-0.9855,0.1381,0.25,-1.6,1.8,0.0,0.0,0.0,0.357677,-0.246651,0.566118,-0.700491,0.0,0.0,0.0,0,0
2026-06-16 16:08:59.212,2152514,L_Hip,-0.1752,0.9078,0.3819,-4.11,4.53,3.03,0.0,0.0,0.0,0.691641,0.394665,0.372539,0.476455,0.0,0.0,0.0,0,0
2026-06-16 16:08:59.213,2152377,R_Hip,-0.1092,-0.983,0.1203,0.27,-1.59,1.79,-25.94,6.21,-19.26,0.357707,-0.24662,0.566088,-0.700491,0.0,0.0,0.0,0,0
2026-06-16 16:08:59.215,2152534,L_Hip,-0.1712,0.9073,0.364,-4.11,4.54,3.02,36.59,-5.66,-18.72,0.691671,0.394635,0.372539,0.476424,0.0,0.0,0.0,0,0
2026-06-16 16:08:59.216,2152397,R_Hip,-0.1018,-0.9816,0.1174,0.28,-1.58,1.8,-26.49,6.76,-19.78,0.357707,-0.246651,0.566118,-0.700491,0.0,0.0,0.0,0,0
2026-06-16 16:08:59.232,2152367,R_Shank,0.0139,2.588,0.9975,-0.08,-1.41,-8.38,-20.03,-22.68,-9.65,0.851039,0.073885,-0.064333,-0.515854,0.0,0.0,0.0,0,0
2026-06-16 16:08:59.234,2152387,R_Shank,0.0129,3.2288,0.9931,-0.06,-1.45,-8.4,0.0,0.0,0.0,0.851039,0.073946,-0.064302,-0.515824,0.0,0.0,0.0,0,0
2026-06-16 16:08:59.236,2152407,R_Shank,0.008,2.8404,1.009,-0.06,-1.44,-8.4,-18.9,-20.54,-8.89,0.85107,0.073916,-0.064302,-0.515793,0.0,0.0,0.0,0,0
2026-06-16 16:08:59.239,2152427,R_Shank,0.0061,-1.7836,0.9864,-0.06,-1.44,-8.42,-18.52,-22.22,-10.42,0.85107,0.073946,-0.064272,-0.515763,0.0,0.0,0.0,0,0
2026-06-16 16:08:59.244,2152512,L_Shank,0.0379,-0.1237,0.9748,1.75,-1.22,-0.22,36.09,4.53,-15.15,0.461165,0.008332,-0.07004,0.884487,0.0,0.0,0.0,0,0
2026-06-16 16:08:59.246,2152532,L_Shank,0.035,-0.1291,0.9686,1.75,-1.22,-0.22,0.0,0.0,0.0,0.461165,0.008332,-0.07004,0.884487,0.0,0.0,0.0,0,0
2026-06-16 16:08:59.248,2152552,L_Shank,0.0419,-0.1212,0.959,1.75,-1.22,-0.21,35.92,6.08,-16.26,0.461165,0.008332,-0.07004,0.884487,0.0,0.0,0.0,0,0
2026-06-16 16:08:59.250,2152572,L_Shank,0.034,-0.131,0.9705,1.75,-1.23,-0.22,36.44,4.88,-15.79,0.461165,0.008332,-0.07004,0.884487,0.0,0.0,0.0,0,0
2026-06-16 16:08:59.253,2152387,R_Hip,-0.1022,-0.9879,0.139,0.27,-1.6,1.82,-25.39,8.59,-20.47,0.357707,-0.246651,0.566088,-0.700491,0.0,0.0,0.0,0,0
2026-06-16 16:08:59.254,2152518,L_Hip,-0.1727,0.9034,0.3587,-4.09,4.53,3.03,35.4,-6.16,-18.84,0.691702,0.394604,0.372539,0.476424,0.0,0.0,0.0,0,0
2026-06-16 16:08:59.256,2152407,R_Hip,-0.1072,-0.9918,0.1318,0.26,-1.58,1.82,0.0,0.0,0.0,0.357738,-0.24662,0.566088,-0.700491,0.0,0.0,0.0,0,0
2026-06-16 16:08:59.257,2152538,L_Hip,-0.1727,0.9088,0.3732,-4.09,4.54,3.03,36.4,-6.79,-19.15,0.691733,0.394574,0.372539,0.476424,0.0,0.0,0.0,0,0
2026-06-16 16:08:59.259,2152427,R_Hip,-0.1096,-0.9904,0.1371,0.28,-1.61,1.83,-24.3,7.49,-19.43,0.357768,-0.24662,0.566118,-0.700461,0.0,0.0,0.0,0,0
2026-06-16 16:08:59.260,2152558,L_Hip,-0.1752,0.9039,0.3567,-4.09,4.52,3.03,0.0,0.0,0.0,0.691733,0.394574,0.372539,0.476424,0.0,0.0,0.0,0,0
2026-06-16 16:08:59.262,2152447,R_Hip,-0.1037,-0.9865,0.126,0.26,-1.59,1.83,-25.21,6.94,-19.61,0.357768,-0.24659,0.566118,-0.700461,0.0,0.0,0.0,0,0
2026-06-16 16:08:59.263,2152578,L_Hip,-0.1649,0.9132,0.3679,-4.09,4.53,3.0,36.11,-5.5,-20.02,0.691733,0.394574,0.372539,0.476424,0.0,0.0,0.0,0,0
2026-06-16 16:08:59.269,2152536,L_Shank,0.037,-0.131,0.9618,1.76,-1.22,-0.21,36.62,4.38,-16.56,0.461165,0.008301,-0.070009,0.884487,0.0,0.0,0.0,0,0
2026-06-16 16:08:59.271,2152556,L_Shank,0.0345,-0.1261,0.9767,1.76,-1.21,-0.2,0.0,0.0,0.0,0.461196,0.008301,-0.070009,0.884487,0.0,0.0,0.0,0,0
2026-06-16 16:08:59.273,2152576,L_Shank,0.0301,-0.1251,0.9705,1.77,-1.19,-0.19,35.58,5.4,-16.56,0.461196,0.00824,-0.069979,0.884457,0.0,0.0,0.0,0,0
2026-06-16 16:08:59.275,2152537,L_Shank,0.0355,-0.1291,0.9657,1.75,-1.19,-0.19,35.22,3.7,-15.91,0.461196,0.008209,-0.069979,0.884457,0.0,0.0,0.0,0,0
2026-06-16 16:08:59.279,2152412,R_Hip,-0.0983,-0.9962,0.1236,0.27,-1.6,1.81,-24.66,7.86,-19.78,0.357799,-0.24662,0.566088,-0.700461,0.0,0.0,0.0,0,0
2026-06-16 16:08:59.280,2152541,L_Hip,-0.1678,0.9142,0.3703,-4.09,4.53,3.0,36.78,-4.84,-19.45,0.691733,0.394543,0.372539,0.476455,0.0,0.0,0.0,0,0
2026-06-16 16:08:59.282,2152432,R_Hip,-0.0978,-0.9869,0.1203,0.25,-1.58,1.79,0.0,0.0,0.0,0.357799,-0.24662,0.566088,-0.700461,0.0,0.0,0.0,0,0
2026-06-16 16:08:59.283,2152561,L_Hip,-0.1766,0.9211,0.3495,-4.11,4.55,3.0,36.45,-4.85,-19.73,0.691733,0.394543,0.372539,0.476455,0.0,0.0,0.0,0,0
2026-06-16 16:08:59.285,2152452,R_Hip,-0.1151,-0.983,0.1323,0.26,-1.58,1.77,-26.12,7.86,-19.44,0.357768,-0.24662,0.566088,-0.700461,0.0,0.0,0.0,0,0
2026-06-16 16:08:59.288,2152581,L_Hip,-0.1668,0.9196,0.3703,-4.11,4.53,3.0,35.59,-5.35,-18.99,0.691733,0.394513,0.37257,0.476455,0.0,0.0,0.0,0,0
2026-06-16 16:08:59.289,2152472,R_Hip,-0.1062,-0.9796,0.1323,0.27,-1.58,1.77,-25.03,8.22,-20.81,0.357768,-0.24662,0.566088,-0.700461,0.0,0.0,0.0,0,0
2026-06-16 16:08:59.291,2152601,L_Hip,-0.1698,0.9162,0.3712,-4.12,4.51,2.99,0.0,0.0,0.0,0.691702,0.394513,0.37257,0.476485,0.0,0.0,0.0,0,0
2026-06-16 16:08:59.294,2152554,L_Ankle,0.1633,-0.228,0.9458,5.41,-0.87,-10.3,36.2,4.2,-11.81,-0.27958,-0.062349,0.122196,-0.950255,0.0,0.0,0.0,0,0
2026-06-16 16:08:59.296,2152574,L_Ankle,0.156,-0.2177,0.9462,5.41,-0.88,-10.29,0.0,0.0,0.0,-0.27958,-0.062349,0.122196,-0.950255,0.0,0.0,0.0,0,0
2026-06-16 16:08:59.299,2152594,L_Ankle,0.1594,-0.2289,0.9429,5.41,-0.89,-10.32,35.19,2.8,-10.82,-0.27958,-0.062349,0.122196,-0.950255,0.0,0.0,0.0,0,0
2026-06-16 16:08:59.302,2152614,L_Ankle,0.1589,-0.2206,0.9506,5.41,-0.9,-10.29,35.36,3.33,-10.98,-0.27958,-0.062349,0.122196,-0.950255,0.0,0.0,0.0,0,0
2026-06-16 16:08:59.303,2152436,R_Shank,0.0041,-0.5012,1.0018,-0.08,-1.45,-8.41,-18.0,-23.38,-9.98,0.8511,0.073946,-0.064272,-0.515763,0.0,0.0,0.0,0,0
2026-06-16 16:08:59.306,2152562,L_Shank,0.0316,-0.13,0.9825,1.76,-1.18,-0.2,36.08,4.52,-14.53,0.461226,0.008148,-0.069948,0.884457,0.0,0.0,0.0,0,0
2026-06-16 16:08:59.307,2152456,R_Shank,0.0115,-1.7836,0.9831,-0.07,-1.44,-8.43,-19.06,-21.04,-9.05,0.8511,0.074007,-0.064241,-0.515763,0.0,0.0,0.0,0,0
2026-06-16 16:08:59.309,2152582,L_Shank,0.037,-0.1251,0.9714,1.77,-1.18,-0.2,0.0,0.0,0.0,0.461226,0.008118,-0.069948,0.884457,0.0,0.0,0.0,0,0
2026-06-16 16:08:59.310,2152476,R_Shank,0.0056,1.2992,0.9783,-0.08,-1.45,-8.45,-17.85,-22.55,-9.52,0.8511,0.074007,-0.064241,-0.515732,0.0,0.0,0.0,0,0
2026-06-16 16:08:59.313,2152602,L_Shank,0.0345,-0.1188,0.9786,1.75,-1.19,-0.22,36.62,6.08,-16.58,0.461226,0.008087,-0.069918,0.884457,0.0,0.0,0.0,0,0
2026-06-16 16:08:59.313,2152496,R_Shank,0.0065,3.0992,0.9912,-0.08,-1.45,-8.44,0.0,0.0,0.0,0.8511,0.074038,-0.064241,-0.515732,0.0,0.0,0.0,0,0
2026-06-16 16:08:59.316,2152622,L_Shank,0.0379,-0.1261,0.9633,1.75,-1.18,-0.22,35.93,5.74,-16.57,0.461226,0.008087,-0.069857,0.884457,0.0,0.0,0.0,0,0
2026-06-16 16:08:59.319,2152564,L_Hip,-0.1683,0.9162,0.3582,-4.14,4.5,2.95,37.09,-5.49,-18.29,0.691702,0.394513,0.372539,0.476516,0.0,0.0,0.0,0,0
2026-06-16 16:08:59.321,2152584,L_Hip,-0.1771,0.9226,0.365,-4.14,4.5,2.93,36.96,-4.04,-19.02,0.691702,0.394513,0.372509,0.476547,0.0,0.0,0.0,0,0
2026-06-16 16:08:59.324,2152604,L_Hip,-0.1663,0.9113,0.3751,-4.14,4.48,2.93,37.1,-6.45,-20.03,0.691671,0.394543,0.372509,0.476577,0.0,0.0,0.0,0,0
2026-06-16 16:08:59.327,2152624,L_Hip,-0.1668,0.9211,0.3577,-4.16,4.48,2.94,0.0,0.0,0.0,0.691641,0.394574,0.372539,0.476577,0.0,0.0,0.0,0,0
2026-06-16 16:08:59.328,2152462,R_Hip,-0.1003,-0.9899,0.1207,0.27,-1.57,1.74,-25.94,8.4,-19.61,0.357799,-0.24659,0.566057,-0.700491,0.0,0.0,0.0,0,0
2026-06-16 16:08:59.331,2152586,L_Shank,0.0238,-0.1291,0.9609,1.75,-1.17,-0.22,35.57,3.36,-16.22,0.461287,0.007996,-0.069826,0.884457,0.0,0.0,0.0,0,0
2026-06-16 16:08:59.332,2152482,R_Hip,-0.1136,-0.9821,0.1289,0.27,-1.57,1.76,0.0,0.0,0.0,0.357738,-0.24662,0.566088,-0.700491,0.0,0.0,0.0,0,0
2026-06-16 16:08:59.333,2152606,L_Shank,0.0262,-0.1247,0.9801,1.76,-1.19,-0.2,0.0,0.0,0.0,0.461257,0.007996,-0.069826,0.884457,0.0,0.0,0.0,0,0
2026-06-16 16:08:59.335,2152502,R_Hip,-0.1116,-0.9806,0.1203,0.29,-1.57,1.76,-24.66,8.22,-19.44,0.357738,-0.24662,0.566088,-0.700491,0.0,0.0,0.0,0,0
2026-06-16 16:08:59.336,2152626,L_Shank,0.0331,-0.1178,0.9633,1.75,-1.19,-0.19,35.39,5.21,-15.16,0.461257,0.007996,-0.069826,0.884457,0.0,0.0,0.0,0,0
2026-06-16 16:08:59.338,2152522,R_Hip,-0.1126,-0.9821,0.1174,0.28,-1.55,1.8,-25.57,7.67,-19.27,0.357738,-0.24659,0.566118,-0.700491,0.0,0.0,0.0,0,0
2026-06-16 16:08:59.340,2152587,L_Shank,0.037,-0.132,0.9897,1.74,-1.2,-0.18,36.44,3.87,-16.08,0.461226,0.008026,-0.069857,0.884457,0.0,0.0,0.0,0,0
2026-06-16 16:08:59.342,2152609,L_Hip,-0.1762,0.9083,0.3679,-4.15,4.49,2.93,36.75,-6.46,-19.15,0.69158,0.394604,0.372539,0.476608,0.0,0.0,0.0,0,0
2026-06-16 16:08:59.347,2152480,R_Shank,0.009,1.4288,0.9907,-0.09,-1.45,-8.43,-18.5,-22.55,-11.02,0.8511,0.074038,-0.064241,-0.515732,0.0,0.0,0.0,0,0
2026-06-16 16:08:59.347,2152629,L_Hip,-0.1737,0.9226,0.3553,-4.16,4.47,2.94,35.91,-5.35,-18.42,0.691549,0.394635,0.372539,0.476638,0.0,0.0,0.0,0,0
2026-06-16 16:08:59.350,2152649,L_Hip,-0.1683,0.9103,0.3654,-4.16,4.51,2.93,36.95,-4.68,-19.31,0.691519,0.394665,0.372539,0.476638,0.0,0.0,0.0,0,0
2026-06-16 16:08:59.351,2152500,R_Shank,0.0129,-1.9128,0.9984,-0.09,-1.45,-8.42,-19.23,-20.87,-9.19,0.8511,0.074068,-0.064211,-0.515732,0.0,0.0,0.0,0,0
2026-06-16 16:08:59.353,2152669,L_Hip,-0.1703,0.9157,0.3683,-4.16,4.51,2.9,35.58,-5.03,-18.12,0.691488,0.394696,0.372539,0.476669,0.0,0.0,0.0,0,0
2026-06-16 16:08:59.354,2152520,R_Shank,0.011,-2.8132,0.9869,-0.09,-1.45,-8.41,-18.17,-23.21,-10.13,0.8511,0.074068,-0.064211,-0.515732,0.0,0.0,0.0,0,0
2026-06-16 16:08:59.357,2152540,R_Shank,0.0031,-0.3716,0.9879,-0.09,-1.44,-8.4,0.0,0.0,0.0,0.8511,0.074068,-0.064211,-0.515732,0.0,0.0,0.0,0,0
2026-06-16 16:08:59.357,2152611,L_Shank,0.0321,-0.1217,0.9561,1.77,-1.23,-0.19,36.44,4.89,-16.1,0.461196,0.008209,-0.070009,0.884457,0.0,0.0,0.0,0,0
2026-06-16 16:08:59.361,2152487,R_Hip,-0.1018,-0.985,0.1323,0.29,-1.54,1.82,-26.48,7.49,-18.75,0.357738,-0.246559,0.566118,-0.700491,0.0,0.0,0.0,0,0
2026-06-16 16:08:59.361,2152631,L_Shank,0.0389,-0.1242,0.9642,1.75,-1.24,-0.18,35.04,4.88,-15.46,0.461196,0.008209,-0.070009,0.884457,0.0,0.0,0.0,0,0
2026-06-16 16:08:59.364,2152651,L_Shank,0.0355,-0.1212,0.9705,1.77,-1.24,-0.17,36.45,4.89,-16.41,0.461196,0.008209,-0.070009,0.884487,0.0,0.0,0.0,0,0
2026-06-16 16:08:59.365,2152507,R_Hip,-0.1037,-0.9816,0.1198,0.29,-1.54,1.83,0.0,0.0,0.0,0.357738,-0.246529,0.566149,-0.700491,0.0,0.0,0.0,0,0
2026-06-16 16:08:59.367,2152671,L_Shank,0.0423,-0.1291,0.9786,1.77,-1.23,-0.17,0.0,0.0,0.0,0.461165,0.008209,-0.070009,0.884487,0.0,0.0,0.0,0,0
2026-06-16 16:08:59.368,2152527,R_Hip,-0.1087,-0.9865,0.1241,0.29,-1.54,1.84,-26.12,7.86,-19.44,0.357738,-0.246498,0.566179,-0.700461,0.0,0.0,0.0,0,0
2026-06-16 16:08:59.371,2152636,L_Shank,0.0428,-0.131,0.9729,1.77,-1.21,-0.2,36.96,4.37,-15.63,0.461226,0.008209,-0.07004,0.884457,0.0,0.0,0.0,0,0
2026-06-16 16:08:59.371,2152547,R_Hip,-0.1027,-0.983,0.1284,0.29,-1.56,1.82,-25.58,8.04,-21.32,0.357738,-0.246467,0.566179,-0.700461,0.0,0.0,0.0,0,0
2026-06-16 16:08:59.373,2152656,L_Shank,0.036,-0.1154,0.983,1.77,-1.21,-0.2,35.04,5.22,-15.78,0.461226,0.008179,-0.070009,0.884457,0.0,0.0,0.0,0,0
2026-06-16 16:08:59.374,2152502,R_Shank,0.0065,1.4288,1.0018,-0.09,-1.45,-8.41,-18.02,-22.05,-9.67,0.8511,0.074099,-0.064211,-0.515702,0.0,0.0,0.0,0,0
2026-06-16 16:08:59.377,2152676,L_Shank,0.0238,-0.1183,0.9801,1.77,-1.21,-0.21,34.52,4.38,-16.23,0.461257,0.008148,-0.070009,0.884457,0.0,0.0,0.0,0,0
2026-06-16 16:08:59.378,2152522,R_Shank,-0.0002,-1.0128,0.9907,-0.09,-1.44,-8.39,-18.87,-22.2,-9.51,0.851131,0.074099,-0.06418,-0.515671,0.0,0.0,0.0,0,0
2026-06-16 16:08:59.380,2152696,L_Shank,0.0282,-0.1183,0.9734,1.76,-1.18,-0.22,0.0,0.0,0.0,0.461257,0.008118,-0.070009,0.884426,0.0,0.0,0.0,0,0
2026-06-16 16:08:59.381,2152542,R_Shank,0.008,0.2692,0.9773,-0.09,-1.45,-8.38,0.0,0.0,0.0,0.851131,0.074099,-0.06418,-0.515671,0.0,0.0,0.0,0,0
2026-06-16 16:08:59.383,2152562,R_Shank,0.0075,2.0696,0.9994,-0.09,-1.45,-8.39,-18.55,-21.54,-8.9,0.851161,0.074129,-0.06418,-0.515641,0.0,0.0,0.0,0,0
2026-06-16 16:08:59.387,2152515,R_Ankle,0.1331,0.0517,0.9904,0.79,-1.71,-0.48,-31.24,-16.82,-12.26,0.862331,0.128483,-0.084567,0.482345,0.0,0.0,0.0,0,0
2026-06-16 16:08:59.388,2152654,L_Hip,-0.1757,0.9019,0.3635,-4.15,4.53,2.93,36.59,-5.34,-18.43,0.691458,0.394696,0.372539,0.476669,0.0,0.0,0.0,0,0
2026-06-16 16:08:59.389,2152535,R_Ankle,0.1154,0.0567,0.9976,0.8,-1.71,-0.48,0.0,0.0,0.0,0.862331,0.128513,-0.084536,0.482345,0.0,0.0,0.0,0,0
2026-06-16 16:08:59.390,2152674,L_Hip,-0.1698,0.9083,0.3795,-4.13,4.54,2.93,35.89,-6.0,-17.83,0.691427,0.394726,0.37257,0.476699,0.0,0.0,0.0,0,0
2026-06-16 16:08:59.392,2152555,R_Ankle,0.1311,0.0581,1.0014,0.8,-1.7,-0.49,-31.41,-17.29,-12.42,0.862331,0.128513,-0.084506,0.482376,0.0,0.0,0.0,0,0
2026-06-16 16:08:59.393,2152694,L_Hip,-0.1737,0.9,0.3611,-4.13,4.55,2.94,36.42,-7.11,-20.31,0.691427,0.394757,0.37257,0.476699,0.0,0.0,0.0,0,0
2026-06-16 16:08:59.395,2152575,R_Ankle,0.1238,0.0601,0.9832,0.8,-1.72,-0.5,-30.19,-15.23,-11.04,0.862331,0.128513,-0.084475,0.482376,0.0,0.0,0.0,0,0
2026-06-16 16:08:59.397,2152714,L_Hip,-0.1757,0.9157,0.3446,-4.13,4.56,2.94,35.75,-5.19,-18.56,0.691397,0.394787,0.37257,0.476699,0.0,0.0,0.0,0,0
2026-06-16 16:08:59.398,2152525,R_Shank,0.0021,1.4288,0.985,-0.1,-1.46,-8.43,-19.2,-22.52,-9.21,0.851161,0.074129,-0.06415,-0.51561,0.0,0.0,0.0,0,0
2026-06-16 16:08:59.400,2152667,L_Ankle,0.1678,-0.2236,0.9597,5.4,-0.89,-10.32,34.65,3.34,-11.34,-0.27958,-0.06238,0.122196,-0.950255,0.0,0.0,0.0,0,0
2026-06-16 16:08:59.402,2152545,R_Shank,0.0016,-0.7536,0.9912,-0.11,-1.46,-8.42,-17.66,-23.38,-9.68,0.851192,0.074129,-0.06415,-0.51558,0.0,0.0,0.0,0,0
2026-06-16 16:08:59.403,2152687,L_Ankle,0.1658,-0.2187,0.9554,5.39,-0.92,-10.32,37.09,2.59,-12.65,-0.279611,-0.06238,0.122196,-0.950224,0.0,0.0,0.0,0,0
2026-06-16 16:08:59.405,2152565,R_Shank,0.0051,-0.5012,1.0023,-0.09,-1.46,-8.45,0.0,0.0,0.0,0.851192,0.074099,-0.064119,-0.51558,0.0,0.0,0.0,0,0
2026-06-16 16:08:59.407,2152707,L_Ankle,0.1555,-0.2285,0.9582,5.39,-0.9,-10.33,35.39,1.91,-10.65,-0.279611,-0.062441,0.122196,-0.950224,0.0,0.0,0.0,0,0
2026-06-16 16:08:59.408,2152585,R_Shank,0.007,-0.8832,1.0056,-0.1,-1.48,-8.46,-17.84,-22.56,-10.13,0.851192,0.074099,-0.064119,-0.51558,0.0,0.0,0.0,0,0
2026-06-16 16:08:59.409,2152727,L_Ankle,0.1624,-0.2192,0.9635,5.4,-0.9,-10.3,0.0,0.0,0.0,-0.279641,-0.062471,0.122196,-0.950224,0.0,0.0,0.0,0,0
2026-06-16 16:08:59.412,2152547,R_Shank,0.0041,1.8172,0.9826,-0.09,-1.48,-8.45,-18.39,-21.05,-9.05,0.851192,0.074099,-0.064089,-0.51561,0.0,0.0,0.0,0,0
2026-06-16 16:08:59.414,2152567,R_Shank,0.0105,0.5284,0.9931,-0.08,-1.48,-8.45,-18.51,-22.87,-10.12,0.851161,0.074068,-0.064089,-0.515641,0.0,0.0,0.0,0,0
2026-06-16 16:08:59.416,2152587,R_Shank,0.0115,-0.8832,0.9816,-0.08,-1.5,-8.41,-18.7,-21.71,-9.96,0.851161,0.074068,-0.064058,-0.515641,0.0,0.0,0.0,0,0
2026-06-16 16:08:59.418,2152607,R_Shank,0.0065,-3.1952,0.9859,-0.08,-1.49,-8.4,0.0,0.0,0.0,0.851161,0.074068,-0.064058,-0.515641,0.0,0.0,0.0,0,0
2026-06-16 16:08:59.421,2152689,L_Ankle,0.1584,-0.2162,0.952,5.41,-0.9,-10.32,36.05,2.96,-11.99,-0.279641,-0.062471,0.122196,-0.950224,0.0,0.0,0.0,0,0
2026-06-16 16:08:59.424,2152709,L_Ankle,0.1658,-0.2211,0.9506,5.4,-0.91,-10.31,35.55,3.15,-10.47,-0.279641,-0.062502,0.122166,-0.950224,0.0,0.0,0.0,0,0
2026-06-16 16:08:59.427,2152729,L_Ankle,0.1707,-0.2285,0.9419,5.41,-0.9,-10.31,35.54,2.44,-11.15,-0.279672,-0.062563,0.122166,-0.950224,0.0,0.0,0.0,0,0
2026-06-16 16:08:59.428,2152562,R_Hip,-0.1057,-0.983,0.1159,0.27,-1.57,1.78,-25.94,8.4,-19.27,0.357738,-0.246437,0.566179,-0.700491,0.0,0.0,0.0,0,0
2026-06-16 16:08:59.430,2152749,L_Ankle,0.1599,-0.2275,0.9626,5.4,-0.88,-10.31,34.96,4.04,-13.03,-0.279672,-0.062593,0.122196,-0.950194,0.0,0.0,0.0,0,0
2026-06-16 16:08:59.431,2152582,R_Hip,-0.1092,-0.9874,0.1265,0.25,-1.58,1.77,0.0,0.0,0.0,0.357707,-0.246467,0.56621,-0.700461,0.0,0.0,0.0,0,0
2026-06-16 16:08:59.433,2152699,L_Hip,-0.1703,0.9152,0.3582,-4.12,4.55,2.95,35.57,-5.68,-18.41,0.691397,0.394818,0.372539,0.476699,0.0,0.0,0.0,0,0
2026-06-16 16:08:59.434,2152602,R_Hip,-0.1101,-0.9874,0.1265,0.25,-1.59,1.76,-24.12,7.67,-19.26,0.357707,-0.246467,0.56621,-0.700461,0.0,0.0,0.0,0,0
2026-06-16 16:08:59.436,2152719,L_Hip,-0.1762,0.9172,0.3654,-4.12,4.54,2.95,0.0,0.0,0.0,0.691427,0.394787,0.372539,0.476669,0.0,0.0,0.0,0,0
2026-06-16 16:08:59.437,2152622,R_Hip,-0.1082,-0.9879,0.1174,0.25,-1.58,1.74,-25.21,7.67,-20.29,0.357677,-0.246498,0.56624,-0.700461,0.0,0.0,0.0,0,0
2026-06-16 16:08:59.439,2152739,L_Hip,-0.1683,0.9108,0.3708,-4.12,4.54,2.94,35.23,-6.33,-19.28,0.691427,0.394818,0.372509,0.476669,0.0,0.0,0.0,0,0
2026-06-16 16:08:59.442,2152759,L_Hip,-0.1771,0.9083,0.3659,-4.12,4.53,2.95,35.75,-5.51,-18.85,0.691458,0.394818,0.372509,0.476669,0.0,0.0,0.0,0,0
2026-06-16 16:08:59.444,2152712,L_Shank,0.0414,-0.1325,0.9724,1.77,-1.18,-0.27,35.22,4.72,-16.24,0.461257,0.008087,-0.070009,0.884426,0.0,0.0,0.0,0,0
2026-06-16 16:08:59.447,2152732,L_Shank,0.0331,-0.1315,0.982,1.76,-1.19,-0.25,35.57,4.71,-15.93,0.461257,0.008057,-0.069979,0.884426,0.0,0.0,0.0,0,0
2026-06-16 16:08:59.448,2152582,R_Ankle,0.1159,0.0542,0.9914,0.78,-1.71,-0.49,-32.08,-16.03,-11.82,0.862331,0.128544,-0.084445,0.482376,0.0,0.0,0.0,0,0
2026-06-16 16:08:59.450,2152752,L_Shank,0.0301,-0.1266,0.97,1.75,-1.17,-0.24,35.22,4.38,-16.23,0.461257,0.008026,-0.069979,0.884457,0.0,0.0,0.0,0,0
2026-06-16 16:08:59.451,2152602,R_Ankle,0.1223,0.0477,1.0029,0.77,-1.71,-0.5,0.0,0.0,0.0,0.862331,0.128544,-0.084414,0.482376,0.0,0.0,0.0,0,0
2026-06-16 16:08:59.454,2152772,L_Shank,0.0331,-0.1261,0.9594,1.74,-1.16,-0.22,0.0,0.0,0.0,0.461226,0.008026,-0.069979,0.884457,0.0,0.0,0.0,0,0
2026-06-16 16:08:59.454,2152622,R_Ankle,0.1292,0.0502,0.9866,0.79,-1.71,-0.49,-30.21,-15.21,-13.2,0.862331,0.128544,-0.084414,0.482376,0.0,0.0,0.0,0,0
2026-06-16 16:08:59.458,2152642,R_Ankle,0.1164,0.0586,0.9928,0.79,-1.7,-0.5,-30.23,-17.44,-12.55,0.862331,0.128513,-0.084384,0.482376,0.0,0.0,0.0,0,0
2026-06-16 16:08:59.467,2152735,L_Ankle,0.1614,-0.225,0.9482,5.41,-0.87,-10.29,36.05,3.67,-10.97,-0.279672,-0.062593,0.122227,-0.950194,0.0,0.0,0.0,0,0
2026-06-16 16:08:59.470,2152755,L_Ankle,0.1683,-0.225,0.9539,5.41,-0.87,-10.3,36.06,4.39,-9.95,-0.279672,-0.062593,0.122227,-0.950194,0.0,0.0,0.0,0,0
2026-06-16 16:08:59.472,2152775,L_Ankle,0.1668,-0.226,0.953,5.41,-0.87,-10.28,36.55,4.19,-11.81,-0.279672,-0.062624,0.122227,-0.950194,0.0,0.0,0.0,0,0
2026-06-16 16:08:59.474,2152795,L_Ankle,0.1619,-0.2275,0.9616,5.41,-0.85,-10.29,35.39,1.91,-10.31,-0.279672,-0.062624,0.122196,-0.950194,0.0,0.0,0.0,0,0
2026-06-16 16:08:59.476,2152736,L_Shank,0.0277,-0.1188,0.9777,1.76,-1.16,-0.19,35.21,4.03,-15.3,0.461226,0.008026,-0.069979,0.884457,0.0,0.0,0.0,0,0
2026-06-16 16:08:59.479,2152613,R_Hip,-0.1072,-0.9782,0.1217,0.25,-1.58,1.73,-24.11,7.67,-18.92,0.357616,-0.246559,0.566271,-0.70043,0.0,0.0,0.0,0,0
2026-06-16 16:08:59.480,2152756,L_Shank,0.0243,-0.1247,0.9638,1.75,-1.16,-0.22,35.57,4.71,-15.93,0.461226,0.007996,-0.069979,0.884457,0.0,0.0,0.0,0,0
2026-06-16 16:08:59.482,2152633,R_Hip,-0.1027,-0.9835,0.1227,0.25,-1.58,1.74,0.0,0.0,0.0,0.357585,-0.246559,0.566271,-0.70043,0.0,0.0,0.0,0,0
2026-06-16 16:08:59.483,2152776,L_Shank,0.0292,-0.13,0.9614,1.74,-1.18,-0.2,36.79,4.2,-15.78,0.461226,0.007965,-0.069979,0.884457,0.0,0.0,0.0,0,0
2026-06-16 16:08:59.485,2152653,R_Hip,-0.1008,-0.9791,0.1183,0.25,-1.6,1.74,-24.11,7.67,-18.92,0.357555,-0.24662,0.566271,-0.70043,0.0,0.0,0.0,0,0
2026-06-16 16:08:59.486,2152796,L_Shank,0.035,-0.1232,0.9791,1.76,-1.18,-0.23,0.0,0.0,0.0,0.461196,0.007935,-0.069948,0.884457,0.0,0.0,0.0,0,0
2026-06-16 16:08:59.489,2152673,R_Hip,-0.1151,-0.9869,0.1347,0.25,-1.59,1.76,-25.21,8.04,-19.95,0.357555,-0.24662,0.566271,-0.70043,0.0,0.0,0.0,0,0
2026-06-16 16:08:59.490,2152756,L_Ankle,0.1526,-0.2245,0.9635,5.41,-0.87,-10.3,36.21,3.13,-12.5,-0.279611,-0.062349,0.122135,-0.950255,0.0,0.0,0.0,0,0
2026-06-16 16:08:59.492,2152614,R_Hip,-0.1062,-0.9845,0.1275,0.27,-1.61,1.79,-25.21,6.94,-19.26,0.357524,-0.246651,0.566301,-0.70043,0.0,0.0,0.0,0,0
2026-06-16 16:08:59.493,2152757,L_Ankle,0.1496,-0.2187,0.9683,5.4,-0.87,-10.3,0.0,0.0,0.0,-0.279611,-0.062349,0.122135,-0.950255,0.0,0.0,0.0,0,0
2026-06-16 16:08:59.495,2152634,R_Hip,-0.1161,-0.9835,0.1328,0.27,-1.61,1.78,0.0,0.0,0.0,0.357524,-0.246651,0.566301,-0.70043,0.0,0.0,0.0,0,0
2026-06-16 16:08:59.496,2152777,L_Ankle,0.157,-0.2236,0.9544,5.41,-0.87,-10.29,35.38,0.49,-12.35,-0.279611,-0.062319,0.122135,-0.950255,0.0,0.0,0.0,0,0
2026-06-16 16:08:59.499,2152654,R_Hip,-0.1022,-0.9801,0.1212,0.27,-1.59,1.8,-26.67,7.67,-19.95,0.357555,-0.246651,0.566271,-0.70043,0.0,0.0,0.0,0,0
2026-06-16 16:08:59.499,2152797,L_Ankle,0.1668,-0.2265,0.9448,5.4,-0.89,-10.29,36.25,3.14,-10.46,-0.279611,-0.062288,0.122105,-0.950255,0.0,0.0,0.0,0,0
2026-06-16 16:08:59.502,2152674,R_Hip,-0.1042,-0.9894,0.1174,0.3,-1.6,1.79,-25.57,8.4,-19.61,0.357555,-0.246681,0.566301,-0.7004,0.0,0.0,0.0,0,0
2026-06-16 16:08:59.502,2152761,L_Shank,0.0311,-0.1212,0.9762,1.74,-1.17,-0.21,36.63,4.39,-17.18,0.461196,0.007935,-0.069979,0.884487,0.0,0.0,0.0,0,0
2026-06-16 16:08:59.505,2152615,R_Shank,0.0095,2.4584,0.9975,-0.07,-1.49,-8.38,-18.54,-21.87,-8.91,0.851161,0.074038,-0.064089,-0.51561,0.0,0.0,0.0,0,0
2026-06-16 16:08:59.505,2152781,L_Shank,0.0282,-0.1271,0.9748,1.75,-1.19,-0.19,36.27,4.38,-16.55,0.461196,0.007965,-0.069979,0.884487,0.0,0.0,0.0,0,0
2026-06-16 16:08:59.508,2152801,L_Shank,0.0365,-0.1188,0.9705,1.77,-1.18,-0.19,34.7,5.9,-15.78,0.461165,0.007965,-0.069979,0.884487,0.0,0.0,0.0,0,0
2026-06-16 16:08:59.508,2152635,R_Shank,0.0105,-0.242,0.9879,-0.06,-1.49,-8.39,-19.05,-22.03,-8.75,0.851192,0.074007,-0.064089,-0.51561,0.0,0.0,0.0,0,0
2026-06-16 16:08:59.510,2152655,R_Shank,0.007,3.0992,0.9778,-0.06,-1.5,-8.4,0.0,0.0,0.0,0.851222,0.073977,-0.064119,-0.51558,0.0,0.0,0.0,0,0
2026-06-16 16:08:59.511,2152821,L_Shank,0.037,-0.1251,0.9844,1.75,-1.18,-0.19,0.0,0.0,0.0,0.461135,0.007935,-0.070009,0.884487,0.0,0.0,0.0,0,0
2026-06-16 16:08:59.513,2152675,R_Shank,0.0149,0.9172,0.9956,-0.07,-1.49,-8.42,-19.23,-21.53,-8.6,0.851222,0.073977,-0.06415,-0.515549,0.0,0.0,0.0,0,0
2026-06-16 16:08:59.513,2152767,L_Hip,-0.1737,0.9127,0.3659,-4.12,4.52,2.95,36.1,-4.86,-18.86,0.691488,0.394787,0.372478,0.476638,0.0,0.0,0.0,0,0
2026-06-16 16:08:59.515,2152787,L_Hip,-0.1786,0.9049,0.3804,-4.13,4.52,2.96,0.0,0.0,0.0,0.691488,0.394787,0.372478,0.476638,0.0,0.0,0.0,0,0
2026-06-16 16:08:59.518,2152807,L_Hip,-0.1722,0.9176,0.3591,-4.15,4.53,2.98,38.27,-4.98,-17.87,0.691519,0.394757,0.372478,0.476608,0.0,0.0,0.0,0,0
2026-06-16 16:08:59.520,2152827,L_Hip,-0.1771,0.9029,0.3577,-4.13,4.51,2.96,35.28,-5.03,-20.73,0.691549,0.394757,0.372478,0.476608,0.0,0.0,0.0,0,0
2026-06-16 16:08:59.522,2152789,L_Hip,-0.1776,0.9167,0.3674,-4.12,4.52,2.98,36.92,-6.29,-19.01,0.691549,0.394726,0.372509,0.476577,0.0,0.0,0.0,0,0
2026-06-16 16:08:59.525,2152809,L_Hip,-0.1742,0.9201,0.3587,-4.13,4.52,2.97,0.0,0.0,0.0,0.69158,0.394696,0.372509,0.476577,0.0,0.0,0.0,0,0
2026-06-16 16:08:59.527,2152829,L_Hip,-0.1757,0.9093,0.3679,-4.11,4.51,2.99,36.25,-6.31,-19.29,0.691549,0.394696,0.37257,0.476577,0.0,0.0,0.0,0,0
2026-06-16 16:08:59.527,2152662,R_Hip,-0.0968,-0.9786,0.1366,0.29,-1.61,1.8,-25.39,7.12,-19.09,0.357555,-0.246681,0.566271,-0.7004,0.0,0.0,0.0,0,0
2026-06-16 16:08:59.530,2152849,L_Hip,-0.1747,0.9019,0.3683,-4.12,4.53,2.98,36.43,-5.82,-19.73,0.691519,0.394696,0.372631,0.476547,0.0,0.0,0.0,0,0
2026-06-16 16:08:59.531,2152682,R_Hip,-0.1032,-0.9801,0.1159,0.29,-1.6,1.78,0.0,0.0,0.0,0.357555,-0.246681,0.566301,-0.7004,0.0,0.0,0.0,0,0
2026-06-16 16:08:59.533,2152702,R_Hip,-0.1087,-0.9816,0.1236,0.29,-1.61,1.77,-25.21,6.21,-20.63,0.357555,-0.246712,0.566271,-0.7004,0.0,0.0,0.0,0,0
2026-06-16 16:08:59.535,2152801,L_Ankle,0.1594,-0.2241,0.9635,5.42,-0.91,-10.32,35.16,2.44,-12.86,-0.279611,-0.06238,0.122135,-0.950255,0.0,0.0,0.0,0,0
2026-06-16 16:08:59.536,2152722,R_Hip,-0.0968,-0.9835,0.1256,0.27,-1.6,1.77,-25.03,6.76,-19.43,0.357524,-0.246742,0.566271,-0.7004,0.0,0.0,0.0,0,0
2026-06-16 16:08:59.538,2152821,L_Ankle,0.1619,-0.226,0.9496,5.43,-0.9,-10.31,36.04,2.96,-12.33,-0.279611,-0.06241,0.122135,-0.950255,0.0,0.0,0.0,0,0
2026-06-16 16:08:59.539,2152673,R_Ankle,0.1277,0.0601,0.988,0.77,-1.72,-0.5,-31.07,-16.65,-12.73,0.862331,0.128544,-0.084353,0.482376,0.0,0.0,0.0,0,0
2026-06-16 16:08:59.541,2152841,L_Ankle,0.1604,-0.225,0.9558,5.42,-0.9,-10.32,0.0,0.0,0.0,-0.279641,-0.06241,0.122135,-0.950224,0.0,0.0,0.0,0,0
2026-06-16 16:08:59.542,2152693,R_Ankle,0.1272,0.0562,1.0096,0.77,-1.73,-0.48,-30.39,-17.29,-11.79,0.862331,0.128544,-0.084323,0.482376,0.0,0.0,0.0,0,0
2026-06-16 16:08:59.545,2152861,L_Ankle,0.1599,-0.2255,0.9467,5.42,-0.91,-10.32,36.58,2.78,-11.47,-0.279641,-0.062441,0.122135,-0.950224,0.0,0.0,0.0,0,0
2026-06-16 16:08:59.545,2152713,R_Ankle,0.1203,0.0621,0.9976,0.77,-1.72,-0.49,0.0,0.0,0.0,0.862331,0.128513,-0.084323,0.482376,0.0,0.0,0.0,0,0
2026-06-16 16:08:59.547,2152733,R_Ankle,0.1228,0.0487,0.9852,0.77,-1.72,-0.48,-29.51,-14.26,-12.28,0.862331,0.128544,-0.084323,0.482406,0.0,0.0,0.0,0,0
2026-06-16 16:08:59.550,2152682,R_Shank,0.0041,0.658,1.0008,-0.07,-1.49,-8.44,-18.35,-22.71,-9.37,0.851222,0.073946,-0.06418,-0.515549,0.0,0.0,0.0,0,0
2026-06-16 16:08:59.552,2152702,R_Shank,0.01,3.2288,1.0032,-0.06,-1.5,-8.46,0.0,0.0,0.0,0.851222,0.073916,-0.064211,-0.515549,0.0,0.0,0.0,0,0
2026-06-16 16:08:59.554,2152722,R_Shank,0.0095,-2.6836,0.9792,-0.06,-1.49,-8.45,-19.24,-20.86,-8.29,0.851222,0.073916,-0.064211,-0.515549,0.0,0.0,0.0,0,0
2026-06-16 16:08:59.557,2152742,R_Shank,0.011,-2.554,0.9975,-0.08,-1.48,-8.45,-19.39,-21.36,-9.05,0.851192,0.073916,-0.064241,-0.51558,0.0,0.0,0.0,0,0
2026-06-16 16:08:59.559,2152687,R_Hip,-0.0983,-0.9777,0.1217,0.27,-1.61,1.74,-25.75,7.49,-18.41,0.357524,-0.246773,0.566271,-0.7004,0.0,0.0,0.0,0,0
2026-06-16 16:08:59.561,2152707,R_Hip,-0.1092,-0.984,0.1333,0.26,-1.61,1.77,0.0,0.0,0.0,0.357494,-0.246834,0.56624,-0.7004,0.0,0.0,0.0,0,0
2026-06-16 16:08:59.567,2152727,R_Hip,-0.1092,-0.9928,0.1458,0.26,-1.64,1.77,-26.48,7.85,-19.1,0.357524,-0.246834,0.56624,-0.7004,0.0,0.0,0.0,0,0
2026-06-16 16:08:59.569,2152834,L_Hip,-0.1712,0.9108,0.3606,-4.1,4.54,2.98,36.23,-6.95,-19.0,0.691519,0.394696,0.372631,0.476547,0.0,0.0,0.0,0,0
2026-06-16 16:08:59.572,2152747,R_Hip,-0.1008,-0.9777,0.1222,0.27,-1.64,1.77,-25.03,7.86,-20.46,0.357524,-0.246864,0.566179,-0.70043,0.0,0.0,0.0,0,0
2026-06-16 16:08:59.573,2152854,L_Hip,-0.1771,0.9147,0.3635,-4.12,4.51,2.98,0.0,0.0,0.0,0.691519,0.394665,0.372662,0.476547,0.0,0.0,0.0,0,0
2026-06-16 16:08:59.576,2152705,R_Shank,0.0036,-2.6836,0.9754,-0.06,-1.48,-8.43,-19.89,-21.84,-8.59,0.851192,0.073916,-0.064272,-0.51558,0.0,0.0,0.0,0,0
2026-06-16 16:08:59.576,2152874,L_Hip,-0.1673,0.9142,0.3674,-4.11,4.52,2.96,35.94,-4.38,-19.0,0.691549,0.394665,0.372662,0.476516,0.0,0.0,0.0,0,0
2026-06-16 16:08:59.580,2152894,L_Hip,-0.1786,0.9127,0.3683,-4.12,4.53,2.97,36.78,-5.17,-19.74,0.691549,0.394635,0.372692,0.476516,0.0,0.0,0.0,0,0
2026-06-16 16:08:59.582,2152725,R_Shank,0.0051,0.5284,1.0028,-0.07,-1.5,-8.45,0.0,0.0,0.0,0.851192,0.073916,-0.064272,-0.51558,0.0,0.0,0.0,0,0
2026-06-16 16:08:59.584,2152847,L_Ankle,0.1609,-0.2241,0.9659,5.41,-0.83,-10.29,36.58,2.42,-11.81,-0.279733,-0.062563,0.122105,-0.950194,0.0,0.0,0.0,0,0
2026-06-16 16:08:59.587,2152867,L_Ankle,0.1653,-0.2265,0.9626,5.39,-0.82,-10.29,35.74,2.26,-10.3,-0.279733,-0.062532,0.122074,-0.950224,0.0,0.0,0.0,0,0
2026-06-16 16:08:59.589,2152745,R_Shank,0.0061,3.0992,0.9989,-0.06,-1.48,-8.44,-19.21,-21.86,-9.2,0.851192,0.073946,-0.064272,-0.51558,0.0,0.0,0.0,0,0
2026-06-16 16:08:59.590,2152887,L_Ankle,0.1599,-0.2231,0.9578,5.4,-0.83,-10.3,0.0,0.0,0.0,-0.279733,-0.062532,0.122105,-0.950194,0.0,0.0,0.0,0,0
2026-06-16 16:08:59.592,2152765,R_Shank,0.0011,-0.242,0.9912,-0.06,-1.48,-8.41,-18.72,-20.72,-9.95,0.851192,0.073946,-0.064272,-0.51558,0.0,0.0,0.0,0,0
2026-06-16 16:08:59.593,2152907,L_Ankle,0.1589,-0.226,0.9472,5.41,-0.83,-10.29,36.62,2.07,-10.11,-0.279733,-0.062502,0.122105,-0.950224,0.0,0.0,0.0,0,0
2026-06-16 16:08:59.603,2152737,R_Hip,-0.1096,-0.9894,0.1256,0.27,-1.63,1.79,-24.48,7.31,-19.6,0.357524,-0.246925,0.56621,-0.7004,0.0,0.0,0.0,0,0
2026-06-16 16:08:59.607,2152757,R_Hip,-0.1008,-0.985,0.1203,0.26,-1.63,1.8,0.0,0.0,0.0,0.357555,-0.246925,0.56621,-0.7004,0.0,0.0,0.0,0,0
2026-06-16 16:08:59.610,2152777,R_Hip,-0.1057,-0.9796,0.1347,0.28,-1.61,1.82,-25.39,7.85,-19.44,0.357585,-0.246925,0.56621,-0.700369,0.0,0.0,0.0,0,0
2026-06-16 16:08:59.613,2152879,L_Hip,-0.1737,0.9137,0.3625,-4.1,4.52,2.98,36.26,-5.98,-19.87,0.691549,0.394635,0.372692,0.476516,0.0,0.0,0.0,0,0
2026-06-16 16:08:59.615,2152797,R_Hip,-0.1101,-0.986,0.1318,0.27,-1.62,1.81,-25.21,7.67,-18.92,0.357616,-0.246925,0.566179,-0.700369,0.0,0.0,0.0,0,0
2026-06-16 16:08:59.617,2152899,L_Hip,-0.1747,0.9113,0.3712,-4.1,4.52,2.99,37.27,-5.96,-19.31,0.691549,0.394604,0.372723,0.476516,0.0,0.0,0.0,0,0
2026-06-16 16:08:59.619,2152919,L_Hip,-0.1703,0.9118,0.3645,-4.1,4.51,2.96,0.0,0.0,0.0,0.691549,0.394604,0.372723,0.476516,0.0,0.0,0.0,0,0
2026-06-16 16:08:59.622,2152939,L_Hip,-0.1703,0.9088,0.3645,-4.11,4.51,2.97,34.89,-5.69,-17.82,0.691549,0.394604,0.372723,0.476516,0.0,0.0,0.0,0,0
2026-06-16 16:08:59.625,2152886,L_Shank,0.0223,-0.1271,0.9734,1.75,-1.2,-0.21,36.79,4.54,-15.47,0.461135,0.007965,-0.07004,0.884518,0.0,0.0,0.0,0,0
2026-06-16 16:08:59.627,2152906,L_Shank,0.0355,-0.1251,0.9671,1.74,-1.21,-0.21,36.97,4.38,-16.56,0.461104,0.007996,-0.07004,0.884518,0.0,0.0,0.0,0,0
2026-06-16 16:08:59.628,2152926,L_Shank,0.036,-0.1384,0.9657,1.75,-1.19,-0.21,0.0,0.0,0.0,0.461074,0.008026,-0.07004,0.884518,0.0,0.0,0.0,0,0
2026-06-16 16:08:59.631,2152946,L_Shank,0.0355,-0.1271,0.9714,1.74,-1.19,-0.2,35.04,4.2,-15.76,0.461043,0.008057,-0.07007,0.884548,0.0,0.0,0.0,0,0
2026-06-16 16:08:59.633,2152901,L_Hip,-0.1766,0.9108,0.3674,-4.11,4.51,2.96,36.6,-4.69,-18.43,0.691549,0.394604,0.372723,0.476516,0.0,0.0,0.0,0,0
2026-06-16 16:08:59.636,2152921,L_Hip,-0.1668,0.9108,0.3504,-4.12,4.5,2.96,36.98,-3.71,-19.6,0.691519,0.394604,0.372753,0.476516,0.0,0.0,0.0,0,0
2026-06-16 16:08:59.638,2152772,R_Shank,0.0095,-1.7836,0.9917,-0.06,-1.48,-8.42,-17.2,-21.24,-9.82,0.851192,0.073977,-0.064302,-0.51558,0.0,0.0,0.0,0,0
2026-06-16 16:08:59.639,2152941,L_Hip,-0.1703,0.9137,0.3742,-4.12,4.5,2.96,0.0,0.0,0.0,0.691519,0.394635,0.372753,0.476516,0.0,0.0,0.0,0,0
2026-06-16 16:08:59.641,2152792,R_Shank,0.008,0.658,0.9984,-0.06,-1.48,-8.42,0.0,0.0,0.0,0.851192,0.074007,-0.064333,-0.515549,0.0,0.0,0.0,0,0
2026-06-16 16:08:59.643,2152961,L_Hip,-0.1742,0.9118,0.363,-4.11,4.5,2.97,36.44,-5.82,-20.02,0.691519,0.394635,0.372753,0.476547,0.0,0.0,0.0,0,0
2026-06-16 16:08:59.644,2152812,R_Shank,0.0046,-1.1424,0.984,-0.07,-1.48,-8.43,-18.35,-22.38,-9.97,0.851192,0.074007,-0.064364,-0.515549,0.0,0.0,0.0,0,0
2026-06-16 16:08:59.647,2152832,R_Shank,0.011,2.0696,0.9739,-0.06,-1.47,-8.42,-18.39,-20.39,-9.65,0.851192,0.074007,-0.064394,-0.515549,0.0,0.0,0.0,0,0
2026-06-16 16:08:59.651,2152786,R_Ankle,0.1223,0.0532,0.9995,0.76,-1.72,-0.48,-30.73,-16.33,-12.42,0.862331,0.128513,-0.084292,0.482406,0.0,0.0,0.0,0,0
2026-06-16 16:08:59.653,2152806,R_Ankle,0.1233,0.0611,0.9976,0.74,-1.73,-0.48,-31.25,-16.48,-13.81,0.862331,0.128483,-0.084292,0.482406,0.0,0.0,0.0,0,0
2026-06-16 16:08:59.656,2152826,R_Ankle,0.1292,0.0572,0.9904,0.77,-1.73,-0.48,0.0,0.0,0.0,0.862331,0.128483,-0.084292,0.482437,0.0,0.0,0.0,0,0
2026-06-16 16:08:59.658,2152846,R_Ankle,0.1243,0.0606,0.9928,0.76,-1.73,-0.48,-30.56,-15.85,-12.88,0.862331,0.128483,-0.084292,0.482437,0.0,0.0,0.0,0,0
2026-06-16 16:08:59.660,2152787,R_Hip,-0.1032,-0.9894,0.1222,0.28,-1.59,1.83,-25.39,7.12,-19.44,0.357616,-0.246925,0.566179,-0.700369,0.0,0.0,0.0,0,0
2026-06-16 16:08:59.662,2152807,R_Hip,-0.1013,-0.9762,0.1073,0.27,-1.61,1.83,0.0,0.0,0.0,0.357646,-0.246925,0.56621,-0.700339,0.0,0.0,0.0,0,0
2026-06-16 16:08:59.665,2152827,R_Hip,-0.1136,-0.983,0.1227,0.28,-1.58,1.81,-25.03,7.85,-18.75,0.357646,-0.246925,0.56624,-0.700308,0.0,0.0,0.0,0,0
2026-06-16 16:08:59.667,2152847,R_Hip,-0.1037,-0.9743,0.1246,0.28,-1.58,1.8,-27.03,6.94,-19.95,0.357646,-0.246895,0.56624,-0.700308,0.0,0.0,0.0,0,0
2026-06-16 16:08:59.669,2152936,L_Shank,0.0311,-0.1222,0.9724,1.75,-1.18,-0.16,35.04,5.9,-15.47,0.461043,0.008087,-0.07004,0.884548,0.0,0.0,0.0,0,0
2026-06-16 16:08:59.672,2152956,L_Shank,0.0252,-0.1237,0.9738,1.77,-1.2,-0.17,36.27,4.72,-16.25,0.461013,0.008118,-0.07007,0.884548,0.0,0.0,0.0,0,0
2026-06-16 16:08:59.674,2152807,R_Ankle,0.1277,0.0636,0.9717,0.74,-1.73,-0.47,-31.39,-15.72,-11.2,0.8623,0.128483,-0.084292,0.482437,0.0,0.0,0.0,0,0
2026-06-16 16:08:59.676,2152976,L_Shank,0.034,-0.131,0.9638,1.75,-1.2,-0.17,35.56,5.38,-15.32,0.461013,0.008148,-0.07007,0.884548,0.0,0.0,0.0,0,0
2026-06-16 16:08:59.677,2152827,R_Ankle,0.1213,0.0576,0.9852,0.74,-1.74,-0.48,-32.25,-16.2,-11.67,0.8623,0.128513,-0.084323,0.482437,0.0,0.0,0.0,0,0
2026-06-16 16:08:59.679,2152996,L_Shank,0.0301,-0.1344,0.9594,1.77,-1.21,-0.19,0.0,0.0,0.0,0.461013,0.008209,-0.07007,0.884548,0.0,0.0,0.0,0,0
2026-06-16 16:08:59.681,2152847,R_Ankle,0.1223,0.0552,0.9976,0.73,-1.74,-0.48,0.0,0.0,0.0,0.8623,0.128483,-0.084323,0.482467,0.0,0.0,0.0,0,0
2026-06-16 16:08:59.682,2152946,L_Hip,-0.1703,0.9127,0.3775,-4.12,4.51,2.97,37.1,-5.48,-19.16,0.691488,0.394635,0.372753,0.476547,0.0,0.0,0.0,0,0
2026-06-16 16:08:59.685,2152867,R_Ankle,0.1301,0.0576,0.9952,0.71,-1.74,-0.49,-31.07,-16.02,-12.73,0.8623,0.128452,-0.084323,0.482437,0.0,0.0,0.0,0,0
2026-06-16 16:08:59.687,2152966,L_Hip,-0.1727,0.9191,0.3582,-4.13,4.51,2.97,35.07,-5.2,-17.97,0.691488,0.394665,0.372753,0.476547,0.0,0.0,0.0,0,0
2026-06-16 16:08:59.689,2152812,R_Hip,-0.1096,-0.985,0.1193,0.29,-1.59,1.78,-26.3,8.41,-19.95,0.357677,-0.246864,0.566301,-0.700278,0.0,0.0,0.0,0,0
2026-06-16 16:08:59.690,2152986,L_Hip,-0.1732,0.9167,0.3654,-4.12,4.51,2.96,0.0,0.0,0.0,0.691458,0.394665,0.372784,0.476516,0.0,0.0,0.0,0,0
2026-06-16 16:08:59.693,2152832,R_Hip,-0.1018,-0.9806,0.1337,0.27,-1.58,1.79,0.0,0.0,0.0,0.357677,-0.246864,0.566301,-0.700247,0.0,0.0,0.0,0,0
2026-06-16 16:08:59.694,2153006,L_Hip,-0.1766,0.9211,0.3703,-4.12,4.52,2.96,36.07,-6.47,-19.14,0.691458,0.394665,0.372814,0.476516,0.0,0.0,0.0,0,0
2026-06-16 16:08:59.696,2152852,R_Hip,-0.1057,-0.9816,0.1241,0.27,-1.59,1.79,-25.21,6.21,-19.95,0.357677,-0.246864,0.566301,-0.700247,0.0,0.0,0.0,0,0
2026-06-16 16:08:59.699,2152872,R_Hip,-0.1141,-0.9865,0.1174,0.27,-1.58,1.77,-26.49,8.22,-20.47,0.357677,-0.246864,0.566332,-0.700247,0.0,0.0,0.0,0,0
2026-06-16 16:08:59.713,2152981,L_Ankle,0.156,-0.2113,0.9554,5.4,-0.85,-10.29,36.21,2.42,-12.84,-0.279702,-0.062349,0.122013,-0.950224,0.0,0.0,0.0,0,0
2026-06-16 16:08:59.718,2153001,L_Ankle,0.1599,-0.2211,0.9486,5.41,-0.85,-10.28,36.22,3.85,-11.14,-0.279702,-0.062319,0.122013,-0.950255,0.0,0.0,0.0,0,0
2026-06-16 16:08:59.719,2152852,R_Ankle,0.1218,0.0611,0.9943,0.79,-1.76,-0.48,-31.58,-16.18,-12.58,0.86227,0.128513,-0.084414,0.482528,0.0,0.0,0.0,0,0
2026-06-16 16:08:59.722,2153021,L_Ankle,0.1584,-0.2265,0.9597,5.39,-0.83,-10.27,35.7,3.32,-11.66,-0.279672,-0.062288,0.121982,-0.950255,0.0,0.0,0.0,0,0
2026-06-16 16:08:59.722,2152872,R_Ankle,0.1184,0.0616,0.9976,0.8,-1.76,-0.5,-32.11,-17.61,-13.34,0.86227,0.128513,-0.084414,0.482528,0.0,0.0,0.0,0,0
2026-06-16 16:08:59.724,2153041,L_Ankle,0.1643,-0.2206,0.9587,5.39,-0.83,-10.29,0.0,0.0,0.0,-0.279672,-0.062258,0.122013,-0.950255,0.0,0.0,0.0,0,0
2026-06-16 16:08:59.725,2152892,R_Ankle,0.1238,0.0552,1.0014,0.78,-1.77,-0.48,0.0,0.0,0.0,0.862239,0.128574,-0.084384,0.482528,0.0,0.0,0.0,0,0
2026-06-16 16:08:59.728,2152987,L_Shank,0.0321,-0.1291,0.9791,1.75,-1.22,-0.2,35.04,4.2,-15.76,0.461013,0.00824,-0.07007,0.884548,0.0,0.0,0.0,0,0
2026-06-16 16:08:59.729,2152912,R_Ankle,0.1223,0.0557,0.9933,0.8,-1.74,-0.49,-30.19,-14.91,-11.66,0.862239,0.128605,-0.084384,0.482528,0.0,0.0,0.0,0,0
2026-06-16 16:08:59.731,2153007,L_Shank,0.0375,-0.1281,0.9695,1.77,-1.2,-0.2,36.27,5.06,-16.56,0.461013,0.008271,-0.070101,0.884548,0.0,0.0,0.0,0,0
2026-06-16 16:08:59.733,2152862,R_Hip,-0.1013,-0.9869,0.1371,0.26,-1.58,1.77,-24.66,8.58,-19.1,0.357646,-0.246864,0.566362,-0.700217,0.0,0.0,0.0,0,0
2026-06-16 16:08:59.734,2153027,L_Shank,0.0365,-0.1247,0.9594,1.78,-1.21,-0.19,35.91,4.71,-15.31,0.461013,0.008271,-0.07004,0.884548,0.0,0.0,0.0,0,0
2026-06-16 16:08:59.736,2152882,R_Hip,-0.1037,-0.9904,0.1217,0.29,-1.58,1.8,0.0,0.0,0.0,0.357646,-0.246864,0.566332,-0.700247,0.0,0.0,0.0,0,0
2026-06-16 16:08:59.737,2153047,L_Shank,0.0287,-0.1271,0.9748,1.77,-1.21,-0.18,0.0,0.0,0.0,0.461043,0.008301,-0.070009,0.884548,0.0,0.0,0.0,0,0
2026-06-16 16:08:59.739,2152902,R_Hip,-0.1047,-0.9855,0.1241,0.28,-1.58,1.79,-25.58,6.95,-20.97,0.357646,-0.246895,0.566332,-0.700247,0.0,0.0,0.0,0,0
2026-06-16 16:08:59.739,2152991,L_Hip,-0.1678,0.9157,0.3795,-4.15,4.53,2.96,36.58,-5.98,-18.72,0.691458,0.394696,0.372814,0.476516,0.0,0.0,0.0,0,0
2026-06-16 16:08:59.741,2152922,R_Hip,-0.1101,-0.9879,0.1256,0.29,-1.58,1.79,-27.04,9.5,-20.64,0.357646,-0.246895,0.566362,-0.700217,0.0,0.0,0.0,0,0
2026-06-16 16:08:59.742,2153011,L_Hip,-0.1762,0.9167,0.3567,-4.14,4.53,2.94,36.07,-5.83,-18.27,0.691458,0.394696,0.372784,0.476516,0.0,0.0,0.0,0,0
2026-06-16 16:08:59.743,2153031,L_Hip,-0.1659,0.9103,0.3698,-4.13,4.52,2.96,0.0,0.0,0.0,0.691427,0.394726,0.372814,0.476516,0.0,0.0,0.0,0,0
2026-06-16 16:08:59.745,2153051,L_Hip,-0.1781,0.9009,0.3529,-4.13,4.52,2.96,36.79,-4.84,-19.74,0.691427,0.394726,0.372845,0.476485,0.0,0.0,0.0,0,0
2026-06-16 16:08:59.747,2153012,L_Shank,0.0257,-0.1266,0.9695,1.77,-1.21,-0.19,36.27,6.08,-16.27,0.461074,0.008301,-0.07004,0.884548,0.0,0.0,0.0,0,0
2026-06-16 16:08:59.749,2153032,L_Shank,0.0404,-0.1237,0.9662,1.75,-1.21,-0.2,35.91,4.02,-14.99,0.461104,0.008301,-0.07004,0.884518,0.0,0.0,0.0,0,0
2026-06-16 16:08:59.751,2152886,R_Shank,0.0026,1.2992,0.9811,-0.07,-1.45,-8.42,-18.53,-22.21,-9.51,0.851192,0.074038,-0.064425,-0.515549,0.0,0.0,0.0,0,0
2026-06-16 16:08:59.751,2153052,L_Shank,0.0306,-0.1237,0.9791,1.77,-1.21,-0.21,36.97,4.38,-16.56,0.461104,0.008271,-0.070009,0.884518,0.0,0.0,0.0,0,0
2026-06-16 16:08:59.753,2152906,R_Shank,0.0115,0.5284,0.9922,-0.07,-1.46,-8.41,0.0,0.0,0.0,0.851192,0.074038,-0.064425,-0.515519,0.0,0.0,0.0,0,0
2026-06-16 16:08:59.754,2153072,L_Shank,0.035,-0.1242,0.981,1.77,-1.2,-0.22,0.0,0.0,0.0,0.461135,0.008271,-0.07004,0.884518,0.0,0.0,0.0,0,0
2026-06-16 16:08:59.756,2153014,L_Hip,-0.1737,0.9152,0.379,-4.12,4.52,2.95,36.44,-5.82,-20.02,0.691427,0.394726,0.372845,0.476485,0.0,0.0,0.0,0,0
2026-06-16 16:08:59.756,2152926,R_Shank,0.0105,0.3988,0.9802,-0.08,-1.45,-8.43,-18.18,-22.88,-9.82,0.851222,0.074038,-0.064455,-0.515519,0.0,0.0,0.0,0,0
2026-06-16 16:08:59.758,2153034,L_Hip,-0.1776,0.9122,0.3664,-4.12,4.54,2.96,36.44,-5.17,-19.15,0.691427,0.394757,0.372845,0.476485,0.0,0.0,0.0,0,0
2026-06-16 16:08:59.758,2152946,R_Shank,0.0115,1.2992,0.9869,-0.08,-1.45,-8.42,-18.71,-21.38,-9.35,0.851222,0.074068,-0.064455,-0.515519,0.0,0.0,0.0,0,0
2026-06-16 16:08:59.761,2152887,R_Hip,-0.1072,-0.983,0.1323,0.28,-1.58,1.8,-25.76,6.76,-19.09,0.357616,-0.246895,0.566362,-0.700217,0.0,0.0,0.0,0,0
2026-06-16 16:08:59.761,2153054,L_Hip,-0.1717,0.9196,0.3635,-4.12,4.54,2.97,35.57,-6.0,-18.99,0.691427,0.394757,0.372814,0.476485,0.0,0.0,0.0,0,0
2026-06-16 16:08:59.763,2152907,R_Hip,-0.1101,-0.9762,0.1193,0.28,-1.59,1.8,-26.12,9.68,-20.13,0.357646,-0.246895,0.566362,-0.700217,0.0,0.0,0.0,0,0
2026-06-16 16:08:59.763,2153074,L_Hip,-0.1688,0.9098,0.3616,-4.12,4.54,2.97,0.0,0.0,0.0,0.691427,0.394787,0.372814,0.476485,0.0,0.0,0.0,0,0
2026-06-16 16:08:59.766,2152927,R_Hip,-0.1136,-0.9835,0.1419,0.29,-1.58,1.81,0.0,0.0,0.0,0.357646,-0.246864,0.566362,-0.700217,0.0,0.0,0.0,0,0
2026-06-16 16:08:59.766,2153026,L_Ankle,0.1599,-0.2201,0.9443,5.41,-0.87,-10.29,35.72,1.55,-11.66,-0.279641,-0.062197,0.122013,-0.950255,0.0,0.0,0.0,0,0
2026-06-16 16:08:59.768,2152947,R_Hip,-0.0978,-0.9865,0.1174,0.28,-1.58,1.79,-25.39,7.48,-17.73,0.357646,-0.246864,0.566362,-0.700247,0.0,0.0,0.0,0,0
2026-06-16 16:08:59.769,2153046,L_Ankle,0.1545,-0.2294,0.9458,5.42,-0.87,-10.29,36.4,2.25,-12.33,-0.279641,-0.062166,0.122013,-0.950255,0.0,0.0,0.0,0,0
2026-06-16 16:08:59.771,2153066,L_Ankle,0.1619,-0.2211,0.951,5.41,-0.85,-10.29,0.0,0.0,0.0,-0.279611,-0.062166,0.122013,-0.950285,0.0,0.0,0.0,0,0
2026-06-16 16:08:59.772,2153086,L_Ankle,0.156,-0.2162,0.9458,5.4,-0.87,-10.29,35.69,4.39,-10.97,-0.279611,-0.062166,0.122013,-0.950285,0.0,0.0,0.0,0,0
2026-06-16 16:08:59.791,2153059,L_Hip,-0.1649,0.9098,0.3674,-4.11,4.54,2.99,37.06,-6.14,-17.41,0.691427,0.394757,0.372784,0.476485,0.0,0.0,0.0,0,0
2026-06-16 16:08:59.793,2153079,L_Hip,-0.1693,0.9167,0.379,-4.12,4.53,2.98,37.29,-4.68,-19.02,0.691427,0.394787,0.372814,0.476485,0.0,0.0,0.0,0,0
2026-06-16 16:08:59.795,2152930,R_Shank,0.0105,2.97,0.985,-0.09,-1.45,-8.43,-19.54,-22.84,-8.3,0.851222,0.074068,-0.064455,-0.515519,0.0,0.0,0.0,0,0
2026-06-16 16:08:59.796,2153099,L_Hip,-0.1732,0.9122,0.3659,-4.13,4.54,2.99,37.43,-6.12,-19.45,0.691427,0.394787,0.372814,0.476485,0.0,0.0,0.0,0,0
2026-06-16 16:08:59.798,2152950,R_Shank,0.0056,-1.1424,0.9951,-0.09,-1.45,-8.45,0.0,0.0,0.0,0.851222,0.074099,-0.064455,-0.515488,0.0,0.0,0.0,0,0
2026-06-16 16:08:59.798,2153119,L_Hip,-0.1644,0.9019,0.3606,-4.12,4.52,3.0,0.0,0.0,0.0,0.691427,0.394787,0.372845,0.476455,0.0,0.0,0.0,0,0
2026-06-16 16:08:59.800,2152970,R_Shank,0.009,-1.1424,0.9831,-0.07,-1.44,-8.42,-19.21,-21.54,-9.8,0.851222,0.074099,-0.064455,-0.515488,0.0,0.0,0.0,0,0
2026-06-16 16:08:59.802,2152990,R_Shank,0.0002,0.3988,0.9922,-0.09,-1.44,-8.41,-19.85,-23.18,-10.11,0.851222,0.074129,-0.064425,-0.515488,0.0,0.0,0.0,0,0
2026-06-16 16:08:59.804,2153071,L_Ankle,0.1482,-0.2285,0.9573,5.42,-0.89,-10.29,36.74,3.66,-11.64,-0.279611,-0.062166,0.122013,-0.950285,0.0,0.0,0.0,0,0
2026-06-16 16:08:59.805,2152937,R_Hip,-0.1082,-0.9806,0.126,0.28,-1.58,1.79,-23.93,6.39,-18.4,0.357646,-0.246864,0.566362,-0.700217,0.0,0.0,0.0,0,0
2026-06-16 16:08:59.807,2152957,R_Hip,-0.1096,-0.9786,0.1183,0.26,-1.58,1.78,0.0,0.0,0.0,0.357677,-0.246834,0.566332,-0.700247,0.0,0.0,0.0,0,0
2026-06-16 16:08:59.807,2153072,L_Ankle,0.1609,-0.2314,0.9472,5.42,-0.9,-10.3,0.0,0.0,0.0,-0.279611,-0.062197,0.122013,-0.950285,0.0,0.0,0.0,0,0
2026-06-16 16:08:59.810,2152977,R_Hip,-0.1092,-0.9816,0.1164,0.27,-1.6,1.78,-25.94,8.04,-19.61,0.357677,-0.246834,0.566362,-0.700217,0.0,0.0,0.0,0,0
2026-06-16 16:08:59.810,2153092,L_Ankle,0.1629,-0.2153,0.9602,5.42,-0.89,-10.29,36.39,4.02,-11.64,-0.279611,-0.062197,0.122044,-0.950285,0.0,0.0,0.0,0,0
2026-06-16 16:08:59.812,2152997,R_Hip,-0.1022,-0.9796,0.1265,0.28,-1.59,1.77,-26.48,7.49,-19.1,0.357677,-0.246864,0.566362,-0.700217,0.0,0.0,0.0,0,0
2026-06-16 16:08:59.812,2153112,L_Ankle,0.1565,-0.2255,0.9515,5.43,-0.89,-10.31,35.7,4.39,-10.63,-0.279611,-0.062197,0.122013,-0.950285,0.0,0.0,0.0,0,0
2026-06-16 16:08:59.814,2152942,R_Ankle,0.1252,0.0591,0.9957,0.78,-1.76,-0.48,-30.75,-17.27,-13.95,0.862239,0.128636,-0.084384,0.482528,0.0,0.0,0.0,0,0
2026-06-16 16:08:59.816,2152962,R_Ankle,0.1223,0.0572,1.0,0.79,-1.76,-0.48,-30.9,-16.5,-12.26,0.862239,0.128666,-0.084384,0.482528,0.0,0.0,0.0,0,0
2026-06-16 16:08:59.818,2152982,R_Ankle,0.1243,0.0616,0.9828,0.79,-1.76,-0.5,0.0,0.0,0.0,0.862239,0.128666,-0.084384,0.482528,0.0,0.0,0.0,0,0
2026-06-16 16:08:59.819,2153086,L_Shank,0.0365,-0.13,0.9652,1.77,-1.19,-0.21,36.28,6.09,-17.2,0.461135,0.00824,-0.070009,0.884518,0.0,0.0,0.0,0,0
2026-06-16 16:08:59.821,2153002,R_Ankle,0.1243,0.0537,0.9799,0.79,-1.76,-0.49,-30.57,-16.48,-13.49,0.862209,0.128727,-0.084384,0.482528,0.0,0.0,0.0,0,0
2026-06-16 16:08:59.821,2153106,L_Shank,0.0316,-0.1261,0.9786,1.76,-1.22,-0.22,36.44,4.2,-15.78,0.461135,0.008209,-0.069979,0.884518,0.0,0.0,0.0,0,0
2026-06-16 16:08:59.824,2153126,L_Shank,0.0375,-0.1281,0.982,1.77,-1.19,-0.19,36.28,4.39,-16.87,0.461135,0.008179,-0.070009,0.884518,0.0,0.0,0.0,0,0
2026-06-16 16:08:59.825,2153087,L_Shank,0.0311,-0.1242,0.9614,1.76,-1.19,-0.2,0.0,0.0,0.0,0.461135,0.008148,-0.069979,0.884487,0.0,0.0,0.0,0,0
2026-06-16 16:08:59.828,2152962,R_Hip,-0.1018,-0.9796,0.1217,0.29,-1.58,1.76,-25.94,7.31,-19.27,0.357646,-0.246895,0.566362,-0.700217,0.0,0.0,0.0,0,0
2026-06-16 16:08:59.829,2153094,L_Ankle,0.1589,-0.2231,0.9467,5.42,-0.89,-10.31,36.6,3.14,-10.45,-0.279611,-0.062197,0.121982,-0.950285,0.0,0.0,0.0,0,0
2026-06-16 16:08:59.830,2152982,R_Hip,-0.1087,-0.9821,0.1284,0.28,-1.59,1.77,0.0,0.0,0.0,0.357646,-0.246895,0.566362,-0.700217,0.0,0.0,0.0,0,0
2026-06-16 16:08:59.831,2153114,L_Ankle,0.1609,-0.2172,0.9482,5.42,-0.89,-10.31,0.0,0.0,0.0,-0.279611,-0.062197,0.121982,-0.950285,0.0,0.0,0.0,0,0
2026-06-16 16:08:59.832,2153002,R_Hip,-0.0993,-0.9899,0.1304,0.27,-1.59,1.77,-26.48,7.12,-19.1,0.357646,-0.246925,0.566332,-0.700247,0.0,0.0,0.0,0,0
2026-06-16 16:08:59.834,2153134,L_Ankle,0.1619,-0.2216,0.9573,5.41,-0.88,-10.32,35.85,3.85,-12.16,-0.279611,-0.062197,0.121982,-0.950285,0.0,0.0,0.0,0,0
2026-06-16 16:08:59.835,2153022,R_Hip,-0.1092,-0.9816,0.1333,0.28,-1.59,1.79,-26.49,8.22,-20.12,0.357646,-0.246925,0.566332,-0.700247,0.0,0.0,0.0,0,0
2026-06-16 16:08:59.837,2153154,L_Ankle,0.1697,-0.2324,0.9467,5.41,-0.88,-10.3,36.94,2.77,-10.79,-0.279611,-0.062227,0.121952,-0.950285,0.0,0.0,0.0,0,0
2026-06-16 16:08:59.837,2152965,R_Ankle,0.1326,0.0557,1.0,0.77,-1.72,-0.48,-30.38,-16.33,-12.42,0.862209,0.128758,-0.084323,0.482559,0.0,0.0,0.0,0,0
2026-06-16 16:08:59.839,2152985,R_Ankle,0.1228,0.0537,0.9899,0.77,-1.71,-0.48,-30.39,-16.33,-12.72,0.862209,0.128758,-0.084292,0.482559,0.0,0.0,0.0,0,0
2026-06-16 16:08:59.841,2153005,R_Ankle,0.1272,0.0537,0.9808,0.77,-1.71,-0.5,0.0,0.0,0.0,0.862209,0.128758,-0.084262,0.482559,0.0,0.0,0.0,0,0
2026-06-16 16:08:59.843,2153025,R_Ankle,0.1194,0.0557,0.9995,0.77,-1.7,-0.49,-30.91,-16.49,-13.19,0.862209,0.128727,-0.084231,0.482559,0.0,0.0,0.0,0,0
2026-06-16 16:08:59.845,2152975,R_Shank,0.01,2.3288,0.9778,-0.07,-1.47,-8.4,-19.2,-22.2,-10.11,0.851222,0.074129,-0.064394,-0.515488,0.0,0.0,0.0,0,0
2026-06-16 16:08:59.847,2152995,R_Shank,0.0144,2.97,1.0032,-0.09,-1.46,-8.4,-19.89,-22.17,-8.29,0.851253,0.07416,-0.064364,-0.515458,0.0,0.0,0.0,0,0
2026-06-16 16:08:59.849,2153015,R_Shank,0.0056,2.97,0.9951,-0.08,-1.46,-8.38,-19.38,-22.35,-8.75,0.851253,0.07416,-0.064364,-0.515458,0.0,0.0,0.0,0,0
2026-06-16 16:08:59.850,2153035,R_Shank,0.0046,-2.554,0.9984,-0.09,-1.45,-8.38,0.0,0.0,0.0,0.851253,0.07416,-0.064364,-0.515427,0.0,0.0,0.0,0,0
2026-06-16 16:08:59.862,2152997,R_Shank,-0.0056,-2.0424,0.9874,-0.06,-1.45,-8.41,-18.5,-24.19,-8.93,0.851283,0.074129,-0.064333,-0.515397,0.0,0.0,0.0,0,0
2026-06-16 16:08:59.863,2153017,R_Shank,0.0002,-1.0128,0.9975,-0.09,-1.46,-8.41,-18.37,-22.04,-9.36,0.851283,0.07416,-0.064364,-0.515397,0.0,0.0,0.0,0,0
2026-06-16 16:08:59.865,2153037,R_Shank,0.008,-1.5244,0.9763,-0.07,-1.45,-8.41,0.0,0.0,0.0,0.851283,0.07419,-0.064333,-0.515366,0.0,0.0,0.0,0,0
2026-06-16 16:08:59.867,2153057,R_Shank,0.009,1.558,0.9879,-0.06,-1.46,-8.44,-19.39,-21.04,-9.95,0.851314,0.07419,-0.064302,-0.515366,0.0,0.0,0.0,0,0
2026-06-16 16:08:59.881,2153149,L_Hip,-0.1663,0.9186,0.3625,-4.12,4.54,2.98,35.73,-6.16,-18.27,0.691427,0.394757,0.372814,0.476485,0.0,0.0,0.0,0,0
2026-06-16 16:08:59.883,2153169,L_Hip,-0.1712,0.9098,0.3703,-4.12,4.52,2.97,36.93,-5.65,-19.01,0.691427,0.394757,0.372845,0.476485,0.0,0.0,0.0,0,0
2026-06-16 16:08:59.885,2153189,L_Hip,-0.1624,0.9157,0.3591,-4.12,4.53,2.98,37.3,-4.99,-19.89,0.691427,0.394757,0.372845,0.476485,0.0,0.0,0.0,0,0
2026-06-16 16:08:59.887,2153209,L_Hip,-0.1722,0.9216,0.3727,-4.13,4.54,2.97,36.59,-6.3,-19.59,0.691427,0.394787,0.372814,0.476485,0.0,0.0,0.0,0,0
2026-06-16 16:08:59.893,2153161,L_Shank,0.0365,-0.1261,0.9767,1.75,-1.2,-0.2,35.57,3.7,-15.92,0.461135,0.008057,-0.069918,0.884518,0.0,0.0,0.0,0,0
2026-06-16 16:08:59.895,2153181,L_Shank,0.034,-0.1335,0.9686,1.74,-1.2,-0.19,0.0,0.0,0.0,0.461135,0.008026,-0.069918,0.884518,0.0,0.0,0.0,0,0
2026-06-16 16:08:59.897,2153162,L_Shank,0.0316,-0.1242,0.9652,1.75,-1.22,-0.2,36.1,4.55,-16.4,0.461135,0.008026,-0.069948,0.884518,0.0,0.0,0.0,0,0
2026-06-16 16:08:59.900,2153182,L_Shank,0.0345,-0.1198,0.9633,1.74,-1.19,-0.21,36.44,5.22,-15.79,0.461104,0.008057,-0.069948,0.884518,0.0,0.0,0.0,0,0
2026-06-16 16:08:59.902,2153037,R_Hip,-0.1057,-0.9928,0.126,0.28,-1.6,1.78,-26.3,8.4,-19.61,0.357616,-0.246925,0.566332,-0.700247,0.0,0.0,0.0,0,0
2026-06-16 16:08:59.904,2153057,R_Hip,-0.0973,-0.9777,0.1323,0.25,-1.6,1.79,0.0,0.0,0.0,0.357616,-0.246925,0.566332,-0.700217,0.0,0.0,0.0,0,0
2026-06-16 16:08:59.904,2153171,L_Hip,-0.1683,0.9078,0.3553,-4.12,4.53,2.98,37.1,-5.81,-19.16,0.691427,0.394757,0.372814,0.476485,0.0,0.0,0.0,0,0
2026-06-16 16:08:59.907,2153077,R_Hip,-0.1111,-0.9869,0.113,0.28,-1.6,1.8,-25.39,7.49,-19.44,0.357646,-0.246956,0.566332,-0.700217,0.0,0.0,0.0,0,0
2026-06-16 16:08:59.907,2153191,L_Hip,-0.1732,0.9073,0.3669,-4.12,4.51,2.96,36.6,-5.33,-19.3,0.691427,0.394757,0.372845,0.476485,0.0,0.0,0.0,0,0
2026-06-16 16:08:59.909,2153097,R_Hip,-0.1126,-0.9835,0.1145,0.27,-1.61,1.77,-25.76,7.13,-20.12,0.357646,-0.246956,0.566362,-0.700186,0.0,0.0,0.0,0,0
2026-06-16 16:08:59.910,2153211,L_Hip,-0.1737,0.9132,0.3621,-4.14,4.54,2.96,36.6,-5.98,-19.88,0.691397,0.394757,0.372845,0.476485,0.0,0.0,0.0,0,0
2026-06-16 16:08:59.912,2153042,R_Shank,0.0065,-0.1128,0.9696,-0.09,-1.47,-8.44,-19.21,-21.54,-10.1,0.851314,0.07419,-0.064302,-0.515366,0.0,0.0,0.0,0,0
2026-06-16 16:08:59.912,2153172,L_Hip,-0.1727,0.9122,0.3688,-4.13,4.53,2.97,36.6,-4.69,-18.43,0.691397,0.394757,0.372845,0.476485,0.0,0.0,0.0,0,0
2026-06-16 16:08:59.914,2153062,R_Shank,0.0065,0.658,0.9984,-0.07,-1.45,-8.43,-18.87,-22.2,-9.21,0.851283,0.07419,-0.064302,-0.515366,0.0,0.0,0.0,0,0
2026-06-16 16:08:59.916,2153082,R_Shank,0.0031,1.1696,0.9821,-0.07,-1.46,-8.45,0.0,0.0,0.0,0.851314,0.07419,-0.064272,-0.515366,0.0,0.0,0.0,0,0
2026-06-16 16:08:59.918,2153102,R_Shank,0.0056,-1.1424,0.9907,-0.08,-1.47,-8.42,-18.68,-22.71,-10.57,0.851283,0.074221,-0.064272,-0.515366,0.0,0.0,0.0,0,0
2026-06-16 16:08:59.919,2153187,L_Shank,0.0233,-0.1256,0.9642,1.74,-1.19,-0.21,33.83,5.07,-16.85,0.461074,0.008026,-0.069948,0.884548,0.0,0.0,0.0,0,0
2026-06-16 16:08:59.921,2153055,R_Ankle,0.1194,0.0591,1.0024,0.77,-1.72,-0.49,-30.21,-16.49,-12.26,0.862209,0.128697,-0.08414,0.482589,0.0,0.0,0.0,0,0
2026-06-16 16:08:59.921,2153207,L_Shank,0.0243,-0.1315,0.9724,1.74,-1.19,-0.19,0.0,0.0,0.0,0.461074,0.007996,-0.069948,0.884548,0.0,0.0,0.0,0,0
2026-06-16 16:08:59.923,2153075,R_Ankle,0.1228,0.0562,0.9914,0.77,-1.74,-0.48,-31.75,-16.98,-11.81,0.862209,0.128697,-0.08414,0.482589,0.0,0.0,0.0,0,0
2026-06-16 16:08:59.924,2153227,L_Shank,0.0306,-0.1335,0.9734,1.74,-1.21,-0.17,35.59,6.09,-17.5,0.461043,0.007996,-0.069948,0.884548,0.0,0.0,0.0,0,0
2026-06-16 16:08:59.926,2153095,R_Ankle,0.1267,0.0591,0.9986,0.77,-1.74,-0.48,-30.92,-17.44,-13.49,0.862209,0.128697,-0.08414,0.482589,0.0,0.0,0.0,0,0
2026-06-16 16:08:59.926,2153247,L_Shank,0.0345,-0.1251,0.9782,1.75,-1.21,-0.19,35.75,4.55,-16.09,0.461043,0.007996,-0.069979,0.884548,0.0,0.0,0.0,0,0
2026-06-16 16:08:59.927,2153115,R_Ankle,0.1292,0.0542,0.9995,0.77,-1.75,-0.5,0.0,0.0,0.0,0.862209,0.128697,-0.08414,0.482589,0.0,0.0,0.0,0,0
2026-06-16 16:08:59.930,2153062,R_Hip,-0.1121,-0.9962,0.1116,0.26,-1.61,1.78,-25.21,9.13,-18.24,0.357646,-0.246956,0.566362,-0.700186,0.0,0.0,0.0,0,0
2026-06-16 16:08:59.932,2153082,R_Hip,-0.0963,-0.984,0.1256,0.28,-1.59,1.78,0.0,0.0,0.0,0.357616,-0.246986,0.566393,-0.700156,0.0,0.0,0.0,0,0
2026-06-16 16:08:59.934,2153102,R_Hip,-0.1042,-0.9928,0.1193,0.28,-1.58,1.79,-24.3,7.85,-18.07,0.357616,-0.246986,0.566393,-0.700186,0.0,0.0,0.0,0,0
2026-06-16 16:08:59.936,2153122,R_Hip,-0.1067,-0.9811,0.1328,0.28,-1.59,1.77,-25.94,5.48,-19.94,0.357616,-0.247017,0.566393,-0.700186,0.0,0.0,0.0,0,0
2026-06-16 16:08:59.938,2153065,R_Shank,0.0149,-1.5244,0.9874,-0.07,-1.47,-8.42,-19.57,-21.51,-7.99,0.851314,0.074252,-0.064333,-0.515336,0.0,0.0,0.0,0,0
2026-06-16 16:08:59.940,2153085,R_Shank,0.009,0.5284,0.9903,-0.07,-1.48,-8.41,-18.88,-21.87,-8.9,0.851314,0.074282,-0.064333,-0.515336,0.0,0.0,0.0,0,0
2026-06-16 16:08:59.942,2153105,R_Shank,0.01,-1.5244,0.9893,-0.09,-1.48,-8.42,0.0,0.0,0.0,0.851314,0.074252,-0.064333,-0.515305,0.0,0.0,0.0,0,0
2026-06-16 16:08:59.944,2153125,R_Shank,0.011,-2.0424,0.9898,-0.08,-1.46,-8.42,-18.18,-22.87,-9.22,0.851344,0.074252,-0.064333,-0.515305,0.0,0.0,0.0,0,0
2026-06-16 16:08:59.944,2153211,L_Shank,0.0389,-0.1256,0.9748,1.75,-1.22,-0.19,36.45,4.22,-16.71,0.461013,0.007996,-0.069979,0.884548,0.0,0.0,0.0,0,0
2026-06-16 16:08:59.946,2153231,L_Shank,0.037,-0.1291,0.9806,1.76,-1.21,-0.2,0.0,0.0,0.0,0.461013,0.007996,-0.069979,0.884579,0.0,0.0,0.0,0,0
2026-06-16 16:08:59.946,2153077,R_Ankle,0.1238,0.0502,0.9866,0.79,-1.74,-0.49,-30.89,-15.54,-12.58,0.862209,0.128697,-0.08414,0.482589,0.0,0.0,0.0,0,0
2026-06-16 16:08:59.949,2153251,L_Shank,0.0223,-0.131,0.9758,1.77,-1.22,-0.19,37.32,4.72,-16.57,0.461013,0.008026,-0.069979,0.884579,0.0,0.0,0.0,0,0
2026-06-16 16:08:59.950,2153097,R_Ankle,0.1282,0.0537,0.9933,0.79,-1.74,-0.48,-32.42,-15.72,-12.14,0.862209,0.128697,-0.08414,0.482589,0.0,0.0,0.0,0,0
2026-06-16 16:08:59.952,2153117,R_Ankle,0.1208,0.0532,0.9909,0.77,-1.74,-0.5,0.0,0.0,0.0,0.862209,0.128697,-0.08414,0.482589,0.0,0.0,0.0,0,0
2026-06-16 16:08:59.952,2153212,L_Shank,0.0331,-0.1207,0.9714,1.76,-1.23,-0.2,36.26,5.38,-14.7,0.460982,0.008026,-0.069979,0.884579,0.0,0.0,0.0,0,0
2026-06-16 16:08:59.954,2153137,R_Ankle,0.1194,0.0591,1.0,0.77,-1.74,-0.48,-31.24,-16.82,-11.96,0.862209,0.128697,-0.08414,0.48262,0.0,0.0,0.0,0,0
2026-06-16 16:08:59.954,2153216,L_Hip,-0.1659,0.9226,0.3669,-4.13,4.54,2.99,36.92,-6.62,-19.3,0.691397,0.394757,0.372845,0.476516,0.0,0.0,0.0,0,0
2026-06-16 16:08:59.956,2153236,L_Hip,-0.1757,0.9137,0.3766,-4.13,4.53,2.98,0.0,0.0,0.0,0.691397,0.394757,0.372845,0.476547,0.0,0.0,0.0,0,0
2026-06-16 16:08:59.958,2153256,L_Hip,-0.1722,0.9191,0.3645,-4.12,4.54,3.0,35.42,-5.19,-18.85,0.691366,0.394787,0.372814,0.476547,0.0,0.0,0.0,0,0
2026-06-16 16:08:59.959,2153276,L_Hip,-0.1752,0.9132,0.3538,-4.13,4.54,2.98,37.42,-6.13,-18.58,0.691336,0.394818,0.372845,0.476547,0.0,0.0,0.0,0,0
2026-06-16 16:08:59.969,2153237,L_Shank,0.0321,-0.1315,0.9676,1.76,-1.21,-0.2,36.28,4.39,-16.87,0.460982,0.007996,-0.069948,0.884579,0.0,0.0,0.0,0,0
2026-06-16 16:08:59.971,2153257,L_Shank,0.0389,-0.1276,0.9786,1.76,-1.2,-0.19,0.0,0.0,0.0,0.460982,0.008026,-0.069948,0.884579,0.0,0.0,0.0,0,0
2026-06-16 16:08:59.972,2153277,L_Shank,0.034,-0.1251,0.9719,1.76,-1.22,-0.18,35.04,5.56,-15.47,0.460982,0.008026,-0.069948,0.884579,0.0,0.0,0.0,0,0
2026-06-16 16:08:59.974,2153297,L_Shank,0.0316,-0.1423,0.9657,1.76,-1.22,-0.2,35.92,3.7,-15.92,0.460982,0.008026,-0.069918,0.884579,0.0,0.0,0.0,0,0
2026-06-16 16:08:59.976,2153239,L_Hip,-0.1688,0.9093,0.3698,-4.13,4.52,2.97,37.56,-6.61,-17.57,0.691336,0.394818,0.372814,0.476577,0.0,0.0,0.0,0,0
2026-06-16 16:08:59.977,2153112,R_Hip,-0.1047,-0.9894,0.1405,0.28,-1.58,1.79,-24.84,7.31,-19.26,0.357616,-0.247017,0.566393,-0.700156,0.0,0.0,0.0,0,0
2026-06-16 16:08:59.979,2153259,L_Hip,-0.1737,0.9103,0.3553,-4.14,4.52,2.98,0.0,0.0,0.0,0.691305,0.394848,0.372814,0.476577,0.0,0.0,0.0,0,0
2026-06-16 16:08:59.979,2153132,R_Hip,-0.1126,-0.9786,0.1294,0.29,-1.58,1.77,0.0,0.0,0.0,0.357646,-0.246986,0.566362,-0.700186,0.0,0.0,0.0,0,0
2026-06-16 16:08:59.982,2153279,L_Hip,-0.1712,0.9157,0.3654,-4.12,4.52,2.96,38.12,-5.47,-19.18,0.691305,0.394848,0.372814,0.476577,0.0,0.0,0.0,0,0
2026-06-16 16:08:59.983,2153152,R_Hip,-0.1141,-0.9865,0.1361,0.27,-1.58,1.77,-24.84,6.21,-19.6,0.357646,-0.246956,0.566332,-0.700217,0.0,0.0,0.0,0,0
2026-06-16 16:08:59.984,2153299,L_Hip,-0.1717,0.9172,0.3693,-4.12,4.51,2.98,35.26,-6.0,-20.44,0.691305,0.394848,0.372845,0.476608,0.0,0.0,0.0,0,0
2026-06-16 16:08:59.985,2153172,R_Hip,-0.1072,-0.9879,0.139,0.26,-1.58,1.77,-25.21,7.31,-19.95,0.357646,-0.246925,0.566301,-0.700247,0.0,0.0,0.0,0,0
2026-06-16 16:08:59.987,2153122,R_Ankle,0.1213,0.0616,0.9837,0.77,-1.73,-0.48,-30.38,-16.02,-12.11,0.862209,0.128697,-0.08414,0.48262,0.0,0.0,0.0,0,0
2026-06-16 16:08:59.989,2153142,R_Ankle,0.1203,0.0596,1.0081,0.77,-1.74,-0.49,0.0,0.0,0.0,0.862209,0.128697,-0.08414,0.48262,0.0,0.0,0.0,0,0
2026-06-16 16:08:59.990,2153162,R_Ankle,0.1184,0.0641,0.9962,0.77,-1.75,-0.48,-31.6,-17.44,-13.49,0.862209,0.128697,-0.084109,0.48262,0.0,0.0,0.0,0,0
2026-06-16 16:08:59.992,2153182,R_Ankle,0.1321,0.0537,0.9928,0.77,-1.74,-0.49,0.0,0.0,0.0,0.862178,0.128727,-0.084109,0.48262,0.0,0.0,0.0,0,0
2026-06-16 16:09:00.002,2153137,R_Hip,-0.1037,-0.9845,0.1424,0.27,-1.58,1.79,-24.66,6.39,-20.12,0.357646,-0.246925,0.566301,-0.700247,0.0,0.0,0.0,0,0
2026-06-16 16:09:00.004,2153157,R_Hip,-0.1013,-0.9791,0.1472,0.27,-1.59,1.78,0.0,0.0,0.0,0.357646,-0.246925,0.566271,-0.700278,0.0,0.0,0.0,0,0
2026-06-16 16:09:00.006,2153177,R_Hip,-0.1131,-0.9933,0.1246,0.26,-1.59,1.79,-26.12,6.02,-18.07,0.357646,-0.246956,0.566271,-0.700278,0.0,0.0,0.0,0,0
2026-06-16 16:09:00.007,2153197,R_Hip,-0.1042,-0.9811,0.1198,0.25,-1.6,1.78,-25.39,7.49,-20.46,0.357646,-0.246956,0.566271,-0.700247,0.0,0.0,0.0,0,0
2026-06-16 16:09:00.019,2153285,L_Hip,-0.1712,0.9142,0.3645,-4.12,4.51,2.96,36.93,-5.97,-19.3,0.691305,0.394848,0.372845,0.476577,0.0,0.0,0.0,0,0
2026-06-16 16:09:00.021,2153305,L_Hip,-0.1698,0.9034,0.3669,-4.12,4.51,3.0,0.0,0.0,0.0,0.691275,0.394848,0.372845,0.476608,0.0,0.0,0.0,0,0
2026-06-16 16:09:00.024,2153325,L_Hip,-0.1678,0.9054,0.3703,-4.13,4.53,2.97,36.97,-4.68,-20.18,0.691275,0.394848,0.372845,0.476608,0.0,0.0,0.0,0,0
2026-06-16 16:09:00.026,2153345,L_Hip,-0.1766,0.9103,0.3572,-4.12,4.52,2.98,37.63,-4.99,-19.61,0.691275,0.394848,0.372875,0.476608,0.0,0.0,0.0,0,0
2026-06-16 16:09:00.028,2153162,R_Hip,-0.1141,-0.9865,0.1275,0.29,-1.59,1.77,-26.49,8.96,-21.49,0.357646,-0.246956,0.566332,-0.700217,0.0,0.0,0.0,0,0
2026-06-16 16:09:00.029,2153286,L_Shank,0.0345,-0.1247,0.9662,1.77,-1.21,-0.21,36.26,3.35,-15.3,0.460982,0.008057,-0.069887,0.88461,0.0,0.0,0.0,0,0
2026-06-16 16:09:00.031,2153163,R_Hip,-0.1042,-0.9835,0.1207,0.29,-1.58,1.77,0.0,0.0,0.0,0.357646,-0.246956,0.566332,-0.700217,0.0,0.0,0.0,0,0
2026-06-16 16:09:00.032,2153306,L_Shank,0.0287,-0.1325,0.9734,1.76,-1.21,-0.22,0.0,0.0,0.0,0.460952,0.008057,-0.069857,0.88461,0.0,0.0,0.0,0,0
2026-06-16 16:09:00.034,2153183,R_Hip,-0.1018,-0.9845,0.1227,0.29,-1.59,1.77,-25.58,8.77,-19.61,0.357616,-0.246986,0.566332,-0.700247,0.0,0.0,0.0,0,0
2026-06-16 16:09:00.035,2153326,L_Shank,0.0292,-0.1266,0.9676,1.77,-1.22,-0.21,34.88,4.39,-16.85,0.460952,0.008057,-0.069857,0.88461,0.0,0.0,0.0,0,0
2026-06-16 16:09:00.037,2153346,L_Shank,0.0335,-0.1266,0.9594,1.75,-1.21,-0.19,35.74,5.22,-15.47,0.460952,0.008026,-0.069857,0.88461,0.0,0.0,0.0,0,0
2026-06-16 16:09:00.037,2153203,R_Hip,-0.1027,-0.9865,0.1212,0.26,-1.6,1.76,-25.03,7.49,-20.12,0.357616,-0.247017,0.566332,-0.700217,0.0,0.0,0.0,0,0
2026-06-16 16:09:00.039,2153296,L_Ankle,0.1629,-0.2285,0.9501,5.41,-0.87,-10.3,36.25,2.43,-10.8,-0.279641,-0.062258,0.121982,-0.950285,0.0,0.0,0.0,0,0
2026-06-16 16:09:00.042,2153316,L_Ankle,0.1658,-0.2177,0.9626,5.4,-0.87,-10.29,0.0,0.0,0.0,-0.279641,-0.062258,0.121982,-0.950255,0.0,0.0,0.0,0,0
2026-06-16 16:09:00.044,2153336,L_Ankle,0.1668,-0.2294,0.9558,5.41,-0.87,-10.3,35.19,3.16,-10.82,-0.279641,-0.062258,0.121952,-0.950255,0.0,0.0,0.0,0,0
2026-06-16 16:09:00.045,2153356,L_Ankle,0.1643,-0.2275,0.9467,5.41,-0.87,-10.29,35.73,1.91,-10.98,-0.279641,-0.062258,0.121982,-0.950255,0.0,0.0,0.0,0,0
2026-06-16 16:09:00.047,2153306,L_Hip,-0.1678,0.9073,0.3727,-4.13,4.54,2.98,36.09,-5.83,-19.14,0.691244,0.394879,0.372875,0.476638,0.0,0.0,0.0,0,0
2026-06-16 16:09:00.049,2153326,L_Hip,-0.1757,0.9113,0.365,-4.12,4.52,2.98,0.0,0.0,0.0,0.691244,0.394848,0.372875,0.476638,0.0,0.0,0.0,0,0
2026-06-16 16:09:00.050,2153346,L_Hip,-0.1698,0.9093,0.3679,-4.14,4.52,2.96,37.8,-5.15,-20.04,0.691244,0.394848,0.372875,0.476669,0.0,0.0,0.0,0,0
2026-06-16 16:09:00.052,2153366,L_Hip,-0.1757,0.9162,0.3703,-4.13,4.52,2.96,36.1,-5.5,-19.44,0.691244,0.394848,0.372875,0.476669,0.0,0.0,0.0,0,0
2026-06-16 16:09:00.061,2153329,L_Hip,-0.1742,0.9049,0.3529,-4.15,4.51,2.93,36.91,-5.98,-18.14,0.691214,0.394848,0.372845,0.476669,0.0,0.0,0.0,0,0
2026-06-16 16:09:00.063,2153349,L_Hip,-0.1698,0.9088,0.3809,-4.16,4.49,2.93,0.0,0.0,0.0,0.691214,0.394879,0.372875,0.476669,0.0,0.0,0.0,0,0
2026-06-16 16:09:00.065,2153369,L_Hip,-0.1712,0.9157,0.3509,-4.16,4.51,2.94,35.07,-5.85,-19.13,0.691214,0.394879,0.372875,0.476669,0.0,0.0,0.0,0,0
2026-06-16 16:09:00.067,2153389,L_Hip,-0.1698,0.9063,0.3504,-4.17,4.49,2.94,36.44,-5.17,-19.15,0.691214,0.394879,0.372875,0.476669,0.0,0.0,0.0,0,0
2026-06-16 16:09:00.074,2153342,L_Ankle,0.1663,-0.2231,0.9587,5.4,-0.88,-10.31,35.54,1.73,-11.83,-0.279611,-0.062258,0.122013,-0.950255,0.0,0.0,0.0,0,0
2026-06-16 16:09:00.075,2153362,L_Ankle,0.1629,-0.2241,0.9597,5.41,-0.87,-10.29,36.08,1.9,-10.97,-0.279641,-0.062288,0.122013,-0.950255,0.0,0.0,0.0,0,0
2026-06-16 16:09:00.077,2153382,L_Ankle,0.1629,-0.2231,0.9602,5.4,-0.87,-10.31,0.0,0.0,0.0,-0.279641,-0.062288,0.122013,-0.950255,0.0,0.0,0.0,0,0
2026-06-16 16:09:00.079,2153402,L_Ankle,0.1614,-0.225,0.9592,5.41,-0.88,-10.31,36.41,3.31,-10.62,-0.279641,-0.062288,0.122044,-0.950255,0.0,0.0,0.0,0,0
2026-06-16 16:09:00.086,2153222,R_Shank,0.0046,-2.6836,0.9984,-0.08,-1.46,-8.43,-20.39,-22.01,-9.34,0.851344,0.074252,-0.064364,-0.515305,0.0,0.0,0.0,0,0
2026-06-16 16:09:00.088,2153242,R_Shank,0.0105,-0.3716,0.9749,-0.08,-1.48,-8.44,0.0,0.0,0.0,0.851344,0.074252,-0.064364,-0.515275,0.0,0.0,0.0,0,0
2026-06-16 16:09:00.090,2153262,R_Shank,0.0105,0.5284,0.9975,-0.09,-1.47,-8.43,-19.03,-22.36,-9.66,0.851344,0.074221,-0.064364,-0.515275,0.0,0.0,0.0,0,0
2026-06-16 16:09:00.092,2153282,R_Shank,0.0046,-0.242,0.996,-0.07,-1.46,-8.45,-18.72,-21.37,-9.05,0.851344,0.074221,-0.064364,-0.515275,0.0,0.0,0.0,0,0
2026-06-16 16:09:00.094,2153362,L_Shank,0.0394,-0.1222,0.9575,1.76,-1.21,-0.2,35.75,4.21,-16.08,0.460952,0.007996,-0.069948,0.88461,0.0,0.0,0.0,0,0
2026-06-16 16:09:00.096,2153382,L_Shank,0.0438,-0.1203,0.957,1.77,-1.22,-0.22,36.79,3.86,-15.77,0.460952,0.007965,-0.069948,0.88461,0.0,0.0,0.0,0,0
2026-06-16 16:09:00.098,2153402,L_Shank,0.0238,-0.1256,0.9748,1.77,-1.2,-0.22,0.0,0.0,0.0,0.460921,0.007965,-0.069948,0.88461,0.0,0.0,0.0,0,0
2026-06-16 16:09:00.100,2153422,L_Shank,0.036,-0.1217,0.9657,1.75,-1.22,-0.2,35.57,5.74,-16.26,0.460921,0.007965,-0.069948,0.88461,0.0,0.0,0.0,0,0
2026-06-16 16:09:00.101,2153236,R_Ankle,0.1267,0.0517,0.9909,0.77,-1.74,-0.48,-31.07,-15.69,-13.05,0.862178,0.128727,-0.084109,0.48265,0.0,0.0,0.0,0,0
2026-06-16 16:09:00.103,2153256,R_Ankle,0.1282,0.0542,0.9995,0.77,-1.74,-0.48,-31.42,-16.65,-13.35,0.862178,0.128727,-0.08414,0.48265,0.0,0.0,0.0,0,0
2026-06-16 16:09:00.105,2153276,R_Ankle,0.1248,0.0606,0.9952,0.77,-1.74,-0.48,-29.87,-16.17,-12.57,0.862178,0.128727,-0.08414,0.48265,0.0,0.0,0.0,0,0
2026-06-16 16:09:00.106,2153296,R_Ankle,0.1297,0.0537,0.988,0.77,-1.74,-0.48,0.0,0.0,0.0,0.862178,0.128727,-0.08414,0.482681,0.0,0.0,0.0,0,0
2026-06-16 16:09:00.109,2153245,R_Shank,0.0036,-1.7836,0.9898,-0.08,-1.47,-8.41,-18.88,-21.86,-8.6,0.851375,0.07419,-0.064302,-0.515244,0.0,0.0,0.0,0,0
2026-06-16 16:09:00.111,2153265,R_Shank,0.0002,2.97,0.9778,-0.07,-1.46,-8.41,0.0,0.0,0.0,0.851375,0.074221,-0.064302,-0.515244,0.0,0.0,0.0,0,0
2026-06-16 16:09:00.113,2153285,R_Shank,0.0031,1.2992,0.9802,-0.09,-1.47,-8.4,-17.7,-21.73,-9.37,0.851375,0.074221,-0.064302,-0.515213,0.0,0.0,0.0,0,0
2026-06-16 16:09:00.118,2153305,R_Shank,0.0051,-2.6836,0.9951,-0.08,-1.45,-8.41,-19.71,-22.02,-9.65,0.851375,0.074221,-0.064302,-0.515213,0.0,0.0,0.0,0,0
2026-06-16 16:09:00.125,2153257,R_Ankle,0.1154,0.0497,0.9904,0.77,-1.73,-0.48,-30.73,-17.61,-11.79,0.862178,0.128727,-0.08417,0.482681,0.0,0.0,0.0,0,0
2026-06-16 16:09:00.129,2153277,R_Ankle,0.1282,0.0586,1.0048,0.77,-1.71,-0.49,-31.6,-17.75,-13.8,0.862148,0.128727,-0.08414,0.482681,0.0,0.0,0.0,0,0
2026-06-16 16:09:00.130,2153396,L_Hip,-0.1688,0.9103,0.3616,-4.14,4.51,2.94,37.27,-5.96,-19.6,0.691214,0.394879,0.372875,0.476669,0.0,0.0,0.0,0,0
2026-06-16 16:09:00.133,2153297,R_Ankle,0.1105,0.0552,0.9914,0.77,-1.74,-0.48,-31.08,-16.64,-13.34,0.862148,0.128727,-0.08414,0.482681,0.0,0.0,0.0,0,0
2026-06-16 16:09:00.137,2153317,R_Ankle,0.115,0.0586,0.9943,0.77,-1.75,-0.48,0.0,0.0,0.0,0.862148,0.128727,-0.084109,0.482711,0.0,0.0,0.0,0,0
2026-06-16 16:09:00.138,2153416,L_Hip,-0.1737,0.9142,0.3688,-4.14,4.51,2.96,35.56,-6.0,-18.41,0.691214,0.394879,0.372845,0.476699,0.0,0.0,0.0,0,0
2026-06-16 16:09:00.141,2153436,L_Hip,-0.1781,0.9196,0.3683,-4.13,4.52,2.96,0.0,0.0,0.0,0.691183,0.394879,0.372845,0.476699,0.0,0.0,0.0,0,0
2026-06-16 16:09:00.142,2153263,R_Hip,-0.1057,-0.984,0.1203,0.29,-1.56,1.76,-25.76,7.12,-19.09,0.357585,-0.247017,0.566301,-0.700278,0.0,0.0,0.0,0,0
2026-06-16 16:09:00.145,2153456,L_Hip,-0.1732,0.9073,0.3809,-4.12,4.53,2.96,36.92,-5.65,-18.43,0.691183,0.39491,0.372845,0.47673,0.0,0.0,0.0,0,0
2026-06-16 16:09:00.145,2153283,R_Hip,-0.1062,-0.9889,0.1328,0.29,-1.56,1.79,0.0,0.0,0.0,0.357555,-0.247017,0.566301,-0.700278,0.0,0.0,0.0,0,0
2026-06-16 16:09:00.148,2153411,L_Shank,0.0316,-0.1296,0.9772,1.77,-1.2,-0.2,36.09,4.88,-15.47,0.460921,0.007996,-0.069948,0.88461,0.0,0.0,0.0,0,0
2026-06-16 16:09:00.148,2153303,R_Hip,-0.1087,-0.985,0.1371,0.27,-1.56,1.8,-26.85,7.49,-19.78,0.357585,-0.246956,0.566271,-0.700308,0.0,0.0,0.0,0,0
2026-06-16 16:09:00.150,2153431,L_Shank,0.0379,-0.1276,0.9695,1.74,-1.21,-0.21,36.45,5.57,-16.42,0.460921,0.008026,-0.069979,0.88461,0.0,0.0,0.0,0,0
2026-06-16 16:09:00.151,2153323,R_Hip,-0.1126,-0.984,0.1275,0.29,-1.54,1.81,-26.49,8.22,-19.78,0.357585,-0.246925,0.566271,-0.700308,0.0,0.0,0.0,0,0
2026-06-16 16:09:00.153,2153451,L_Shank,0.0292,-0.1168,0.9695,1.76,-1.21,-0.2,0.0,0.0,0.0,0.460921,0.007996,-0.069979,0.88461,0.0,0.0,0.0,0,0
2026-06-16 16:09:00.154,2153267,R_Shank,0.0046,2.588,0.9936,-0.09,-1.47,-8.41,-19.72,-21.69,-9.04,0.851405,0.074252,-0.064302,-0.515213,0.0,0.0,0.0,0,0
2026-06-16 16:09:00.156,2153471,L_Shank,0.0296,-0.1276,0.9748,1.77,-1.2,-0.21,36.45,3.19,-16.38,0.460891,0.008026,-0.069979,0.88464,0.0,0.0,0.0,0,0
2026-06-16 16:09:00.156,2153287,R_Shank,-0.0022,2.4584,0.9614,-0.08,-1.47,-8.42,0.0,0.0,0.0,0.851405,0.074282,-0.064302,-0.515183,0.0,0.0,0.0,0,0
2026-06-16 16:09:00.159,2153419,L_Hip,-0.1693,0.9142,0.3732,-4.12,4.56,2.96,36.06,-6.8,-18.85,0.691183,0.394879,0.372814,0.47673,0.0,0.0,0.0,0,0
2026-06-16 16:09:00.160,2153307,R_Shank,0.0046,-1.654,0.9879,-0.08,-1.46,-8.42,-17.35,-22.07,-9.68,0.851405,0.074252,-0.064272,-0.515183,0.0,0.0,0.0,0,0
2026-06-16 16:09:00.162,2153439,L_Hip,-0.1693,0.9122,0.3674,-4.11,4.56,2.96,36.61,-5.97,-20.17,0.691183,0.394879,0.372814,0.47676,0.0,0.0,0.0,0,0
2026-06-16 16:09:00.163,2153327,R_Shank,0.0075,-1.0128,0.984,-0.08,-1.46,-8.43,-18.17,-23.54,-9.53,0.851405,0.074252,-0.064272,-0.515183,0.0,0.0,0.0,0,0
2026-06-16 16:09:00.165,2153459,L_Hip,-0.1752,0.9103,0.363,-4.11,4.55,2.96,0.0,0.0,0.0,0.691183,0.394848,0.372814,0.47676,0.0,0.0,0.0,0,0
2026-06-16 16:09:00.167,2153288,R_Hip,-0.1087,-0.9777,0.1309,0.29,-1.54,1.83,-25.94,6.58,-19.61,0.357585,-0.246895,0.566271,-0.700308,0.0,0.0,0.0,0,0
2026-06-16 16:09:00.168,2153479,L_Hip,-0.1722,0.9235,0.3693,-4.12,4.55,2.96,37.43,-6.12,-18.87,0.691214,0.394848,0.372814,0.47673,0.0,0.0,0.0,0,0
2026-06-16 16:09:00.170,2153308,R_Hip,-0.1062,-0.9835,0.1251,0.28,-1.57,1.81,0.0,0.0,0.0,0.357585,-0.246864,0.566301,-0.700308,0.0,0.0,0.0,0,0
2026-06-16 16:09:00.172,2153431,L_Ankle,0.1545,-0.2197,0.9544,5.41,-0.88,-10.31,35.53,2.08,-12.17,-0.279641,-0.062288,0.122044,-0.950255,0.0,0.0,0.0,0,0
2026-06-16 16:09:00.173,2153328,R_Hip,-0.1008,-0.983,0.1198,0.27,-1.58,1.8,-25.03,7.49,-19.78,0.357616,-0.246834,0.566301,-0.700308,0.0,0.0,0.0,0,0
2026-06-16 16:09:00.175,2153451,L_Ankle,0.1663,-0.2157,0.953,5.43,-0.88,-10.31,37.82,3.65,-9.92,-0.279641,-0.062319,0.122013,-0.950255,0.0,0.0,0.0,0,0
2026-06-16 16:09:00.177,2153348,R_Hip,-0.1022,-0.9811,0.1275,0.29,-1.58,1.78,-26.31,6.95,-20.98,0.357616,-0.246834,0.566301,-0.700308,0.0,0.0,0.0,0,0
2026-06-16 16:09:00.178,2153432,L_Ankle,0.1565,-0.2201,0.9424,5.43,-0.88,-10.29,0.0,0.0,0.0,-0.279641,-0.062349,0.122013,-0.950255,0.0,0.0,0.0,0,0
2026-06-16 16:09:00.180,2153290,R_Shank,-0.0071,2.1992,0.9831,-0.09,-1.47,-8.43,-17.71,-21.39,-8.76,0.851405,0.074252,-0.064241,-0.515183,0.0,0.0,0.0,0,0
2026-06-16 16:09:00.182,2153452,L_Ankle,0.1614,-0.227,0.9597,5.42,-0.89,-10.3,34.82,2.45,-12.53,-0.279672,-0.062349,0.122013,-0.950255,0.0,0.0,0.0,0,0
2026-06-16 16:09:00.184,2153310,R_Shank,0.0124,-0.242,0.9879,-0.09,-1.46,-8.43,0.0,0.0,0.0,0.851405,0.074252,-0.064241,-0.515183,0.0,0.0,0.0,0,0
2026-06-16 16:09:00.186,2153330,R_Shank,0.0016,1.6876,0.9936,-0.09,-1.47,-8.43,-17.69,-21.73,-10.27,0.851405,0.074282,-0.064241,-0.515183,0.0,0.0,0.0,0,0
2026-06-16 16:09:00.190,2153350,R_Shank,-0.0012,-0.6308,0.9811,-0.08,-1.46,-8.42,-18.18,-21.9,-11.02,0.851405,0.074252,-0.064241,-0.515183,0.0,0.0,0.0,0,0
2026-06-16 16:09:00.192,2153303,R_Ankle,0.1262,0.0537,0.9928,0.76,-1.74,-0.49,-30.57,-16.16,-13.5,0.862148,0.128727,-0.084017,0.482711,0.0,0.0,0.0,0,0
2026-06-16 16:09:00.195,2153323,R_Ankle,0.1248,0.0601,1.0038,0.77,-1.73,-0.49,-31.07,-16.34,-12.42,0.862148,0.128727,-0.084017,0.482711,0.0,0.0,0.0,0,0
2026-06-16 16:09:00.196,2153462,L_Shank,0.0414,-0.1266,0.9738,1.75,-1.2,-0.2,36.09,4.88,-15.78,0.460891,0.007996,-0.069979,0.88464,0.0,0.0,0.0,0,0
2026-06-16 16:09:00.198,2153343,R_Ankle,0.1228,0.0611,0.9751,0.77,-1.74,-0.48,-30.39,-16.32,-13.03,0.862148,0.128697,-0.084017,0.482711,0.0,0.0,0.0,0,0
2026-06-16 16:09:00.198,2153482,L_Shank,0.0428,-0.1276,0.9738,1.77,-1.2,-0.2,35.56,4.37,-15.3,0.460891,0.008026,-0.069979,0.88464,0.0,0.0,0.0,0,0
2026-06-16 16:09:00.201,2153502,L_Shank,0.0414,-0.1291,0.9594,1.75,-1.21,-0.22,0.0,0.0,0.0,0.460891,0.008026,-0.069979,0.88464,0.0,0.0,0.0,0,0
2026-06-16 16:09:00.202,2153363,R_Ankle,0.1287,0.0458,0.9866,0.76,-1.73,-0.48,-30.56,-16.81,-12.26,0.862148,0.128727,-0.084048,0.482711,0.0,0.0,0.0,0,0
2026-06-16 16:09:00.205,2153522,L_Shank,0.035,-0.1281,0.982,1.76,-1.2,-0.22,36.09,5.9,-15.48,0.46086,0.008026,-0.07004,0.88464,0.0,0.0,0.0,0,0
2026-06-16 16:09:00.205,2153312,R_Hip,-0.1077,-0.9835,0.1284,0.25,-1.6,1.78,-24.66,7.85,-19.44,0.357585,-0.246834,0.566301,-0.700308,0.0,0.0,0.0,0,0
2026-06-16 16:09:00.207,2153464,L_Hip,-0.1688,0.9147,0.3558,-4.13,4.55,2.95,35.92,-5.67,-19.0,0.691214,0.394848,0.372814,0.47673,0.0,0.0,0.0,0,0
2026-06-16 16:09:00.208,2153332,R_Hip,-0.1092,-0.9869,0.1347,0.27,-1.58,1.77,0.0,0.0,0.0,0.357616,-0.246834,0.566332,-0.700278,0.0,0.0,0.0,0,0
2026-06-16 16:09:00.210,2153484,L_Hip,-0.1742,0.9113,0.3679,-4.12,4.54,2.95,36.58,-5.66,-18.43,0.691244,0.394818,0.372784,0.47673,0.0,0.0,0.0,0,0
2026-06-16 16:09:00.211,2153352,R_Hip,-0.1003,-0.9869,0.0996,0.26,-1.58,1.77,-22.84,6.76,-19.77,0.357585,-0.246834,0.566332,-0.700278,0.0,0.0,0.0,0,0
2026-06-16 16:09:00.212,2153504,L_Hip,-0.1678,0.9167,0.3591,-4.12,4.54,2.96,0.0,0.0,0.0,0.691244,0.394848,0.372784,0.476699,0.0,0.0,0.0,0,0
2026-06-16 16:09:00.213,2153372,R_Hip,-0.1082,-0.9835,0.1241,0.28,-1.6,1.75,-24.67,8.95,-20.81,0.357555,-0.246895,0.566362,-0.700278,0.0,0.0,0.0,0,0
2026-06-16 16:09:00.214,2153524,L_Hip,-0.1757,0.9152,0.364,-4.13,4.54,2.96,36.6,-5.33,-19.01,0.691244,0.394818,0.372784,0.476699,0.0,0.0,0.0,0,0
2026-06-16 16:09:00.216,2153335,R_Shank,0.007,0.5284,1.0013,-0.09,-1.45,-8.42,-18.03,-22.05,-9.37,0.851405,0.074282,-0.064241,-0.515183,0.0,0.0,0.0,0,0
2026-06-16 16:09:00.217,2153476,L_Ankle,0.1673,-0.226,0.9578,5.4,-0.88,-10.31,35.9,1.37,-11.83,-0.279672,-0.06238,0.121982,-0.950255,0.0,0.0,0.0,0,0
2026-06-16 16:09:00.219,2153355,R_Shank,0.0105,1.1696,0.9912,-0.09,-1.47,-8.42,-19.37,-22.03,-9.65,0.851436,0.074252,-0.064241,-0.515152,0.0,0.0,0.0,0,0
2026-06-16 16:09:00.220,2153496,L_Ankle,0.1565,-0.2304,0.951,5.41,-0.88,-10.31,35.53,2.79,-11.49,-0.279672,-0.06238,0.122013,-0.950255,0.0,0.0,0.0,0,0
2026-06-16 16:09:00.222,2153375,R_Shank,0.0046,2.0696,1.0028,-0.09,-1.47,-8.44,-18.86,-22.53,-9.51,0.851436,0.074252,-0.064241,-0.515152,0.0,0.0,0.0,0,0
2026-06-16 16:09:00.223,2153516,L_Ankle,0.1781,-0.2187,0.951,5.41,-0.88,-10.31,35.87,2.08,-12.85,-0.279672,-0.06241,0.121982,-0.950255,0.0,0.0,0.0,0,0
2026-06-16 16:09:00.225,2153395,R_Shank,0.0115,0.5284,0.9826,-0.08,-1.49,-8.42,0.0,0.0,0.0,0.851436,0.074252,-0.064241,-0.515152,0.0,0.0,0.0,0,0
2026-06-16 16:09:00.226,2153536,L_Ankle,0.157,-0.2275,0.9563,5.41,-0.88,-10.31,0.0,0.0,0.0,-0.279672,-0.062441,0.121982,-0.950224,0.0,0.0,0.0,0,0
2026-06-16 16:09:00.227,2153337,R_Hip,-0.1062,-0.9855,0.1227,0.27,-1.6,1.77,-24.48,8.04,-19.95,0.357555,-0.246895,0.566362,-0.700278,0.0,0.0,0.0,0,0
2026-06-16 16:09:00.229,2153357,R_Hip,-0.1067,-0.985,0.1198,0.25,-1.6,1.76,0.0,0.0,0.0,0.357555,-0.246895,0.566332,-0.700278,0.0,0.0,0.0,0,0
2026-06-16 16:09:00.232,2153499,L_Ankle,0.1584,-0.2216,0.9582,5.41,-0.87,-10.3,35.89,2.43,-11.49,-0.279702,-0.062441,0.121982,-0.950224,0.0,0.0,0.0,0,0
2026-06-16 16:09:00.232,2153377,R_Hip,-0.1096,-0.9845,0.1217,0.27,-1.6,1.77,-25.39,7.12,-19.09,0.357555,-0.246925,0.566332,-0.700278,0.0,0.0,0.0,0,0
2026-06-16 16:09:00.235,2153519,L_Ankle,0.1614,-0.227,0.9587,5.41,-0.89,-10.32,35.03,1.56,-11.33,-0.279702,-0.062441,0.121982,-0.950255,0.0,0.0,0.0,0,0
2026-06-16 16:09:00.235,2153397,R_Hip,-0.1037,-0.983,0.1381,0.28,-1.59,1.78,-25.57,8.4,-18.93,0.357555,-0.246925,0.566332,-0.700278,0.0,0.0,0.0,0,0
2026-06-16 16:09:00.238,2153539,L_Ankle,0.1555,-0.2216,0.9438,5.41,-0.87,-10.31,36.05,2.25,-12.33,-0.279702,-0.062471,0.121982,-0.950224,0.0,0.0,0.0,0,0
2026-06-16 16:09:00.238,2153357,R_Shank,0.0075,0.3988,0.9855,-0.08,-1.48,-8.42,-19.87,-22.19,-10.4,0.851436,0.074252,-0.064364,-0.515152,0.0,0.0,0.0,0,0
2026-06-16 16:09:00.240,2153559,L_Ankle,0.1609,-0.2192,0.9741,5.41,-0.87,-10.3,0.0,0.0,0.0,-0.279702,-0.062471,0.121952,-0.950224,0.0,0.0,0.0,0,0
2026-06-16 16:09:00.241,2153377,R_Shank,0.0095,-1.0128,0.9811,-0.08,-1.48,-8.42,-18.35,-22.71,-9.37,0.851436,0.074221,-0.064394,-0.515122,0.0,0.0,0.0,0,0
2026-06-16 16:09:00.243,2153397,R_Shank,0.009,0.0168,0.9994,-0.09,-1.47,-8.41,0.0,0.0,0.0,0.851436,0.074252,-0.064394,-0.515122,0.0,0.0,0.0,0,0
2026-06-16 16:09:00.244,2153512,L_Shank,0.0331,-0.132,0.9772,1.76,-1.18,-0.24,36.09,3.86,-15.77,0.46086,0.008026,-0.07004,0.88464,0.0,0.0,0.0,0,0
2026-06-16 16:09:00.246,2153417,R_Shank,0.0115,-2.554,1.0061,-0.08,-1.48,-8.42,-19.38,-22.02,-9.05,0.851436,0.074221,-0.064394,-0.515122,0.0,0.0,0.0,0,0
2026-06-16 16:09:00.247,2153532,L_Shank,0.034,-0.1305,0.9604,1.77,-1.19,-0.22,36.44,4.54,-15.78,0.460829,0.008057,-0.07004,0.884671,0.0,0.0,0.0,0,0
2026-06-16 16:09:00.248,2153362,R_Hip,-0.1047,-0.9889,0.1227,0.25,-1.59,1.79,-26.12,8.22,-19.78,0.357555,-0.246925,0.566301,-0.700308,0.0,0.0,0.0,0,0
2026-06-16 16:09:00.249,2153552,L_Shank,0.0379,-0.1242,0.9738,1.77,-1.19,-0.21,35.92,5.74,-16.26,0.460829,0.008057,-0.07004,0.884671,0.0,0.0,0.0,0,0
2026-06-16 16:09:00.251,2153382,R_Hip,-0.1072,-0.9869,0.1227,0.29,-1.61,1.8,0.0,0.0,0.0,0.357555,-0.246956,0.566332,-0.700278,0.0,0.0,0.0,0,0
2026-06-16 16:09:00.252,2153572,L_Shank,0.0282,-0.1261,0.9738,1.76,-1.19,-0.21,0.0,0.0,0.0,0.460829,0.008057,-0.07004,0.884671,0.0,0.0,0.0,0,0
2026-06-16 16:09:00.254,2153402,R_Hip,-0.1027,-0.9782,0.1222,0.28,-1.6,1.81,-26.49,7.86,-20.12,0.357585,-0.246925,0.566362,-0.700247,0.0,0.0,0.0,0,0
2026-06-16 16:09:00.255,2153521,L_Ankle,0.156,-0.2187,0.9534,5.41,-0.86,-10.3,34.8,3.87,-12.52,-0.279733,-0.062532,0.121891,-0.950224,0.0,0.0,0.0,0,0
2026-06-16 16:09:00.257,2153422,R_Hip,-0.1111,-0.9811,0.1174,0.26,-1.61,1.8,-25.58,8.04,-19.95,0.357585,-0.246956,0.566362,-0.700247,0.0,0.0,0.0,0,0
2026-06-16 16:09:00.258,2153522,L_Ankle,0.1619,-0.225,0.952,5.41,-0.84,-10.3,0.0,0.0,0.0,-0.279763,-0.062502,0.121891,-0.950224,0.0,0.0,0.0,0,0
2026-06-16 16:09:00.260,2153370,R_Ankle,0.1243,0.0661,0.9852,0.77,-1.75,-0.48,-30.72,-16.02,-12.11,0.862148,0.128727,-0.084078,0.482742,0.0,0.0,0.0,0,0
2026-06-16 16:09:00.261,2153542,L_Ankle,0.1624,-0.2265,0.963,5.41,-0.85,-10.29,36.58,3.84,-10.45,-0.279763,-0.062502,0.121891,-0.950224,0.0,0.0,0.0,0,0
2026-06-16 16:09:00.263,2153390,R_Ankle,0.1203,0.0507,0.9933,0.76,-1.76,-0.48,-31.42,-16.65,-13.04,0.862148,0.128758,-0.084048,0.482742,0.0,0.0,0.0,0,0
2026-06-16 16:09:00.263,2153562,L_Ankle,0.156,-0.2245,0.9568,5.39,-0.86,-10.3,34.99,4.04,-11.67,-0.279763,-0.062502,0.121891,-0.950224,0.0,0.0,0.0,0,0
2026-06-16 16:09:00.265,2153531,L_Hip,-0.1742,0.9201,0.3514,-4.13,4.52,2.96,37.59,-5.0,-17.57,0.691244,0.394818,0.372814,0.476699,0.0,0.0,0.0,0,0
2026-06-16 16:09:00.266,2153410,R_Ankle,0.1159,0.0552,0.9947,0.75,-1.74,-0.48,-31.07,-16.98,-12.11,0.862117,0.128758,-0.084078,0.482742,0.0,0.0,0.0,0,0
2026-06-16 16:09:00.268,2153551,L_Hip,-0.1693,0.9211,0.3674,-4.14,4.52,2.96,36.57,-6.3,-18.42,0.691275,0.394818,0.372814,0.476699,0.0,0.0,0.0,0,0
2026-06-16 16:09:00.269,2153430,R_Ankle,0.1233,0.0512,0.989,0.76,-1.75,-0.49,-30.56,-16.49,-12.88,0.862117,0.128758,-0.084078,0.482742,0.0,0.0,0.0,0,0
2026-06-16 16:09:00.271,2153571,L_Hip,-0.1688,0.9137,0.3722,-4.14,4.52,2.96,35.75,-6.15,-19.72,0.691275,0.394787,0.372814,0.476699,0.0,0.0,0.0,0,0
2026-06-16 16:09:00.272,2153403,R_Shank,0.0134,2.97,0.9802,-0.09,-1.48,-8.45,-18.68,-22.38,-10.57,0.851436,0.074221,-0.064394,-0.515122,0.0,0.0,0.0,0,0
2026-06-16 16:09:00.274,2153591,L_Hip,-0.1703,0.9005,0.3712,-4.15,4.51,2.96,0.0,0.0,0.0,0.691275,0.394787,0.372845,0.476669,0.0,0.0,0.0,0,0
2026-06-16 16:09:00.274,2153423,R_Shank,-0.0002,-0.8832,0.9956,-0.08,-1.48,-8.45,-17.51,-22.56,-9.53,0.851436,0.07419,-0.064394,-0.515122,0.0,0.0,0.0,0,0
2026-06-16 16:09:00.276,2153443,R_Shank,0.0095,0.5284,0.996,-0.07,-1.47,-8.45,0.0,0.0,0.0,0.851436,0.07419,-0.064425,-0.515122,0.0,0.0,0.0,0,0
2026-06-16 16:09:00.278,2153463,R_Shank,0.011,0.5284,0.9893,-0.07,-1.48,-8.45,-18.01,-22.71,-9.67,0.851436,0.07419,-0.064394,-0.515122,0.0,0.0,0.0,0,0
2026-06-16 16:09:00.280,2153412,R_Hip,-0.0983,-0.9869,0.1179,0.3,-1.61,1.79,-26.12,7.86,-20.81,0.357585,-0.246956,0.566362,-0.700247,0.0,0.0,0.0,0,0
2026-06-16 16:09:00.282,2153432,R_Hip,-0.1087,-0.9889,0.1126,0.29,-1.6,1.77,0.0,0.0,0.0,0.357585,-0.246986,0.566362,-0.700247,0.0,0.0,0.0,0,0
2026-06-16 16:09:00.284,2153452,R_Hip,-0.1151,-0.9762,0.1304,0.28,-1.61,1.77,-25.21,7.31,-20.63,0.357585,-0.247017,0.566332,-0.700247,0.0,0.0,0.0,0,0
2026-06-16 16:09:00.286,2153472,R_Hip,-0.1126,-0.9786,0.1207,0.28,-1.61,1.77,-25.75,6.76,-18.75,0.357616,-0.246986,0.566332,-0.700217,0.0,0.0,0.0,0,0
2026-06-16 16:09:00.288,2153415,R_Ankle,0.1233,0.0542,0.9871,0.74,-1.76,-0.49,-32.41,-15.4,-11.83,0.862117,0.128727,-0.084109,0.482742,0.0,0.0,0.0,0,0
2026-06-16 16:09:00.290,2153435,R_Ankle,0.1199,0.0601,0.9914,0.76,-1.75,-0.48,0.0,0.0,0.0,0.862117,0.128758,-0.084109,0.482742,0.0,0.0,0.0,0,0
2026-06-16 16:09:00.292,2153455,R_Ankle,0.1218,0.0532,0.9813,0.75,-1.74,-0.5,-31.41,-17.62,-11.79,0.862117,0.128758,-0.084109,0.482742,0.0,0.0,0.0,0,0
2026-06-16 16:09:00.294,2153475,R_Ankle,0.1199,0.0646,0.9943,0.74,-1.75,-0.5,-30.91,-18.09,-11.94,0.862117,0.128727,-0.08414,0.482742,0.0,0.0,0.0,0,0
2026-06-16 16:09:00.296,2153425,R_Shank,0.0105,1.4288,0.9931,-0.07,-1.47,-8.42,-18.19,-22.54,-9.22,0.851436,0.07419,-0.064425,-0.515152,0.0,0.0,0.0,0,0
2026-06-16 16:09:00.299,2153445,R_Shank,0.0051,0.5284,1.0032,-0.06,-1.48,-8.42,0.0,0.0,0.0,0.851436,0.07416,-0.064455,-0.515122,0.0,0.0,0.0,0,0
2026-06-16 16:09:00.300,2153566,L_Ankle,0.1594,-0.227,0.9472,5.41,-0.86,-10.29,35.69,2.26,-12.68,-0.279763,-0.062471,0.121891,-0.950224,0.0,0.0,0.0,0,0
2026-06-16 16:09:00.302,2153586,L_Ankle,0.1614,-0.2285,0.9501,5.4,-0.87,-10.29,0.0,0.0,0.0,-0.279763,-0.062441,0.121891,-0.950224,0.0,0.0,0.0,0,0
2026-06-16 16:09:00.303,2153465,R_Shank,0.008,-0.242,1.0052,-0.06,-1.46,-8.44,-19.71,-22.35,-9.35,0.851436,0.07416,-0.064455,-0.515122,0.0,0.0,0.0,0,0
2026-06-16 16:09:00.305,2153606,L_Ankle,0.1614,-0.227,0.9462,5.41,-0.87,-10.3,34.83,2.81,-11.5,-0.279763,-0.062441,0.121921,-0.950224,0.0,0.0,0.0,0,0
2026-06-16 16:09:00.306,2153485,R_Shank,0.0056,-1.1424,0.9903,-0.06,-1.48,-8.43,-18.54,-22.2,-8.91,0.851436,0.07416,-0.064455,-0.515122,0.0,0.0,0.0,0,0
2026-06-16 16:09:00.308,2153626,L_Ankle,0.1619,-0.2172,0.939,5.41,-0.89,-10.3,35.53,3.15,-11.49,-0.279763,-0.062471,0.121921,-0.950224,0.0,0.0,0.0,0,0
2026-06-16 16:09:00.310,2153576,L_Hip,-0.1673,0.9147,0.3809,-4.13,4.51,2.96,36.28,-4.69,-19.3,0.691244,0.394787,0.372875,0.476699,0.0,0.0,0.0,0,0
2026-06-16 16:09:00.312,2153577,L_Hip,-0.1717,0.9019,0.378,-4.12,4.52,2.96,37.42,-6.45,-19.16,0.691244,0.394757,0.372906,0.476699,0.0,0.0,0.0,0,0
2026-06-16 16:09:00.313,2153447,R_Shank,0.0149,0.658,0.9936,-0.07,-1.47,-8.41,-18.85,-22.87,-9.82,0.851436,0.07419,-0.064455,-0.515122,0.0,0.0,0.0,0,0
2026-06-16 16:09:00.315,2153597,L_Hip,-0.1752,0.9142,0.3708,-4.12,4.51,2.96,0.0,0.0,0.0,0.691214,0.394757,0.372906,0.476699,0.0,0.0,0.0,0,0
2026-06-16 16:09:00.316,2153467,R_Shank,0.0036,2.3288,0.9691,-0.07,-1.45,-8.43,0.0,0.0,0.0,0.851436,0.074221,-0.064455,-0.515122,0.0,0.0,0.0,0,0
2026-06-16 16:09:00.318,2153617,L_Hip,-0.1693,0.9122,0.3722,-4.13,4.52,2.96,36.25,-5.34,-18.13,0.691214,0.394726,0.372936,0.476699,0.0,0.0,0.0,0,0
2026-06-16 16:09:00.319,2153487,R_Shank,0.0129,-0.5012,0.9956,-0.06,-1.45,-8.43,-19.05,-22.03,-8.75,0.851436,0.074221,-0.064455,-0.515122,0.0,0.0,0.0,0,0
2026-06-16 16:09:00.321,2153587,L_Shank,0.0287,-0.131,0.9681,1.76,-1.2,-0.2,35.38,5.89,-14.86,0.460829,0.008087,-0.07004,0.884671,0.0,0.0,0.0,0,0
2026-06-16 16:09:00.322,2153507,R_Shank,0.0115,0.5284,0.9999,-0.06,-1.45,-8.42,-18.72,-21.7,-8.45,0.851436,0.074252,-0.064486,-0.515091,0.0,0.0,0.0,0,0
2026-06-16 16:09:00.324,2153607,L_Shank,0.0311,-0.1232,0.9714,1.76,-1.2,-0.19,35.57,4.03,-15.92,0.460829,0.008087,-0.07004,0.884671,0.0,0.0,0.0,0,0
2026-06-16 16:09:00.326,2153461,R_Ankle,0.1218,0.0482,0.9933,0.75,-1.75,-0.48,-31.93,-17.13,-12.88,0.862117,0.128727,-0.084201,0.482772,0.0,0.0,0.0,0,0
2026-06-16 16:09:00.326,2153627,L_Shank,0.0389,-0.1296,0.9786,1.76,-1.21,-0.21,34.53,5.74,-16.56,0.460829,0.008087,-0.07004,0.884671,0.0,0.0,0.0,0,0
2026-06-16 16:09:00.328,2153481,R_Ankle,0.1282,0.0616,0.9914,0.77,-1.74,-0.48,0.0,0.0,0.0,0.862117,0.128727,-0.084201,0.482772,0.0,0.0,0.0,0,0
2026-06-16 16:09:00.329,2153647,L_Shank,0.0355,-0.1222,0.9642,1.76,-1.22,-0.22,0.0,0.0,0.0,0.460799,0.008087,-0.07004,0.884671,0.0,0.0,0.0,0,0
2026-06-16 16:09:00.330,2153501,R_Ankle,0.1321,0.0512,0.9895,0.77,-1.73,-0.48,-29.53,-16.49,-12.25,0.862087,0.128727,-0.084231,0.482772,0.0,0.0,0.0,0,0
2026-06-16 16:09:00.332,2153521,R_Ankle,0.1184,0.0596,1.0,0.78,-1.74,-0.5,-30.39,-15.69,-13.04,0.862117,0.128727,-0.084231,0.482772,0.0,0.0,0.0,0,0
2026-06-16 16:09:00.335,2153462,R_Hip,-0.1096,-0.9747,0.1179,0.29,-1.61,1.76,-26.3,6.21,-20.29,0.357616,-0.247017,0.566332,-0.700217,0.0,0.0,0.0,0,0
2026-06-16 16:09:00.336,2153482,R_Hip,-0.1087,-0.9821,0.126,0.29,-1.61,1.77,0.0,0.0,0.0,0.357616,-0.247017,0.566301,-0.700247,0.0,0.0,0.0,0,0
2026-06-16 16:09:00.338,2153502,R_Hip,-0.1067,-0.9913,0.1174,0.27,-1.61,1.77,-25.39,7.49,-19.44,0.357616,-0.247047,0.566301,-0.700247,0.0,0.0,0.0,0,0
2026-06-16 16:09:00.341,2153522,R_Hip,-0.1096,-0.9889,0.1246,0.28,-1.62,1.77,-25.57,6.58,-19.95,0.357616,-0.247047,0.566301,-0.700217,0.0,0.0,0.0,0,0
2026-06-16 16:09:00.343,2153470,R_Shank,0.0129,-0.6308,0.9855,-0.08,-1.44,-8.41,-19.05,-21.7,-9.35,0.851436,0.074252,-0.064486,-0.515091,0.0,0.0,0.0,0,0
2026-06-16 16:09:00.344,2153490,R_Shank,0.0095,1.2992,0.984,-0.09,-1.44,-8.42,0.0,0.0,0.0,0.851436,0.074282,-0.064486,-0.515091,0.0,0.0,0.0,0,0
2026-06-16 16:09:00.347,2153510,R_Shank,0.008,1.4288,0.9893,-0.08,-1.44,-8.43,-18.55,-21.87,-8.3,0.851466,0.074313,-0.064486,-0.515061,0.0,0.0,0.0,0,0
2026-06-16 16:09:00.349,2153530,R_Shank,0.0011,2.1992,0.9725,-0.09,-1.44,-8.45,-18.86,-22.86,-9.21,0.851466,0.074343,-0.064486,-0.515061,0.0,0.0,0.0,0,0
2026-06-16 16:09:00.352,2153487,R_Hip,-0.1116,-0.9777,0.1309,0.27,-1.6,1.79,-25.58,8.77,-19.95,0.357616,-0.247047,0.566332,-0.700217,0.0,0.0,0.0,0,0
2026-06-16 16:09:00.354,2153507,R_Hip,-0.0949,-0.9821,0.1241,0.26,-1.61,1.82,0.0,0.0,0.0,0.357646,-0.247047,0.566301,-0.700217,0.0,0.0,0.0,0,0
2026-06-16 16:09:00.354,2153622,L_Hip,-0.1766,0.9176,0.3674,-4.13,4.51,2.93,37.27,-5.32,-19.02,0.691214,0.394726,0.372967,0.476699,0.0,0.0,0.0,0,0
2026-06-16 16:09:00.357,2153527,R_Hip,-0.1072,-0.985,0.113,0.28,-1.58,1.8,-25.58,7.31,-20.63,0.357646,-0.247047,0.566332,-0.700186,0.0,0.0,0.0,0,0
2026-06-16 16:09:00.357,2153642,L_Hip,-0.1673,0.9029,0.3654,-4.12,4.52,2.94,36.26,-5.98,-19.58,0.691214,0.394726,0.372997,0.476699,0.0,0.0,0.0,0,0
2026-06-16 16:09:00.360,2153662,L_Hip,-0.1771,0.9162,0.3485,-4.14,4.51,2.93,36.44,-5.82,-20.31,0.691183,0.394726,0.372997,0.476699,0.0,0.0,0.0,0,0
2026-06-16 16:09:00.360,2153547,R_Hip,-0.1057,-0.9801,0.1179,0.29,-1.58,1.83,-25.03,7.12,-19.78,0.357677,-0.247047,0.566362,-0.700156,0.0,0.0,0.0,0,0
2026-06-16 16:09:00.362,2153682,L_Hip,-0.1737,0.9172,0.3553,-4.14,4.51,2.93,0.0,0.0,0.0,0.691214,0.394696,0.372997,0.476699,0.0,0.0,0.0,0,0
2026-06-16 16:09:00.367,2153635,L_Ankle,0.158,-0.2231,0.9645,5.4,-0.87,-10.29,34.84,2.81,-10.82,-0.279733,-0.062471,0.121982,-0.950224,0.0,0.0,0.0,0,0
2026-06-16 16:09:00.369,2153655,L_Ankle,0.1648,-0.226,0.9582,5.4,-0.87,-10.29,36.59,2.78,-11.13,-0.279733,-0.062471,0.121952,-0.950224,0.0,0.0,0.0,0,0
2026-06-16 16:09:00.370,2153505,R_Ankle,0.1218,0.0512,0.9765,0.77,-1.74,-0.49,-31.05,-16.67,-11.19,0.862087,0.128758,-0.084231,0.482772,0.0,0.0,0.0,0,0
2026-06-16 16:09:00.372,2153525,R_Ankle,0.1145,0.0472,0.9866,0.78,-1.75,-0.49,0.0,0.0,0.0,0.862087,0.128758,-0.084231,0.482772,0.0,0.0,0.0,0,0
2026-06-16 16:09:00.373,2153675,L_Ankle,0.1594,-0.2206,0.9621,5.39,-0.87,-10.29,0.0,0.0,0.0,-0.279733,-0.062471,0.121952,-0.950224,0.0,0.0,0.0,0,0
2026-06-16 16:09:00.375,2153545,R_Ankle,0.1262,0.0596,0.999,0.78,-1.75,-0.5,-31.25,-17.12,-13.19,0.862087,0.128758,-0.084231,0.482772,0.0,0.0,0.0,0,0
2026-06-16 16:09:00.375,2153695,L_Ankle,0.1555,-0.2304,0.964,5.4,-0.87,-10.29,35.2,2.8,-10.48,-0.279702,-0.062441,0.121952,-0.950224,0.0,0.0,0.0,0,0
2026-06-16 16:09:00.378,2153565,R_Ankle,0.1184,0.0517,1.0067,0.77,-1.74,-0.49,-31.24,-16.18,-12.58,0.862087,0.128758,-0.084231,0.482772,0.0,0.0,0.0,0,0
2026-06-16 16:09:00.378,2153636,L_Shank,0.0355,-0.1271,0.9767,1.75,-1.22,-0.21,35.55,5.03,-14.38,0.460799,0.008118,-0.07004,0.884671,0.0,0.0,0.0,0,0
2026-06-16 16:09:00.380,2153656,L_Shank,0.0409,-0.1198,0.9681,1.77,-1.22,-0.21,36.28,4.73,-17.18,0.460768,0.008118,-0.07007,0.884671,0.0,0.0,0.0,0,0
2026-06-16 16:09:00.382,2153676,L_Shank,0.0277,-0.1271,0.969,1.75,-1.2,-0.19,36.79,5.56,-15.8,0.460768,0.008118,-0.07007,0.884701,0.0,0.0,0.0,0,0
2026-06-16 16:09:00.384,2153696,L_Shank,0.035,-0.13,0.9748,1.75,-1.22,-0.19,35.05,3.2,-16.68,0.460768,0.008118,-0.07007,0.884701,0.0,0.0,0.0,0,0
2026-06-16 16:09:00.386,2153644,L_Hip,-0.1752,0.9063,0.3688,-4.14,4.51,2.93,36.58,-5.66,-18.43,0.691214,0.394726,0.372997,0.476699,0.0,0.0,0.0,0,0
2026-06-16 16:09:00.387,2153664,L_Hip,-0.1727,0.9113,0.3669,-4.14,4.49,2.96,36.92,-5.97,-19.01,0.691214,0.394696,0.372997,0.476699,0.0,0.0,0.0,0,0
2026-06-16 16:09:00.389,2153684,L_Hip,-0.1786,0.9147,0.3771,-4.14,4.51,2.94,35.94,-5.02,-19.29,0.691214,0.394665,0.372997,0.47673,0.0,0.0,0.0,0,0
2026-06-16 16:09:00.391,2153704,L_Hip,-0.1786,0.9137,0.3475,-4.16,4.5,2.96,36.1,-5.5,-19.44,0.691244,0.394665,0.372967,0.47673,0.0,0.0,0.0,0,0
2026-06-16 16:09:00.393,2153656,L_Ankle,0.156,-0.2216,0.9621,5.41,-0.86,-10.29,35.7,2.97,-12.0,-0.279702,-0.062441,0.121952,-0.950224,0.0,0.0,0.0,0,0
2026-06-16 16:09:00.395,2153676,L_Ankle,0.1658,-0.2289,0.9462,5.41,-0.86,-10.29,35.54,2.09,-11.49,-0.279702,-0.06241,0.121952,-0.950224,0.0,0.0,0.0,0,0
2026-06-16 16:09:00.397,2153696,L_Ankle,0.1584,-0.2289,0.9496,5.41,-0.86,-10.3,0.0,0.0,0.0,-0.279702,-0.06241,0.121982,-0.950224,0.0,0.0,0.0,0,0
2026-06-16 16:09:00.399,2153657,L_Ankle,0.1609,-0.2197,0.977,5.42,-0.85,-10.28,36.91,3.83,-11.8,-0.279702,-0.06238,0.121982,-0.950224,0.0,0.0,0.0,0,0
2026-06-16 16:09:00.401,2153661,L_Shank,0.035,-0.1315,0.982,1.75,-1.2,-0.19,36.25,2.99,-14.36,0.460768,0.008118,-0.070101,0.884701,0.0,0.0,0.0,0,0
2026-06-16 16:09:00.403,2153537,R_Hip,-0.1116,-0.9855,0.1323,0.29,-1.58,1.8,-25.94,7.67,-19.61,0.357677,-0.247017,0.566393,-0.700156,0.0,0.0,0.0,0,0
2026-06-16 16:09:00.403,2153681,L_Shank,0.0316,-0.1217,0.9734,1.76,-1.19,-0.18,0.0,0.0,0.0,0.460768,0.008179,-0.070101,0.884671,0.0,0.0,0.0,0,0
2026-06-16 16:09:00.405,2153557,R_Hip,-0.1057,-0.9762,0.1164,0.29,-1.57,1.78,0.0,0.0,0.0,0.357677,-0.246986,0.566393,-0.700156,0.0,0.0,0.0,0,0
2026-06-16 16:09:00.406,2153701,L_Shank,0.0365,-0.1119,0.9729,1.77,-1.21,-0.22,36.27,5.74,-16.26,0.460768,0.008179,-0.070101,0.884671,0.0,0.0,0.0,0,0
2026-06-16 16:09:00.408,2153577,R_Hip,-0.1067,-0.983,0.1323,0.29,-1.57,1.79,-25.03,7.13,-20.46,0.357677,-0.246986,0.566393,-0.700156,0.0,0.0,0.0,0,0
2026-06-16 16:09:00.409,2153721,L_Shank,0.0399,-0.131,0.9734,1.76,-1.2,-0.21,35.4,5.57,-16.41,0.460768,0.008179,-0.070101,0.884671,0.0,0.0,0.0,0,0
2026-06-16 16:09:00.410,2153597,R_Hip,-0.1126,-0.9908,0.128,0.3,-1.54,1.77,-26.12,7.85,-19.1,0.357677,-0.246956,0.566362,-0.700186,0.0,0.0,0.0,0,0
2026-06-16 16:09:00.411,2153666,L_Hip,-0.1752,0.9083,0.3664,-4.12,4.51,2.96,36.76,-5.49,-18.87,0.691244,0.394665,0.372967,0.47673,0.0,0.0,0.0,0,0
2026-06-16 16:09:00.413,2153686,L_Hip,-0.1727,0.9073,0.3504,-4.13,4.51,2.97,0.0,0.0,0.0,0.691275,0.394635,0.372936,0.47673,0.0,0.0,0.0,0,0
2026-06-16 16:09:00.415,2153550,R_Ankle,0.1306,0.0631,0.9866,0.78,-1.75,-0.49,-31.4,-16.03,-12.12,0.862087,0.128758,-0.084201,0.482772,0.0,0.0,0.0,0,0
2026-06-16 16:09:00.416,2153706,L_Hip,-0.1786,0.9157,0.3732,-4.14,4.5,2.98,35.77,-5.51,-20.01,0.691275,0.394635,0.372936,0.47676,0.0,0.0,0.0,0,0
2026-06-16 16:09:00.417,2153570,R_Ankle,0.1208,0.0492,0.9899,0.78,-1.75,-0.48,0.0,0.0,0.0,0.862087,0.128788,-0.084201,0.482772,0.0,0.0,0.0,0,0
2026-06-16 16:09:00.419,2153726,L_Hip,-0.184,0.9039,0.3722,-4.13,4.5,2.97,37.1,-5.81,-19.16,0.691244,0.394604,0.372997,0.47673,0.0,0.0,0.0,0,0
2026-06-16 16:09:00.420,2153590,R_Ankle,0.1233,0.0532,1.0072,0.78,-1.74,-0.5,-31.76,-16.65,-13.66,0.862087,0.128819,-0.084231,0.482772,0.0,0.0,0.0,0,0
2026-06-16 16:09:00.422,2153679,L_Ankle,0.1736,-0.228,0.9453,5.41,-0.86,-10.29,35.89,2.79,-10.8,-0.279702,-0.06241,0.121952,-0.950255,0.0,0.0,0.0,0,0
2026-06-16 16:09:00.423,2153610,R_Ankle,0.1218,0.0507,1.0144,0.78,-1.74,-0.48,-31.41,-16.02,-12.74,0.862087,0.128788,-0.084201,0.482803,0.0,0.0,0.0,0,0
2026-06-16 16:09:00.424,2153699,L_Ankle,0.1653,-0.2182,0.951,5.42,-0.85,-10.28,35.36,2.26,-11.67,-0.279702,-0.06241,0.121952,-0.950255,0.0,0.0,0.0,0,0
2026-06-16 16:09:00.426,2153719,L_Ankle,0.1584,-0.2211,0.952,5.41,-0.86,-10.29,0.0,0.0,0.0,-0.279702,-0.062441,0.121921,-0.950255,0.0,0.0,0.0,0,0
2026-06-16 16:09:00.427,2153562,R_Hip,-0.1096,-0.9865,0.1207,0.29,-1.57,1.78,-25.58,8.41,-20.29,0.357646,-0.246956,0.566362,-0.700186,0.0,0.0,0.0,0,0
2026-06-16 16:09:00.429,2153739,L_Ankle,0.1619,-0.2255,0.9477,5.42,-0.85,-10.28,35.71,2.97,-11.32,-0.279702,-0.06241,0.121921,-0.950255,0.0,0.0,0.0,0,0
2026-06-16 16:09:00.429,2153582,R_Hip,-0.1067,-0.9894,0.1246,0.28,-1.56,1.78,0.0,0.0,0.0,0.357677,-0.246956,0.566332,-0.700217,0.0,0.0,0.0,0,0
2026-06-16 16:09:00.432,2153602,R_Hip,-0.1131,-0.9874,0.1309,0.28,-1.56,1.78,-25.76,6.76,-19.43,0.357646,-0.246925,0.566332,-0.700217,0.0,0.0,0.0,0,0
2026-06-16 16:09:00.432,2153689,L_Hip,-0.1796,0.9088,0.3746,-4.15,4.52,2.97,36.94,-4.68,-18.43,0.691275,0.394604,0.372997,0.476699,0.0,0.0,0.0,0,0
2026-06-16 16:09:00.434,2153709,L_Hip,-0.1801,0.9201,0.3761,-4.15,4.53,2.96,0.0,0.0,0.0,0.691275,0.394635,0.372997,0.476699,0.0,0.0,0.0,0,0
2026-06-16 16:09:00.435,2153622,R_Hip,-0.1018,-0.9811,0.1217,0.28,-1.57,1.78,-25.76,7.13,-20.46,0.357646,-0.246925,0.566332,-0.700217,0.0,0.0,0.0,0,0
2026-06-16 16:09:00.437,2153729,L_Hip,-0.1747,0.9191,0.3596,-4.13,4.51,2.95,37.29,-5.0,-19.6,0.691275,0.394635,0.373028,0.476669,0.0,0.0,0.0,0,0
2026-06-16 16:09:00.439,2153749,L_Hip,-0.1683,0.9191,0.3688,-4.15,4.52,2.98,35.74,-5.83,-18.56,0.691275,0.394635,0.373028,0.476669,0.0,0.0,0.0,0,0
2026-06-16 16:09:00.447,2153582,R_Shank,0.0046,0.3988,0.9883,-0.09,-1.45,-8.45,-20.17,-23.51,-11.01,0.851466,0.074343,-0.064455,-0.515061,0.0,0.0,0.0,0,0
2026-06-16 16:09:00.449,2153602,R_Shank,0.0026,2.4584,0.9759,-0.09,-1.45,-8.43,0.0,0.0,0.0,0.851436,0.074343,-0.064455,-0.515091,0.0,0.0,0.0,0,0
2026-06-16 16:09:00.451,2153622,R_Shank,0.0124,-2.6836,0.9975,-0.09,-1.47,-8.41,-18.87,-22.2,-8.91,0.851436,0.074374,-0.064425,-0.515091,0.0,0.0,0.0,0,0
2026-06-16 16:09:00.453,2153642,R_Shank,0.0021,-2.6836,0.9898,-0.09,-1.47,-8.42,-18.36,-21.72,-10.26,0.851436,0.074343,-0.064425,-0.515091,0.0,0.0,0.0,0,0
2026-06-16 16:09:00.477,2153612,R_Hip,-0.1161,-0.9899,0.1323,0.28,-1.57,1.8,-26.48,5.66,-18.75,0.357646,-0.246895,0.566362,-0.700217,0.0,0.0,0.0,0,0
2026-06-16 16:09:00.479,2153632,R_Hip,-0.1042,-0.9728,0.1265,0.28,-1.57,1.81,0.0,0.0,0.0,0.357646,-0.246895,0.566362,-0.700217,0.0,0.0,0.0,0,0
2026-06-16 16:09:00.481,2153652,R_Hip,-0.1077,-0.9801,0.1429,0.28,-1.58,1.8,-25.94,8.4,-19.95,0.357646,-0.246895,0.566362,-0.700217,0.0,0.0,0.0,0,0
2026-06-16 16:09:00.484,2153672,R_Hip,-0.1057,-0.9869,0.1275,0.29,-1.59,1.82,-25.76,7.86,-19.44,0.357677,-0.246864,0.566332,-0.700247,0.0,0.0,0.0,0,0
2026-06-16 16:09:00.486,2153617,R_Ankle,0.1297,0.0507,0.9962,0.76,-1.74,-0.49,-28.52,-17.11,-12.54,0.862056,0.128849,-0.08417,0.482803,0.0,0.0,0.0,0,0
2026-06-16 16:09:00.488,2153637,R_Ankle,0.1292,0.0596,0.9957,0.77,-1.72,-0.51,0.0,0.0,0.0,0.862056,0.128849,-0.08417,0.482803,0.0,0.0,0.0,0,0
2026-06-16 16:09:00.490,2153657,R_Ankle,0.1277,0.0586,0.9871,0.76,-1.71,-0.49,-29.88,-16.48,-12.87,0.862056,0.128849,-0.08417,0.482803,0.0,0.0,0.0,0,0
2026-06-16 16:09:00.492,2153677,R_Ankle,0.1233,0.0601,1.0038,0.76,-1.73,-0.49,-31.08,-16.64,-13.34,0.862056,0.128849,-0.08417,0.482803,0.0,0.0,0.0,0,0
2026-06-16 16:09:00.495,2153761,L_Shank,0.0355,-0.1198,0.9762,1.75,-1.19,-0.2,36.08,4.87,-14.85,0.460768,0.008209,-0.07007,0.884671,0.0,0.0,0.0,0,0
2026-06-16 16:09:00.496,2153628,R_Shank,0.0021,1.2992,0.9893,-0.09,-1.46,-8.41,-20.23,-21.84,-8.59,0.851466,0.074343,-0.064425,-0.515091,0.0,0.0,0.0,0,0
2026-06-16 16:09:00.498,2153781,L_Shank,0.0331,-0.1188,0.981,1.76,-1.19,-0.2,0.0,0.0,0.0,0.460768,0.008209,-0.070101,0.884671,0.0,0.0,0.0,0,0
2026-06-16 16:09:00.499,2153648,R_Shank,0.0119,-1.1424,0.9883,-0.08,-1.46,-8.41,0.0,0.0,0.0,0.851466,0.074343,-0.064394,-0.515061,0.0,0.0,0.0,0,0
2026-06-16 16:09:00.501,2153762,L_Shank,0.0301,-0.1281,0.9527,1.76,-1.19,-0.2,36.96,4.71,-15.63,0.460768,0.008209,-0.070101,0.884671,0.0,0.0,0.0,0,0
2026-06-16 16:09:00.503,2153668,R_Shank,0.0173,-2.8132,1.0008,-0.09,-1.47,-8.41,-19.9,-21.84,-8.29,0.851466,0.074374,-0.064394,-0.515061,0.0,0.0,0.0,0,0
2026-06-16 16:09:00.505,2153782,L_Shank,0.0321,-0.1232,0.9758,1.74,-1.18,-0.19,36.45,4.21,-16.4,0.460768,0.008209,-0.07007,0.884701,0.0,0.0,0.0,0,0
2026-06-16 16:09:00.506,2153688,R_Shank,0.01,1.558,0.985,-0.08,-1.45,-8.41,-18.7,-22.04,-9.66,0.851466,0.074343,-0.064425,-0.51503,0.0,0.0,0.0,0,0
2026-06-16 16:09:00.508,2153769,L_Ankle,0.158,-0.2397,0.9462,5.41,-0.83,-10.32,35.68,3.68,-12.0,-0.279702,-0.06241,0.121921,-0.950255,0.0,0.0,0.0,0,0
2026-06-16 16:09:00.510,2153640,R_Ankle,0.1199,0.0438,1.0019,0.76,-1.74,-0.48,-29.72,-16.95,-13.33,0.862087,0.128788,-0.084078,0.482803,0.0,0.0,0.0,0,0
2026-06-16 16:09:00.512,2153789,L_Ankle,0.1629,-0.228,0.9515,5.41,-0.85,-10.3,36.92,3.12,-12.15,-0.279702,-0.06238,0.121952,-0.950255,0.0,0.0,0.0,0,0
2026-06-16 16:09:00.513,2153660,R_Ankle,0.1262,0.0552,0.9866,0.76,-1.73,-0.49,0.0,0.0,0.0,0.862087,0.128788,-0.084078,0.482833,0.0,0.0,0.0,0,0
2026-06-16 16:09:00.515,2153809,L_Ankle,0.1535,-0.2236,0.964,5.41,-0.86,-10.29,35.35,2.97,-12.0,-0.279702,-0.062349,0.121952,-0.950255,0.0,0.0,0.0,0,0
2026-06-16 16:09:00.516,2153680,R_Ankle,0.1218,0.0512,0.9947,0.77,-1.74,-0.51,-30.9,-17.45,-11.95,0.862087,0.128788,-0.084078,0.482803,0.0,0.0,0.0,0,0
2026-06-16 16:09:00.517,2153829,L_Ankle,0.1629,-0.227,0.9472,5.41,-0.85,-10.3,0.0,0.0,0.0,-0.279702,-0.062349,0.121952,-0.950255,0.0,0.0,0.0,0,0
2026-06-16 16:09:00.518,2153700,R_Ankle,0.1189,0.0532,0.9813,0.76,-1.74,-0.48,-31.07,-16.97,-12.72,0.862087,0.128758,-0.084078,0.482833,0.0,0.0,0.0,0,0
2026-06-16 16:09:00.520,2153779,L_Hip,-0.1752,0.9186,0.3674,-4.14,4.51,2.98,36.24,-6.95,-19.58,0.691305,0.394604,0.372997,0.476638,0.0,0.0,0.0,0,0
2026-06-16 16:09:00.521,2153650,R_Shank,0.0095,-2.172,0.9754,-0.07,-1.48,-8.45,-18.51,-22.87,-9.82,0.851497,0.074313,-0.064425,-0.51503,0.0,0.0,0.0,0,0
2026-06-16 16:09:00.523,2153799,L_Hip,-0.1766,0.9059,0.363,-4.15,4.51,2.97,37.1,-5.81,-19.16,0.691336,0.394574,0.372997,0.476638,0.0,0.0,0.0,0,0
2026-06-16 16:09:00.524,2153670,R_Shank,0.0075,0.5284,0.985,-0.09,-1.47,-8.45,-19.05,-21.37,-9.65,0.851466,0.074313,-0.064425,-0.51503,0.0,0.0,0.0,0,0
2026-06-16 16:09:00.526,2153819,L_Hip,-0.1663,0.9132,0.3669,-4.13,4.51,2.99,0.0,0.0,0.0,0.691336,0.394574,0.372997,0.476608,0.0,0.0,0.0,0,0
2026-06-16 16:09:00.528,2153690,R_Shank,0.0031,0.658,0.9912,-0.09,-1.47,-8.45,-19.71,-22.02,-9.35,0.851466,0.074343,-0.064455,-0.515061,0.0,0.0,0.0,0,0
2026-06-16 16:09:00.530,2153839,L_Hip,-0.1629,0.9049,0.3635,-4.12,4.51,2.99,35.75,-5.83,-19.14,0.691366,0.394543,0.373028,0.476608,0.0,0.0,0.0,0,0
2026-06-16 16:09:00.531,2153710,R_Shank,0.0036,1.4288,0.9754,-0.08,-1.46,-8.45,0.0,0.0,0.0,0.851466,0.074343,-0.064455,-0.515061,0.0,0.0,0.0,0,0
2026-06-16 16:09:00.534,2153801,L_Hip,-0.1629,0.9147,0.365,-4.15,4.54,2.99,36.74,-6.14,-18.57,0.691366,0.394543,0.373028,0.476608,0.0,0.0,0.0,0,0
2026-06-16 16:09:00.536,2153821,L_Hip,-0.1742,0.9078,0.3669,-4.13,4.53,2.97,0.0,0.0,0.0,0.691366,0.394543,0.373028,0.476608,0.0,0.0,0.0,0,0
2026-06-16 16:09:00.537,2153672,R_Shank,0.0095,3.2288,0.9874,-0.08,-1.48,-8.45,-18.53,-22.21,-9.81,0.851466,0.074343,-0.064455,-0.515061,0.0,0.0,0.0,0,0
2026-06-16 16:09:00.539,2153841,L_Hip,-0.1673,0.9162,0.3732,-4.12,4.54,2.96,36.77,-5.49,-19.45,0.691366,0.394513,0.372997,0.476608,0.0,0.0,0.0,0,0
2026-06-16 16:09:00.541,2153692,R_Shank,0.007,0.658,0.9994,-0.08,-1.46,-8.43,-17.01,-22.73,-8.78,0.851466,0.074313,-0.064455,-0.515061,0.0,0.0,0.0,0,0
2026-06-16 16:09:00.543,2153861,L_Hip,-0.1727,0.9093,0.3635,-4.13,4.54,2.97,37.95,-5.31,-19.03,0.691366,0.394543,0.373028,0.476608,0.0,0.0,0.0,0,0
