python_time,esp32_hw_time,sensor_name,ax,ay,az,gx,gy,gz,mx,my,mz,q0,q1,q2,q3,quat_roll,quat_pitch,quat_yaw,is_paused_flag,t_pose_flag
2026-06-16 15:55:13.816,1326962,R_Hip,0.0436,0.0006,0.9982,0.27,-1.57,1.77,-17.78,27.62,-33.16,0.941435,-0.003601,-0.041353,-0.334574,0.0,0.0,0.0,0,0
2026-06-16 15:55:13.816,1327097,L_Ankle,0.0815,0.0217,0.9938,5.4,-0.85,-10.3,-18.14,-4.96,-47.17,0.991729,0.017365,-0.055605,-0.114231,0.0,0.0,0.0,0,0
2026-06-16 15:55:13.818,1326982,R_Hip,0.0476,0.0132,0.9924,0.28,-1.58,1.79,0.0,0.0,0.0,0.941435,-0.003632,-0.041353,-0.334544,0.0,0.0,0.0,0,0
2026-06-16 15:55:13.818,1327117,L_Ankle,0.0815,0.032,0.9918,5.41,-0.84,-10.29,0.0,0.0,0.0,0.991729,0.017396,-0.055574,-0.114231,0.0,0.0,0.0,0,0
2026-06-16 15:55:13.821,1327002,R_Hip,0.0412,0.0079,0.9789,0.27,-1.58,1.77,-19.23,25.79,-31.45,0.941435,-0.003601,-0.041353,-0.334544,0.0,0.0,0.0,0,0
2026-06-16 15:55:13.821,1327137,L_Ankle,0.0835,0.0315,0.9938,5.41,-0.84,-10.29,-19.2,-5.66,-48.21,0.991729,0.017365,-0.055574,-0.114231,0.0,0.0,0.0,0,0
2026-06-16 15:55:13.823,1327022,R_Hip,0.0402,0.0123,0.9924,0.27,-1.57,1.78,-18.32,26.34,-30.93,0.941435,-0.003601,-0.041353,-0.334544,0.0,0.0,0.0,0,0
2026-06-16 15:55:13.823,1327157,L_Ankle,0.0756,0.0227,0.999,5.4,-0.83,-10.29,-17.63,-5.86,-48.35,0.991729,0.017396,-0.055574,-0.114231,0.0,0.0,0.0,0,0
2026-06-16 15:55:13.824,1326967,R_Ankle,0.0135,-0.0076,1.0072,0.76,-1.74,-0.5,-12.13,31.99,-31.27,0.108921,0.085818,0.029267,0.989898,0.0,0.0,0.0,0,0
2026-06-16 15:55:13.826,1326987,R_Ankle,0.0081,-0.0111,1.0058,0.76,-1.74,-0.49,-11.08,32.61,-29.41,0.108921,0.085818,0.029267,0.989898,0.0,0.0,0.0,0,0
2026-06-16 15:55:13.828,1327007,R_Ankle,0.0155,-0.0166,0.9986,0.77,-1.73,-0.48,0.0,0.0,0.0,0.108921,0.085818,0.029267,0.989898,0.0,0.0,0.0,0,0
2026-06-16 15:55:13.830,1327111,L_Shank,-0.005,-0.0229,0.9849,1.75,-1.19,-0.19,-2.56,16.54,-24.6,0.9729,-0.002747,-0.025666,0.229652,0.0,0.0,0.0,0,0
2026-06-16 15:55:13.831,1327027,R_Ankle,0.0145,-0.0106,1.0038,0.77,-1.72,-0.49,-11.78,32.95,-31.27,0.108921,0.085818,0.029267,0.989898,0.0,0.0,0.0,0,0
2026-06-16 15:55:13.833,1327131,L_Shank,0.0008,-0.0278,0.9863,1.77,-1.18,-0.2,-2.74,16.7,-23.82,0.9729,-0.002747,-0.025666,0.229652,0.0,0.0,0.0,0,0
2026-06-16 15:55:13.834,1327151,L_Shank,-0.0025,-0.0229,0.9887,1.77,-1.2,-0.19,-4.15,16.0,-22.87,0.9729,-0.002716,-0.025666,0.229652,0.0,0.0,0.0,0,0
2026-06-16 15:55:13.836,1327171,L_Shank,0.0033,-0.0248,0.9782,1.77,-1.19,-0.2,0.0,0.0,0.0,0.9729,-0.002716,-0.025666,0.229652,0.0,0.0,0.0,0,0
2026-06-16 15:55:13.838,1327119,L_Ankle,0.0835,0.0339,0.9818,5.41,-0.85,-10.29,-18.17,-5.68,-49.21,0.991729,0.017396,-0.055574,-0.114231,0.0,0.0,0.0,0,0
2026-06-16 15:55:13.840,1327139,L_Ankle,0.0844,0.0227,0.9813,5.38,-0.84,-10.29,0.0,0.0,0.0,0.991729,0.017396,-0.055574,-0.114231,0.0,0.0,0.0,0,0
2026-06-16 15:55:13.841,1326988,R_Hip,0.0466,0.0103,0.9953,0.28,-1.58,1.8,-18.32,26.71,-32.3,0.941435,-0.003601,-0.041353,-0.334544,0.0,0.0,0.0,0,0
2026-06-16 15:55:13.842,1327159,L_Ankle,0.081,0.0178,0.9808,5.39,-0.83,-10.3,-18.14,-6.03,-47.85,0.991729,0.017426,-0.055574,-0.114231,0.0,0.0,0.0,0,0
2026-06-16 15:55:13.843,1327008,R_Hip,0.0407,0.0108,0.9885,0.26,-1.59,1.77,-18.32,27.07,-31.96,0.941435,-0.003601,-0.041353,-0.334544,0.0,0.0,0.0,0,0
2026-06-16 15:55:13.846,1327179,L_Ankle,0.0854,0.0163,0.9933,5.41,-0.83,-10.29,-18.65,-7.26,-48.38,0.991729,0.017426,-0.055574,-0.114231,0.0,0.0,0.0,0,0
2026-06-16 15:55:13.847,1327028,R_Hip,0.0427,0.0054,0.9861,0.28,-1.56,1.77,-19.78,27.08,-33.33,0.941435,-0.003601,-0.041383,-0.334544,0.0,0.0,0.0,0,0
2026-06-16 15:55:13.849,1327048,R_Hip,0.0417,0.0152,1.002,0.26,-1.57,1.78,-18.87,27.26,-31.79,0.941435,-0.003571,-0.041353,-0.334544,0.0,0.0,0.0,0,0
2026-06-16 15:55:13.859,1327141,L_Ankle,0.0746,0.0168,1.0034,5.4,-0.86,-10.3,-18.34,-5.5,-49.05,0.991729,0.017426,-0.055605,-0.114231,0.0,0.0,0.0,0,0
2026-06-16 15:55:13.861,1327161,L_Ankle,0.081,0.0276,1.0,5.39,-0.85,-10.29,0.0,0.0,0.0,0.991729,0.017426,-0.055574,-0.114231,0.0,0.0,0.0,0,0
2026-06-16 15:55:13.863,1327181,L_Ankle,0.0795,0.0188,0.988,5.39,-0.83,-10.29,-18.13,-6.03,-47.51,0.991729,0.017426,-0.055574,-0.114231,0.0,0.0,0.0,0,0
2026-06-16 15:55:13.865,1327201,L_Ankle,0.0869,0.028,0.9942,5.4,-0.85,-10.3,-18.18,-4.97,-49.21,0.991729,0.017396,-0.055574,-0.114231,0.0,0.0,0.0,0,0
2026-06-16 15:55:13.865,1327013,R_Hip,0.0486,0.0079,1.0001,0.26,-1.57,1.8,-17.78,27.26,-33.5,0.941435,-0.003571,-0.041353,-0.334544,0.0,0.0,0.0,0,0
2026-06-16 15:55:13.867,1327033,R_Hip,0.0431,0.0064,0.9881,0.27,-1.58,1.78,-17.59,27.44,-31.96,0.941435,-0.003571,-0.041383,-0.334544,0.0,0.0,0.0,0,0
2026-06-16 15:55:13.869,1327053,R_Hip,0.0456,0.0045,0.9958,0.25,-1.58,1.77,-20.14,27.44,-32.31,0.941435,-0.003571,-0.041383,-0.334544,0.0,0.0,0.0,0,0
2026-06-16 15:55:13.871,1327152,L_Hip,0.118,-0.0769,0.9914,-4.16,4.5,2.97,-5.38,33.24,-25.19,0.994324,-0.033601,-0.068117,-0.07416,0.0,0.0,0.0,0,0
2026-06-16 15:55:13.872,1327073,R_Hip,0.0505,-0.0008,0.9876,0.27,-1.56,1.77,0.0,0.0,0.0,0.941435,-0.003571,-0.041383,-0.334544,0.0,0.0,0.0,0,0
2026-06-16 15:55:13.873,1327172,L_Hip,0.1136,-0.072,0.9866,-4.14,4.51,2.96,0.0,0.0,0.0,0.994324,-0.033601,-0.068117,-0.07416,0.0,0.0,0.0,0,0
2026-06-16 15:55:13.875,1327192,L_Hip,0.1269,-0.0739,0.9929,-4.16,4.51,2.98,-5.74,33.23,-24.02,0.994324,-0.033601,-0.068117,-0.07416,0.0,0.0,0.0,0,0
2026-06-16 15:55:13.878,1327212,L_Hip,0.1215,-0.0646,0.9769,-4.18,4.5,2.96,-6.08,32.58,-24.59,0.994324,-0.033601,-0.068117,-0.07416,0.0,0.0,0.0,0,0
2026-06-16 15:55:13.905,1327186,L_Shank,0.0003,-0.0092,0.9887,1.77,-1.19,-0.19,-3.97,16.86,-23.35,0.9729,-0.002686,-0.025697,0.229652,0.0,0.0,0.0,0,0
2026-06-16 15:55:13.907,1327187,L_Shank,0.0003,-0.018,0.9849,1.75,-1.18,-0.2,-3.09,15.68,-23.81,0.9729,-0.002686,-0.025666,0.229652,0.0,0.0,0.0,0,0
2026-06-16 15:55:13.908,1327207,L_Shank,-0.0025,-0.0146,0.9834,1.75,-1.19,-0.2,0.0,0.0,0.0,0.9729,-0.002686,-0.025666,0.229652,0.0,0.0,0.0,0,0
2026-06-16 15:55:13.910,1327227,L_Shank,-0.0006,-0.0204,0.9868,1.76,-1.19,-0.2,-1.87,16.53,-23.98,0.9729,-0.002716,-0.025666,0.229652,0.0,0.0,0.0,0,0
2026-06-16 15:55:13.913,1327060,R_Shank,0.0399,2.4984,1.0008,-0.09,-1.46,-8.43,-10.89,26.83,-21.89,0.901242,0.036317,-0.017365,0.43141,0.0,0.0,0.0,0,0
2026-06-16 15:55:13.914,1327196,L_Hip,0.1141,-0.0813,0.9861,-4.16,4.5,2.97,-5.22,32.76,-25.04,0.994324,-0.03357,-0.068117,-0.07416,0.0,0.0,0.0,0,0
2026-06-16 15:55:13.915,1327080,R_Shank,0.035,2.1096,1.0205,-0.09,-1.47,-8.43,0.0,0.0,0.0,0.901242,0.036317,-0.017396,0.43141,0.0,0.0,0.0,0,0
2026-06-16 15:55:13.916,1327216,L_Hip,0.1156,-0.0725,0.9822,-4.16,4.51,2.96,0.0,0.0,0.0,0.994324,-0.03357,-0.068148,-0.07416,0.0,0.0,0.0,0,0
2026-06-16 15:55:13.918,1327100,R_Shank,0.0399,2.3688,0.9956,-0.09,-1.46,-8.43,-10.02,25.65,-22.36,0.901242,0.036317,-0.017396,0.43141,0.0,0.0,0.0,0,0
2026-06-16 15:55:13.920,1327236,L_Hip,0.122,-0.0754,0.9822,-4.16,4.51,2.96,-4.73,33.25,-24.04,0.994324,-0.03357,-0.068117,-0.07416,0.0,0.0,0.0,0,0
2026-06-16 15:55:13.921,1327120,R_Shank,0.0404,0.5684,1.0018,-0.09,-1.45,-8.42,-10.2,26.48,-22.5,0.901242,0.036317,-0.017396,0.43141,0.0,0.0,0.0,0,0
2026-06-16 15:55:13.922,1327256,L_Hip,0.1225,-0.0636,0.9904,-4.16,4.51,2.96,-5.39,32.6,-25.19,0.994324,-0.03357,-0.068117,-0.07416,0.0,0.0,0.0,0,0
2026-06-16 15:55:13.924,1327062,R_Hip,0.0456,0.0074,0.9856,0.25,-1.58,1.78,-20.15,27.44,-32.99,0.941435,-0.003571,-0.041383,-0.334544,0.0,0.0,0.0,0,0
2026-06-16 15:55:13.926,1327082,R_Hip,0.0382,0.0093,0.99,0.27,-1.57,1.77,-18.5,26.52,-31.79,0.941435,-0.003571,-0.041383,-0.334544,0.0,0.0,0.0,0,0
2026-06-16 15:55:13.927,1327209,L_Ankle,0.0761,0.0149,0.9966,5.4,-0.84,-10.29,-18.33,-5.14,-47.68,0.991729,0.017396,-0.055574,-0.114231,0.0,0.0,0.0,0,0
2026-06-16 15:55:13.928,1327102,R_Hip,0.051,0.0064,0.9842,0.27,-1.58,1.77,-18.69,27.08,-32.65,0.941435,-0.003571,-0.041383,-0.334544,0.0,0.0,0.0,0,0
2026-06-16 15:55:13.929,1327229,L_Ankle,0.0781,0.0364,0.977,5.39,-0.86,-10.3,0.0,0.0,0.0,0.991729,0.017365,-0.055544,-0.114231,0.0,0.0,0.0,0,0
2026-06-16 15:55:13.931,1327122,R_Hip,0.0441,0.0181,0.9847,0.26,-1.58,1.77,0.0,0.0,0.0,0.941435,-0.003571,-0.041383,-0.334544,0.0,0.0,0.0,0,0
2026-06-16 15:55:13.932,1327249,L_Ankle,0.0835,0.0241,0.976,5.41,-0.84,-10.3,-18.16,-6.39,-49.22,0.991729,0.017365,-0.055574,-0.114231,0.0,0.0,0.0,0,0
2026-06-16 15:55:13.933,1327080,R_Ankle,0.0111,-0.0101,1.0062,0.76,-1.73,-0.48,-10.91,33.09,-29.57,0.108921,0.085818,0.029237,0.989898,0.0,0.0,0.0,0,0
2026-06-16 15:55:13.934,1327269,L_Ankle,0.0815,0.0334,1.0034,5.41,-0.84,-10.29,-18.85,-5.31,-47.86,0.991729,0.017396,-0.055574,-0.114231,0.0,0.0,0.0,0,0
2026-06-16 15:55:13.936,1327100,R_Ankle,0.015,-0.0086,1.011,0.76,-1.74,-0.5,-12.62,32.45,-30.2,0.108921,0.085818,0.029237,0.989898,0.0,0.0,0.0,0,0
2026-06-16 15:55:13.937,1327219,L_Hip,0.122,-0.0739,0.9851,-4.15,4.5,2.96,-6.76,33.21,-23.71,0.994324,-0.03354,-0.068148,-0.07416,0.0,0.0,0.0,0,0
2026-06-16 15:55:13.938,1327120,R_Ankle,0.0135,-0.0161,1.012,0.76,-1.74,-0.51,-11.76,32.93,-29.73,0.108921,0.085818,0.029237,0.989898,0.0,0.0,0.0,0,0
2026-06-16 15:55:13.939,1327239,L_Hip,0.1215,-0.0715,0.9875,-4.15,4.51,2.96,-5.76,32.27,-24.02,0.994324,-0.03354,-0.068148,-0.07416,0.0,0.0,0.0,0,0
2026-06-16 15:55:13.940,1327140,R_Ankle,0.0145,-0.0116,0.999,0.75,-1.72,-0.51,-11.94,32.45,-29.88,0.108921,0.085818,0.029206,0.989898,0.0,0.0,0.0,0,0
2026-06-16 15:55:13.942,1327259,L_Hip,0.1161,-0.0715,0.9875,-4.16,4.51,2.96,0.0,0.0,0.0,0.994324,-0.03354,-0.068148,-0.07416,0.0,0.0,0.0,0,0
2026-06-16 15:55:13.943,1327087,R_Hip,0.0377,0.0132,0.99,0.26,-1.58,1.79,-18.32,28.17,-32.31,0.941435,-0.003571,-0.041383,-0.334574,0.0,0.0,0.0,0,0
2026-06-16 15:55:13.944,1327279,L_Hip,0.1259,-0.0828,0.9919,-4.16,4.5,2.98,-5.23,32.76,-24.75,0.994324,-0.03354,-0.068148,-0.07416,0.0,0.0,0.0,0,0
2026-06-16 15:55:13.945,1327107,R_Hip,0.0402,0.0059,0.9914,0.27,-1.58,1.77,-17.41,27.99,-32.47,0.941435,-0.00354,-0.041414,-0.334544,0.0,0.0,0.0,0,0
2026-06-16 15:55:13.947,1327127,R_Hip,0.0505,0.0108,0.9991,0.27,-1.55,1.79,-17.96,29.27,-31.97,0.941435,-0.00354,-0.041383,-0.334544,0.0,0.0,0.0,0,0
2026-06-16 15:55:13.949,1327147,R_Hip,0.0412,0.002,0.9885,0.26,-1.58,1.78,0.0,0.0,0.0,0.941435,-0.00354,-0.041414,-0.334544,0.0,0.0,0.0,0,0
2026-06-16 15:55:13.959,1327241,L_Hip,0.119,-0.0759,0.989,-4.16,4.5,2.97,-4.93,31.15,-24.46,0.994324,-0.03354,-0.068148,-0.07416,0.0,0.0,0.0,0,0
2026-06-16 15:55:13.961,1327261,L_Hip,0.119,-0.071,0.9861,-4.16,4.51,2.97,-7.09,32.89,-24.58,0.994324,-0.03354,-0.068148,-0.07416,0.0,0.0,0.0,0,0
2026-06-16 15:55:13.963,1327281,L_Hip,0.1161,-0.0754,0.9885,-4.17,4.51,2.96,0.0,0.0,0.0,0.994324,-0.033509,-0.068178,-0.07416,0.0,0.0,0.0,0,0
2026-06-16 15:55:13.965,1327112,R_Hip,0.0412,0.0074,0.9962,0.26,-1.58,1.79,-19.05,28.9,-31.97,0.941435,-0.003571,-0.041383,-0.334544,0.0,0.0,0.0,0,0
2026-06-16 15:55:13.966,1327301,L_Hip,0.1195,-0.0661,0.9827,-4.16,4.51,2.98,-6.1,32.26,-23.72,0.994324,-0.033509,-0.068178,-0.07416,0.0,0.0,0.0,0,0
2026-06-16 15:55:13.968,1327132,R_Hip,0.0481,0.0059,0.9861,0.26,-1.57,1.78,-17.05,26.89,-33.5,0.941435,-0.00354,-0.041414,-0.334544,0.0,0.0,0.0,0,0
2026-06-16 15:55:13.970,1327152,R_Hip,0.0427,0.004,0.9953,0.25,-1.58,1.77,-18.5,27.99,-32.13,0.941435,-0.00354,-0.041414,-0.334544,0.0,0.0,0.0,0,0
2026-06-16 15:55:13.972,1327172,R_Hip,0.0382,-0.0023,0.9905,0.27,-1.58,1.78,0.0,0.0,0.0,0.941435,-0.00354,-0.041414,-0.334544,0.0,0.0,0.0,0,0
2026-06-16 15:55:13.978,1327125,R_Ankle,0.0091,-0.0141,0.9943,0.76,-1.73,-0.49,-12.78,33.88,-30.37,0.108921,0.085788,0.029206,0.989898,0.0,0.0,0.0,0,0
2026-06-16 15:55:13.980,1327145,R_Ankle,0.013,-0.0111,1.0081,0.77,-1.73,-0.49,0.0,0.0,0.0,0.108921,0.085788,0.029206,0.989898,0.0,0.0,0.0,0,0
2026-06-16 15:55:13.981,1327262,L_Shank,-0.0025,-0.0102,0.9978,1.76,-1.19,-0.21,-1.87,15.51,-24.28,0.9729,-0.002686,-0.025666,0.229652,0.0,0.0,0.0,0,0
2026-06-16 15:55:13.982,1327165,R_Ankle,0.0116,-0.0081,0.9957,0.76,-1.72,-0.48,-12.77,32.27,-28.5,0.108921,0.085788,0.029206,0.989898,0.0,0.0,0.0,0,0
2026-06-16 15:55:13.983,1327282,L_Shank,0.0047,-0.0317,0.9921,1.76,-1.21,-0.2,-4.15,16.69,-23.19,0.9729,-0.002716,-0.025636,0.229652,0.0,0.0,0.0,0,0
2026-06-16 15:55:13.984,1327185,R_Ankle,0.0081,-0.0081,1.0105,0.75,-1.72,-0.5,0.0,0.0,0.0,0.108921,0.085788,0.029206,0.989898,0.0,0.0,0.0,0,0
2026-06-16 15:55:13.985,1327302,L_Shank,0.0067,-0.017,0.9791,1.77,-1.19,-0.19,0.0,0.0,0.0,0.9729,-0.002747,-0.025666,0.229652,0.0,0.0,0.0,0,0
2026-06-16 15:55:13.987,1327127,R_Shank,0.0375,-1.7432,1.0244,-0.09,-1.46,-8.42,-12.04,26.35,-23.24,0.901242,0.036317,-0.017396,0.43141,0.0,0.0,0.0,0,0
2026-06-16 15:55:13.987,1327322,L_Shank,-0.0069,-0.0195,0.9873,1.75,-1.19,-0.2,-3.27,15.16,-23.33,0.9729,-0.002747,-0.025666,0.229652,0.0,0.0,0.0,0,0
2026-06-16 15:55:13.988,1327147,R_Shank,0.0389,1.5984,1.022,-0.07,-1.47,-8.42,0.0,0.0,0.0,0.901242,0.036317,-0.017365,0.43141,0.0,0.0,0.0,0,0
2026-06-16 15:55:13.990,1327264,L_Hip,0.1146,-0.0656,0.9909,-4.16,4.51,2.96,-6.41,32.26,-25.17,0.994324,-0.033509,-0.068178,-0.07416,0.0,0.0,0.0,0,0
2026-06-16 15:55:13.991,1327167,R_Shank,0.0399,-0.9728,1.0056,-0.09,-1.47,-8.42,-11.88,25.86,-21.89,0.901242,0.036317,-0.017365,0.43141,0.0,0.0,0.0,0,0
2026-06-16 15:55:13.992,1327284,L_Hip,0.122,-0.0735,0.9953,-4.16,4.49,2.96,-6.22,33.39,-25.03,0.994324,-0.033509,-0.068178,-0.07416,0.0,0.0,0.0,0,0
2026-06-16 15:55:13.994,1327187,R_Shank,0.035,0.8276,1.0047,-0.08,-1.47,-8.44,-10.71,26.0,-21.44,0.901242,0.036317,-0.017396,0.43141,0.0,0.0,0.0,0,0
2026-06-16 15:55:13.994,1327304,L_Hip,0.1205,-0.0631,0.9822,-4.16,4.5,2.98,0.0,0.0,0.0,0.994324,-0.033509,-0.068178,-0.07416,0.0,0.0,0.0,0,0
2026-06-16 15:55:13.996,1327137,R_Hip,0.0451,0.0015,0.989,0.27,-1.56,1.78,-18.5,27.62,-31.79,0.941435,-0.003571,-0.041414,-0.334544,0.0,0.0,0.0,0,0
2026-06-16 15:55:13.997,1327324,L_Hip,0.1195,-0.0759,0.9948,-4.16,4.5,2.97,-6.57,33.38,-24.73,0.994324,-0.033509,-0.068178,-0.07416,0.0,0.0,0.0,0,0
2026-06-16 15:55:13.998,1327157,R_Hip,0.0427,0.0118,0.99,0.27,-1.57,1.78,-19.6,26.53,-33.16,0.941435,-0.00354,-0.041383,-0.334544,0.0,0.0,0.0,0,0
2026-06-16 15:55:13.999,1327276,L_Ankle,0.0776,0.0251,0.9957,5.39,-0.85,-10.29,-17.11,-4.63,-47.49,0.991729,0.017396,-0.055544,-0.114231,0.0,0.0,0.0,0,0
2026-06-16 15:55:14.000,1327177,R_Hip,0.0431,0.0045,1.0025,0.27,-1.57,1.79,-18.87,26.53,-32.13,0.941435,-0.00354,-0.041383,-0.334544,0.0,0.0,0.0,0,0
2026-06-16 15:55:14.001,1327296,L_Ankle,0.0771,0.0266,0.9957,5.39,-0.84,-10.29,0.0,0.0,0.0,0.991729,0.017396,-0.055574,-0.114231,0.0,0.0,0.0,0,0
2026-06-16 15:55:14.002,1327197,R_Hip,0.0382,0.0171,0.9909,0.27,-1.58,1.77,0.0,0.0,0.0,0.941435,-0.003571,-0.041383,-0.334544,0.0,0.0,0.0,0,0
2026-06-16 15:55:14.003,1327316,L_Ankle,0.0864,0.0197,0.9966,5.41,-0.84,-10.27,-19.06,-4.78,-49.06,0.991729,0.017426,-0.055605,-0.114231,0.0,0.0,0.0,0,0
2026-06-16 15:55:14.004,1327148,R_Ankle,0.0135,-0.0141,1.0134,0.76,-1.74,-0.48,-13.66,31.82,-31.13,0.108921,0.085788,0.029206,0.989898,0.0,0.0,0.0,0,0
2026-06-16 15:55:14.005,1327336,L_Ankle,0.0835,0.0251,0.9894,5.41,-0.84,-10.29,-18.48,-6.02,-47.52,0.991729,0.017426,-0.055605,-0.114231,0.0,0.0,0.0,0,0
2026-06-16 15:55:14.006,1327168,R_Ankle,0.014,-0.0156,0.9947,0.76,-1.72,-0.49,-11.6,33.42,-31.12,0.108921,0.085788,0.029206,0.989898,0.0,0.0,0.0,0,0
2026-06-16 15:55:14.008,1327188,R_Ankle,0.0116,-0.0131,0.9995,0.76,-1.73,-0.49,0.0,0.0,0.0,0.108921,0.085788,0.029206,0.989898,0.0,0.0,0.0,0,0
2026-06-16 15:55:14.010,1327208,R_Ankle,0.015,-0.0106,1.0201,0.77,-1.72,-0.48,-13.29,33.07,-29.6,0.108921,0.085788,0.029206,0.989898,0.0,0.0,0.0,0,0
2026-06-16 15:55:14.011,1327149,R_Shank,0.0473,-1.1024,1.0052,-0.09,-1.48,-8.42,-10.19,26.48,-23.41,0.901242,0.036317,-0.017396,0.43141,0.0,0.0,0.0,0,0
2026-06-16 15:55:14.013,1327169,R_Shank,0.033,0.8276,1.0056,-0.09,-1.46,-8.41,0.0,0.0,0.0,0.901242,0.036317,-0.017396,0.431379,0.0,0.0,0.0,0,0
2026-06-16 15:55:14.014,1327189,R_Shank,0.0394,1.4688,1.0028,-0.08,-1.47,-8.41,-11.91,27.18,-21.88,0.901242,0.036317,-0.017396,0.43141,0.0,0.0,0.0,0,0
2026-06-16 15:55:14.016,1327209,R_Shank,0.0399,-1.1024,1.0037,-0.09,-1.47,-8.42,-11.21,26.18,-21.89,0.901242,0.036317,-0.017396,0.43141,0.0,0.0,0.0,0,0
2026-06-16 15:55:14.029,1327311,L_Shank,0.0003,-0.017,0.9954,1.77,-1.19,-0.2,-2.05,17.03,-23.21,0.9729,-0.002747,-0.025697,0.229652,0.0,0.0,0.0,0,0
2026-06-16 15:55:14.030,1327331,L_Shank,-0.0103,-0.02,0.994,1.77,-1.19,-0.2,-2.03,15.35,-25.06,0.9729,-0.002747,-0.025666,0.229652,0.0,0.0,0.0,0,0
2026-06-16 15:55:14.032,1327312,L_Shank,0.0052,-0.0293,1.0017,1.77,-1.19,-0.19,0.0,0.0,0.0,0.9729,-0.002716,-0.025666,0.229652,0.0,0.0,0.0,0,0
2026-06-16 15:55:14.033,1327332,L_Shank,0.0052,-0.0141,0.982,1.77,-1.2,-0.19,-2.21,15.86,-24.59,0.9729,-0.002716,-0.025636,0.229652,0.0,0.0,0.0,0,0
2026-06-16 15:55:14.039,1327187,R_Hip,0.052,0.0171,1.0006,0.27,-1.57,1.78,-17.96,27.44,-32.3,0.941435,-0.00354,-0.041414,-0.334544,0.0,0.0,0.0,0,0
2026-06-16 15:55:14.040,1327322,L_Ankle,0.0874,0.0207,0.9803,5.41,-0.86,-10.3,-20.25,-5.64,-48.23,0.991729,0.017396,-0.055605,-0.114231,0.0,0.0,0.0,0,0
2026-06-16 15:55:14.041,1327342,L_Ankle,0.0815,0.031,0.9952,5.41,-0.85,-10.29,0.0,0.0,0.0,0.991729,0.017396,-0.055605,-0.114231,0.0,0.0,0.0,0,0
2026-06-16 15:55:14.042,1327207,R_Hip,0.0412,0.0132,0.9996,0.26,-1.57,1.77,-17.77,28.72,-31.45,0.941435,-0.00354,-0.041414,-0.334513,0.0,0.0,0.0,0,0
2026-06-16 15:55:14.043,1327362,L_Ankle,0.0756,0.0285,0.9981,5.4,-0.84,-10.29,-18.32,-5.14,-47.34,0.991729,0.017426,-0.055605,-0.114231,0.0,0.0,0.0,0,0
2026-06-16 15:55:14.044,1327227,R_Hip,0.0525,-0.0003,0.9828,0.27,-1.56,1.77,-19.23,26.16,-32.47,0.941435,-0.00354,-0.041414,-0.334544,0.0,0.0,0.0,0,0
2026-06-16 15:55:14.045,1327382,L_Ankle,0.0756,0.0261,0.9856,5.4,-0.84,-10.29,-18.67,-5.13,-47.35,0.991729,0.017426,-0.055605,-0.114231,0.0,0.0,0.0,0,0
2026-06-16 15:55:14.046,1327247,R_Hip,0.0505,0.0059,0.9871,0.26,-1.58,1.78,0.0,0.0,0.0,0.941435,-0.00354,-0.041414,-0.334544,0.0,0.0,0.0,0,0
2026-06-16 15:55:14.047,1327193,R_Ankle,0.0199,-0.0151,1.001,0.77,-1.72,-0.49,-12.96,32.44,-29.89,0.10889,0.085788,0.029206,0.989898,0.0,0.0,0.0,0,0
2026-06-16 15:55:14.049,1327213,R_Ankle,0.014,-0.0047,1.0091,0.76,-1.74,-0.48,-11.93,32.45,-29.58,0.10889,0.085757,0.029206,0.989898,0.0,0.0,0.0,0,0
2026-06-16 15:55:14.051,1327233,R_Ankle,0.0155,-0.0067,1.0081,0.75,-1.74,-0.49,-12.45,32.93,-30.05,0.10889,0.085788,0.029206,0.989898,0.0,0.0,0.0,0,0
2026-06-16 15:55:14.052,1327253,R_Ankle,0.0135,-0.0096,1.012,0.76,-1.73,-0.5,0.0,0.0,0.0,0.10889,0.085788,0.029237,0.989898,0.0,0.0,0.0,0,0
2026-06-16 15:55:14.054,1327336,L_Shank,-0.0001,-0.0229,0.9921,1.76,-1.18,-0.22,-4.14,15.35,-24.41,0.9729,-0.002747,-0.025636,0.229652,0.0,0.0,0.0,0,0
2026-06-16 15:55:14.055,1327194,R_Shank,0.0409,-2.3844,1.0037,-0.08,-1.48,-8.42,-11.56,26.84,-22.18,0.901242,0.036317,-0.017396,0.43141,0.0,0.0,0.0,0,0
2026-06-16 15:55:14.056,1327356,L_Shank,-0.0025,-0.0165,0.9935,1.76,-1.19,-0.21,-3.27,14.83,-23.64,0.97293,-0.002716,-0.025636,0.229621,0.0,0.0,0.0,0,0
2026-06-16 15:55:14.057,1327214,R_Shank,0.0463,-1.8728,1.0157,-0.09,-1.46,-8.41,0.0,0.0,0.0,0.901242,0.036317,-0.017396,0.43141,0.0,0.0,0.0,0,0
2026-06-16 15:55:14.058,1327376,L_Shank,-0.0045,-0.0151,0.9916,1.77,-1.18,-0.19,0.0,0.0,0.0,0.97293,-0.002716,-0.025666,0.229621,0.0,0.0,0.0,0,0
2026-06-16 15:55:14.059,1327234,R_Shank,0.0434,-2.6436,1.0047,-0.08,-1.46,-8.42,-13.57,26.54,-23.07,0.901242,0.036317,-0.017426,0.43141,0.0,0.0,0.0,0,0
2026-06-16 15:55:14.060,1327396,L_Shank,0.0057,-0.0219,0.9806,1.77,-1.19,-0.2,-3.79,15.68,-23.8,0.97293,-0.002716,-0.025666,0.229621,0.0,0.0,0.0,0,0
2026-06-16 15:55:14.061,1327254,R_Shank,0.0365,2.1096,0.9975,-0.09,-1.46,-8.42,-11.04,26.33,-22.64,0.901242,0.036317,-0.017426,0.43141,0.0,0.0,0.0,0,0
2026-06-16 15:55:14.062,1327344,L_Ankle,0.08,0.0266,0.9894,5.41,-0.85,-10.29,-17.96,-6.21,-47.68,0.991729,0.017426,-0.055635,-0.114231,0.0,0.0,0.0,0,0
2026-06-16 15:55:14.064,1327212,R_Hip,0.0402,0.0167,0.989,0.27,-1.56,1.78,-19.6,27.62,-32.82,0.941435,-0.00354,-0.041444,-0.334544,0.0,0.0,0.0,0,0
2026-06-16 15:55:14.065,1327364,L_Ankle,0.0766,0.0271,1.0034,5.4,-0.84,-10.29,-18.32,-5.49,-47.69,0.991729,0.017457,-0.055635,-0.114231,0.0,0.0,0.0,0,0
2026-06-16 15:55:14.067,1327384,L_Ankle,0.0722,0.0266,0.9914,5.41,-0.85,-10.29,0.0,0.0,0.0,0.991729,0.017457,-0.055635,-0.114231,0.0,0.0,0.0,0,0
2026-06-16 15:55:14.067,1327232,R_Hip,0.0441,0.0098,0.9861,0.29,-1.58,1.77,-19.96,26.89,-32.82,0.941435,-0.003571,-0.041444,-0.334544,0.0,0.0,0.0,0,0
2026-06-16 15:55:14.069,1327404,L_Ankle,0.0815,0.0178,0.987,5.4,-0.85,-10.29,-19.73,-5.47,-48.05,0.991729,0.017457,-0.055666,-0.114231,0.0,0.0,0.0,0,0
2026-06-16 15:55:14.069,1327252,R_Hip,0.0481,0.0142,0.989,0.26,-1.57,1.77,-19.05,28.54,-33.33,0.941435,-0.00354,-0.041444,-0.334544,0.0,0.0,0.0,0,0
2026-06-16 15:55:14.071,1327272,R_Hip,0.0372,0.0098,0.9789,0.27,-1.57,1.79,0.0,0.0,0.0,0.941435,-0.00351,-0.041444,-0.334544,0.0,0.0,0.0,0,0
2026-06-16 15:55:14.072,1327354,L_Hip,0.1205,-0.073,0.9822,-4.16,4.5,2.97,-5.92,32.75,-23.87,0.994324,-0.03354,-0.068178,-0.07416,0.0,0.0,0.0,0,0
2026-06-16 15:55:14.074,1327215,R_Ankle,0.0077,-0.0096,1.0062,0.76,-1.74,-0.49,-12.77,32.27,-28.5,0.10889,0.085818,0.029237,0.989898,0.0,0.0,0.0,0,0
2026-06-16 15:55:14.074,1327374,L_Hip,0.1205,-0.0744,0.9929,-4.16,4.5,2.97,-5.23,33.08,-24.17,0.994324,-0.03354,-0.068178,-0.07416,0.0,0.0,0.0,0,0
2026-06-16 15:55:14.076,1327394,L_Hip,0.1092,-0.0681,0.9837,-4.16,4.5,2.97,0.0,0.0,0.0,0.994324,-0.033509,-0.068178,-0.07416,0.0,0.0,0.0,0,0
2026-06-16 15:55:14.076,1327235,R_Ankle,0.0155,-0.0072,0.9986,0.76,-1.71,-0.48,-11.95,31.82,-30.49,0.10889,0.085818,0.029237,0.989898,0.0,0.0,0.0,0,0
2026-06-16 15:55:14.078,1327414,L_Hip,0.1176,-0.073,0.9793,-4.17,4.51,2.98,-4.25,31.81,-24.18,0.994324,-0.033509,-0.068209,-0.07416,0.0,0.0,0.0,0,0
2026-06-16 15:55:14.078,1327255,R_Ankle,0.0121,-0.0141,1.0,0.75,-1.74,-0.49,-12.11,31.97,-29.42,0.10889,0.085788,0.029237,0.989898,0.0,0.0,0.0,0,0
2026-06-16 15:55:14.080,1327361,L_Shank,0.0047,-0.0156,0.9849,1.75,-1.19,-0.2,-3.08,14.68,-25.04,0.97293,-0.002716,-0.025666,0.229621,0.0,0.0,0.0,0,0
2026-06-16 15:55:14.080,1327275,R_Ankle,0.0155,-0.0156,1.0038,0.76,-1.73,-0.51,0.0,0.0,0.0,0.10889,0.085788,0.029206,0.989898,0.0,0.0,0.0,0,0
2026-06-16 15:55:14.082,1327381,L_Shank,0.0052,-0.0307,0.9834,1.77,-1.2,-0.2,-2.75,15.67,-23.5,0.97293,-0.002716,-0.025697,0.229621,0.0,0.0,0.0,0,0
2026-06-16 15:55:14.083,1327401,L_Shank,0.0008,-0.018,0.9906,1.76,-1.19,-0.19,0.0,0.0,0.0,0.97293,-0.002716,-0.025697,0.229621,0.0,0.0,0.0,0,0
2026-06-16 15:55:14.085,1327421,L_Shank,-0.0054,-0.0141,1.0074,1.77,-1.19,-0.19,-2.74,14.67,-24.42,0.9729,-0.002686,-0.025697,0.229621,0.0,0.0,0.0,0,0
2026-06-16 15:55:14.087,1327366,L_Ankle,0.0825,0.0271,0.9938,5.39,-0.83,-10.29,-18.65,-5.84,-47.01,0.991729,0.017487,-0.055635,-0.114231,0.0,0.0,0.0,0,0
2026-06-16 15:55:14.088,1327386,L_Ankle,0.0756,0.0276,0.9957,5.39,-0.85,-10.29,-18.66,-5.84,-47.35,0.991729,0.017487,-0.055635,-0.114231,0.0,0.0,0.0,0,0
2026-06-16 15:55:14.090,1327406,L_Ankle,0.0805,0.0202,0.9976,5.4,-0.83,-10.3,0.0,0.0,0.0,0.991729,0.017487,-0.055635,-0.114231,0.0,0.0,0.0,0,0
2026-06-16 15:55:14.092,1327426,L_Ankle,0.08,0.0217,0.9957,5.41,-0.84,-10.3,-17.96,-5.85,-47.34,0.991729,0.017487,-0.055635,-0.114231,0.0,0.0,0.0,0,0
2026-06-16 15:55:14.092,1327240,R_Shank,0.0409,1.4688,1.0061,-0.09,-1.46,-8.44,-12.4,26.69,-22.33,0.901242,0.036378,-0.017426,0.43141,0.0,0.0,0.0,0,0
2026-06-16 15:55:14.094,1327376,L_Hip,0.1229,-0.0725,0.987,-4.16,4.51,2.97,-6.72,33.86,-25.17,0.994324,-0.033509,-0.068209,-0.07416,0.0,0.0,0.0,0,0
2026-06-16 15:55:14.094,1327260,R_Shank,0.0326,-0.3316,0.9903,-0.09,-1.45,-8.43,-10.53,25.83,-21.9,0.901242,0.036378,-0.017396,0.43141,0.0,0.0,0.0,0,0
2026-06-16 15:55:14.096,1327396,L_Hip,0.12,-0.072,0.9837,-4.15,4.51,2.97,-6.76,32.57,-24.29,0.994324,-0.033509,-0.068178,-0.07416,0.0,0.0,0.0,0,0
2026-06-16 15:55:14.097,1327280,R_Shank,0.0375,-0.7136,1.0066,-0.09,-1.47,-8.42,-11.55,26.51,-22.19,0.901242,0.036378,-0.017396,0.431379,0.0,0.0,0.0,0,0
2026-06-16 15:55:14.098,1327416,L_Hip,0.1229,-0.0744,0.9875,-4.16,4.51,2.96,0.0,0.0,0.0,0.994324,-0.033509,-0.068209,-0.07416,0.0,0.0,0.0,0,0
2026-06-16 15:55:14.099,1327300,R_Shank,0.0321,0.698,0.9999,-0.09,-1.45,-8.43,0.0,0.0,0.0,0.901242,0.036348,-0.017396,0.43141,0.0,0.0,0.0,0,0
2026-06-16 15:55:14.100,1327436,L_Hip,0.1225,-0.0749,0.9904,-4.16,4.51,2.98,-5.74,32.59,-24.89,0.994324,-0.033479,-0.068178,-0.07416,0.0,0.0,0.0,0,0
2026-06-16 15:55:14.104,1327387,L_Shank,-0.003,-0.0219,0.9815,1.77,-1.19,-0.2,-3.62,16.52,-23.66,0.97293,-0.002686,-0.025697,0.229621,0.0,0.0,0.0,0,0
2026-06-16 15:55:14.106,1327407,L_Shank,0.0033,-0.019,1.0007,1.77,-1.19,-0.2,-3.97,15.16,-23.01,0.97293,-0.002716,-0.025697,0.229621,0.0,0.0,0.0,0,0
2026-06-16 15:55:14.108,1327427,L_Shank,0.0042,-0.0185,0.9801,1.77,-1.19,-0.2,-3.11,16.0,-22.56,0.97293,-0.002686,-0.025666,0.229621,0.0,0.0,0.0,0,0
2026-06-16 15:55:14.109,1327447,L_Shank,0.0067,-0.0219,0.9834,1.76,-1.19,-0.2,0.0,0.0,0.0,0.97293,-0.002716,-0.025666,0.229621,0.0,0.0,0.0,0,0
2026-06-16 15:55:14.111,1327389,L_Ankle,0.0903,0.0241,0.9981,5.39,-0.83,-10.29,-17.99,-4.79,-48.02,0.991729,0.017487,-0.055635,-0.114231,0.0,0.0,0.0,0,0
2026-06-16 15:55:14.112,1327260,R_Ankle,0.017,-0.0111,1.001,0.77,-1.73,-0.49,-12.11,31.98,-30.03,0.108921,0.085757,0.029237,0.989898,0.0,0.0,0.0,0,0
2026-06-16 15:55:14.113,1327409,L_Ankle,0.0805,0.0364,0.9976,5.41,-0.83,-10.29,-18.31,-6.56,-48.03,0.991729,0.017457,-0.055635,-0.114231,0.0,0.0,0.0,0,0
2026-06-16 15:55:14.115,1327280,R_Ankle,0.0057,-0.0081,1.0038,0.77,-1.74,-0.5,-11.94,32.46,-30.19,0.108921,0.085788,0.029237,0.989898,0.0,0.0,0.0,0,0
2026-06-16 15:55:14.115,1327429,L_Ankle,0.0815,0.0251,0.9981,5.41,-0.86,-10.3,0.0,0.0,0.0,0.991729,0.017457,-0.055605,-0.114231,0.0,0.0,0.0,0,0
2026-06-16 15:55:14.117,1327300,R_Ankle,0.0077,-0.019,0.9904,0.77,-1.73,-0.48,-12.28,31.81,-29.88,0.10889,0.085788,0.029267,0.989898,0.0,0.0,0.0,0,0
2026-06-16 15:55:14.117,1327449,L_Ankle,0.083,0.0197,0.9909,5.41,-0.84,-10.28,-18.68,-5.13,-47.69,0.991729,0.017426,-0.055605,-0.114231,0.0,0.0,0.0,0,0
2026-06-16 15:55:14.119,1327320,R_Ankle,0.0101,-0.0151,1.0038,0.76,-1.72,-0.48,-11.94,33.41,-30.51,0.10889,0.085788,0.029237,0.989898,0.0,0.0,0.0,0,0
2026-06-16 15:55:14.120,1327399,L_Hip,0.1195,-0.0739,0.9929,-4.15,4.51,2.97,-4.87,33.41,-25.05,0.994324,-0.033509,-0.068178,-0.07416,0.0,0.0,0.0,0,0
2026-06-16 15:55:14.121,1327262,R_Hip,0.0486,0.0074,0.9962,0.27,-1.58,1.77,-18.69,27.08,-34.01,0.941435,-0.00351,-0.041444,-0.334544,0.0,0.0,0.0,0,0
2026-06-16 15:55:14.122,1327419,L_Hip,0.1185,-0.072,0.9909,-4.16,4.5,2.96,-5.73,32.92,-25.18,0.994324,-0.033509,-0.068178,-0.07416,0.0,0.0,0.0,0,0
2026-06-16 15:55:14.123,1327282,R_Hip,0.0481,0.0079,0.9909,0.26,-1.58,1.77,-17.96,27.07,-31.96,0.941435,-0.00351,-0.041444,-0.334544,0.0,0.0,0.0,0,0
2026-06-16 15:55:14.124,1327439,L_Hip,0.1151,-0.0715,0.9822,-4.15,4.51,2.96,-4.88,33.09,-25.05,0.994324,-0.033509,-0.068178,-0.07416,0.0,0.0,0.0,0,0
2026-06-16 15:55:14.126,1327302,R_Hip,0.0436,0.003,0.99,0.28,-1.58,1.79,-17.96,26.71,-33.33,0.941435,-0.00351,-0.041444,-0.334544,0.0,0.0,0.0,0,0
2026-06-16 15:55:14.126,1327459,L_Hip,0.1274,-0.0749,0.9841,-4.15,4.52,2.97,0.0,0.0,0.0,0.994324,-0.033509,-0.068178,-0.07416,0.0,0.0,0.0,0,0
2026-06-16 15:55:14.127,1327322,R_Hip,0.0427,0.0064,0.9905,0.25,-1.57,1.78,0.0,0.0,0.0,0.941435,-0.00351,-0.041475,-0.334544,0.0,0.0,0.0,0,0
2026-06-16 15:55:14.137,1327285,R_Shank,0.0424,-2.7732,1.0008,-0.09,-1.48,-8.42,-9.52,26.14,-22.81,0.901242,0.036348,-0.017365,0.43141,0.0,0.0,0.0,0,0
2026-06-16 15:55:14.139,1327305,R_Shank,0.0316,2.2392,1.0196,-0.1,-1.45,-8.43,-11.91,27.83,-23.08,0.901242,0.036348,-0.017365,0.43141,0.0,0.0,0.0,0,0
2026-06-16 15:55:14.139,1327421,L_Hip,0.1146,-0.0754,0.9943,-4.16,4.5,2.96,-4.9,32.12,-24.76,0.994324,-0.033509,-0.068209,-0.07416,0.0,0.0,0.0,0,0
2026-06-16 15:55:14.141,1327325,R_Shank,0.0438,2.2392,1.009,-0.09,-1.47,-8.44,0.0,0.0,0.0,0.901242,0.036348,-0.017365,0.43141,0.0,0.0,0.0,0,0
2026-06-16 15:55:14.142,1327422,L_Hip,0.119,-0.0744,1.005,-4.17,4.51,2.96,-4.27,30.52,-24.47,0.994324,-0.033509,-0.068209,-0.07416,0.0,0.0,0.0,0,0
2026-06-16 15:55:14.143,1327345,R_Shank,0.0365,-2.3844,1.0109,-0.09,-1.47,-8.43,-12.37,25.37,-22.34,0.901242,0.036348,-0.017396,0.43141,0.0,0.0,0.0,0,0
2026-06-16 15:55:14.144,1327442,L_Hip,0.1146,-0.0744,0.9783,-4.16,4.5,2.98,-5.57,32.76,-24.75,0.994324,-0.033509,-0.068209,-0.07416,0.0,0.0,0.0,0,0
2026-06-16 15:55:14.146,1327287,R_Hip,0.0372,0.0118,0.9991,0.25,-1.58,1.78,-18.14,27.99,-32.13,0.941435,-0.00351,-0.041475,-0.334544,0.0,0.0,0.0,0,0
2026-06-16 15:55:14.146,1327462,L_Hip,0.1171,-0.0774,0.9929,-4.14,4.51,2.97,0.0,0.0,0.0,0.994324,-0.033479,-0.068209,-0.07416,0.0,0.0,0.0,0,0
2026-06-16 15:55:14.147,1327307,R_Hip,0.0436,0.0069,1.0039,0.26,-1.57,1.78,-17.77,27.26,-32.13,0.941435,-0.00351,-0.041475,-0.334544,0.0,0.0,0.0,0,0
2026-06-16 15:55:14.149,1327327,R_Hip,0.0402,-0.0037,0.9938,0.27,-1.57,1.79,0.0,0.0,0.0,0.941435,-0.00351,-0.041444,-0.334544,0.0,0.0,0.0,0,0
2026-06-16 15:55:14.151,1327347,R_Hip,0.0451,0.0108,0.9842,0.29,-1.56,1.77,-17.96,28.54,-32.31,0.941435,-0.00351,-0.041444,-0.334544,0.0,0.0,0.0,0,0
2026-06-16 15:55:14.151,1327434,L_Ankle,0.0815,0.0217,0.9923,5.41,-0.83,-10.28,-17.28,-5.87,-48.35,0.991729,0.017457,-0.055605,-0.114231,0.0,0.0,0.0,0,0
2026-06-16 15:55:14.153,1327454,L_Ankle,0.0795,0.0241,0.999,5.41,-0.85,-10.29,-17.3,-4.8,-48.69,0.991729,0.017487,-0.055635,-0.114231,0.0,0.0,0.0,0,0
2026-06-16 15:55:14.154,1327474,L_Ankle,0.0712,0.0261,0.9938,5.41,-0.84,-10.29,0.0,0.0,0.0,0.991729,0.017457,-0.055635,-0.114231,0.0,0.0,0.0,0,0
2026-06-16 15:55:14.156,1327494,L_Ankle,0.0791,0.0207,0.9803,5.41,-0.83,-10.29,-19.03,-5.48,-48.04,0.991729,0.017426,-0.055635,-0.1142,0.0,0.0,0.0,0,0
2026-06-16 15:55:14.158,1327305,R_Ankle,0.0184,-0.0057,1.0091,0.77,-1.71,-0.48,-12.43,32.91,-28.82,0.10889,0.085757,0.029237,0.989898,0.0,0.0,0.0,0,0
2026-06-16 15:55:14.158,1327436,L_Shank,0.0013,-0.0156,0.9945,1.77,-1.2,-0.19,-3.96,16.2,-24.89,0.97293,-0.002716,-0.025666,0.229621,0.0,0.0,0.0,0,0
2026-06-16 15:55:14.160,1327325,R_Ankle,0.0101,-0.0111,0.9947,0.77,-1.73,-0.48,-12.28,32.46,-30.5,0.10886,0.085757,0.029237,0.989898,0.0,0.0,0.0,0,0
2026-06-16 15:55:14.160,1327456,L_Shank,0.0086,-0.0229,0.995,1.76,-1.2,-0.21,-2.05,16.01,-23.51,0.97293,-0.002716,-0.025666,0.229621,0.0,0.0,0.0,0,0
2026-06-16 15:55:14.163,1327476,L_Shank,0.0042,-0.0263,0.9858,1.77,-1.19,-0.19,0.0,0.0,0.0,0.9729,-0.002747,-0.025666,0.229621,0.0,0.0,0.0,0,0
2026-06-16 15:55:14.163,1327345,R_Ankle,0.0018,-0.0181,0.9919,0.77,-1.74,-0.48,-11.08,33.89,-30.35,0.10886,0.085757,0.029237,0.989898,0.0,0.0,0.0,0,0
2026-06-16 15:55:14.165,1327496,L_Shank,-0.0001,-0.0126,0.9954,1.77,-1.2,-0.21,-3.79,16.36,-24.12,0.97293,-0.002716,-0.025636,0.229652,0.0,0.0,0.0,0,0
2026-06-16 15:55:14.165,1327365,R_Ankle,0.017,-0.02,1.0014,0.76,-1.72,-0.49,-12.77,33.55,-29.44,0.10886,0.085757,0.029206,0.989898,0.0,0.0,0.0,0,0
2026-06-16 15:55:14.174,1327456,L_Ankle,0.0771,0.0251,0.9957,5.4,-0.86,-10.29,-18.34,-5.5,-48.71,0.991729,0.017426,-0.055666,-0.1142,0.0,0.0,0.0,0,0
2026-06-16 15:55:14.176,1327476,L_Ankle,0.0864,0.0246,0.9909,5.41,-0.85,-10.29,-19.18,-6.36,-47.87,0.991729,0.017457,-0.055635,-0.1142,0.0,0.0,0.0,0,0
2026-06-16 15:55:14.177,1327496,L_Ankle,0.0805,0.0207,0.9952,5.41,-0.83,-10.28,-17.81,-4.97,-47.84,0.991729,0.017426,-0.055635,-0.1142,0.0,0.0,0.0,0,0
2026-06-16 15:55:14.179,1327457,L_Ankle,0.0712,0.0217,0.9846,5.41,-0.85,-10.29,0.0,0.0,0.0,0.991729,0.017426,-0.055635,-0.1142,0.0,0.0,0.0,0,0
2026-06-16 15:55:14.180,1327328,R_Ankle,0.0145,-0.0156,0.9952,0.75,-1.72,-0.49,-11.92,33.08,-29.28,0.10886,0.085788,0.029206,0.989898,0.0,0.0,0.0,0,0
2026-06-16 15:55:14.181,1327461,L_Shank,0.0052,-0.0234,0.9863,1.77,-1.19,-0.2,-3.45,16.01,-23.18,0.9729,-0.002716,-0.025636,0.229652,0.0,0.0,0.0,0,0
2026-06-16 15:55:14.183,1327348,R_Ankle,0.0067,-0.0151,0.9919,0.75,-1.73,-0.49,-11.95,30.87,-30.17,0.10886,0.085788,0.029206,0.989898,0.0,0.0,0.0,0,0
2026-06-16 15:55:14.184,1327481,L_Shank,-0.0074,-0.017,1.0031,1.77,-1.19,-0.19,-3.79,16.7,-24.43,0.97293,-0.002716,-0.025636,0.229652,0.0,0.0,0.0,0,0
2026-06-16 15:55:14.185,1327368,R_Ankle,0.0111,-0.0096,1.0034,0.76,-1.72,-0.5,-12.45,32.61,-30.05,0.10886,0.085757,0.029206,0.989898,0.0,0.0,0.0,0,0
2026-06-16 15:55:14.186,1327462,L_Shank,0.0008,-0.0214,0.982,1.75,-1.19,-0.19,-1.87,16.87,-23.99,0.9729,-0.002716,-0.025636,0.229652,0.0,0.0,0.0,0,0
2026-06-16 15:55:14.187,1327388,R_Ankle,0.0077,-0.0106,1.0139,0.77,-1.73,-0.49,-11.08,32.62,-29.72,0.10886,0.085757,0.029206,0.989898,0.0,0.0,0.0,0,0
2026-06-16 15:55:14.188,1327482,L_Shank,-0.0069,-0.0283,0.9964,1.76,-1.2,-0.2,0.0,0.0,0.0,0.9729,-0.002716,-0.025666,0.229652,0.0,0.0,0.0,0,0
2026-06-16 15:55:14.190,1327466,L_Hip,0.1171,-0.0739,0.9861,-4.16,4.51,2.96,-5.73,32.91,-24.89,0.994324,-0.033479,-0.068209,-0.07416,0.0,0.0,0.0,0,0
2026-06-16 15:55:14.191,1327329,R_Shank,0.0345,2.3688,1.0138,-0.08,-1.47,-8.43,-11.06,27.33,-22.64,0.901242,0.036378,-0.017426,0.43141,0.0,0.0,0.0,0,0
2026-06-16 15:55:14.193,1327349,R_Shank,0.0429,-0.3316,1.0028,-0.09,-1.47,-8.42,-10.72,26.34,-21.44,0.901242,0.036378,-0.017426,0.43141,0.0,0.0,0.0,0,0
2026-06-16 15:55:14.193,1327486,L_Hip,0.1171,-0.0769,0.9774,-4.17,4.51,2.98,-5.06,32.6,-24.9,0.994324,-0.033509,-0.068209,-0.07416,0.0,0.0,0.0,0,0
2026-06-16 15:55:14.195,1327369,R_Shank,0.0434,3.1396,1.0128,-0.09,-1.47,-8.43,0.0,0.0,0.0,0.901242,0.036378,-0.017426,0.43141,0.0,0.0,0.0,0,0
2026-06-16 15:55:14.195,1327506,L_Hip,0.1259,-0.0715,0.9837,-4.15,4.5,2.97,-6.07,32.59,-24.88,0.994324,-0.033509,-0.068209,-0.07416,0.0,0.0,0.0,0,0
2026-06-16 15:55:14.197,1327389,R_Shank,0.0429,0.0572,1.0018,-0.08,-1.47,-8.43,-11.88,26.18,-22.49,0.901242,0.036378,-0.017426,0.43141,0.0,0.0,0.0,0,0
2026-06-16 15:55:14.197,1327467,L_Hip,0.121,-0.0769,0.9885,-4.16,4.5,2.97,-6.77,32.25,-24.29,0.994324,-0.033509,-0.068209,-0.07416,0.0,0.0,0.0,0,0
2026-06-16 15:55:14.205,1327487,L_Shank,0.0033,-0.0131,0.9777,1.77,-1.18,-0.2,-2.74,15.35,-24.43,0.9729,-0.002716,-0.025666,0.229652,0.0,0.0,0.0,0,0
2026-06-16 15:55:14.206,1327507,L_Shank,0.0018,-0.0244,0.9911,1.77,-1.19,-0.19,-3.09,16.02,-24.43,0.9729,-0.002686,-0.025666,0.229652,0.0,0.0,0.0,0,0
2026-06-16 15:55:14.208,1327527,L_Shank,0.0003,-0.0195,0.981,1.76,-1.19,-0.2,-2.74,15.69,-24.43,0.9729,-0.002686,-0.025666,0.229652,0.0,0.0,0.0,0,0
2026-06-16 15:55:14.209,1327547,L_Shank,0.0076,-0.0195,0.9878,1.75,-1.19,-0.2,-3.79,15.68,-23.8,0.9729,-0.002655,-0.025666,0.229652,0.0,0.0,0.0,0,0
2026-06-16 15:55:14.214,1327362,R_Hip,0.0427,0.0015,0.9885,0.27,-1.56,1.77,-17.96,28.17,-32.99,0.941435,-0.003479,-0.041414,-0.334544,0.0,0.0,0.0,0,0
2026-06-16 15:55:14.216,1327382,R_Hip,0.0505,0.0098,1.001,0.25,-1.57,1.77,-20.69,27.63,-33.16,0.941435,-0.003479,-0.041444,-0.334544,0.0,0.0,0.0,0,0
2026-06-16 15:55:14.217,1327402,R_Hip,0.0407,0.0079,0.9953,0.27,-1.58,1.78,-19.05,28.17,-30.26,0.941435,-0.003479,-0.041444,-0.334544,0.0,0.0,0.0,0,0
2026-06-16 15:55:14.219,1327422,R_Hip,0.0422,0.0054,0.9938,0.28,-1.58,1.78,0.0,0.0,0.0,0.941435,-0.003479,-0.041444,-0.334544,0.0,0.0,0.0,0,0
2026-06-16 15:55:14.225,1327373,R_Ankle,0.0175,-0.0076,1.0091,0.77,-1.73,-0.49,-13.13,32.6,-30.05,0.10886,0.085757,0.029176,0.989898,0.0,0.0,0.0,0,0
2026-06-16 15:55:14.226,1327393,R_Ankle,0.016,-0.0047,1.012,0.76,-1.73,-0.48,0.0,0.0,0.0,0.10886,0.085788,0.029176,0.989898,0.0,0.0,0.0,0,0
2026-06-16 15:55:14.228,1327413,R_Ankle,0.0072,-0.0136,0.9866,0.77,-1.74,-0.49,-12.78,32.92,-29.74,0.10886,0.085788,0.029206,0.989898,0.0,0.0,0.0,0,0
2026-06-16 15:55:14.229,1327511,L_Shank,-0.0025,-0.017,0.9964,1.75,-1.17,-0.19,-2.22,15.17,-23.96,0.9729,-0.002655,-0.025697,0.229652,0.0,0.0,0.0,0,0
2026-06-16 15:55:14.231,1327433,R_Ankle,0.0175,-0.0062,1.0014,0.77,-1.72,-0.5,-11.92,33.39,-28.97,0.10886,0.085788,0.029206,0.989898,0.0,0.0,0.0,0,0
2026-06-16 15:55:14.232,1327531,L_Shank,-0.0001,-0.0209,0.9935,1.77,-1.2,-0.19,-3.43,15.69,-24.74,0.9729,-0.002655,-0.025727,0.229652,0.0,0.0,0.0,0,0
2026-06-16 15:55:14.234,1327374,R_Shank,0.0286,3.1396,1.0148,-0.09,-1.45,-8.42,-11.2,26.16,-23.4,0.901242,0.036378,-0.017457,0.43141,0.0,0.0,0.0,0,0
2026-06-16 15:55:14.234,1327551,L_Shank,-0.0098,-0.0253,0.9834,1.74,-1.18,-0.2,-2.74,15.69,-24.43,0.9729,-0.002655,-0.025697,0.229652,0.0,0.0,0.0,0,0
2026-06-16 15:55:14.236,1327394,R_Shank,0.036,-0.8432,0.9975,-0.09,-1.45,-8.42,0.0,0.0,0.0,0.901242,0.036409,-0.017426,0.43141,0.0,0.0,0.0,0,0
2026-06-16 15:55:14.237,1327571,L_Shank,-0.0059,-0.0136,0.983,1.75,-1.19,-0.2,-3.27,17.55,-23.98,0.9729,-0.002686,-0.025697,0.229652,0.0,0.0,0.0,0,0
2026-06-16 15:55:14.238,1327414,R_Shank,0.0473,-1.8728,1.0114,-0.09,-1.48,-8.43,-11.72,26.68,-22.33,0.901242,0.036378,-0.017426,0.43141,0.0,0.0,0.0,0,0
2026-06-16 15:55:14.240,1327434,R_Shank,0.0321,2.4984,0.9989,-0.09,-1.45,-8.41,-12.03,25.35,-23.24,0.901242,0.036409,-0.017426,0.43141,0.0,0.0,0.0,0,0
2026-06-16 15:55:14.241,1327524,L_Ankle,0.0854,0.0266,0.988,5.39,-0.84,-10.29,-18.15,-5.67,-47.85,0.991729,0.017426,-0.055666,-0.1142,0.0,0.0,0.0,0,0
2026-06-16 15:55:14.242,1327387,R_Hip,0.0436,0.003,0.9929,0.25,-1.58,1.77,-18.69,27.07,-31.96,0.941435,-0.003479,-0.041475,-0.334544,0.0,0.0,0.0,0,0
2026-06-16 15:55:14.244,1327544,L_Ankle,0.0786,0.0207,0.9875,5.39,-0.83,-10.29,-18.5,-6.02,-48.2,0.991729,0.017426,-0.055666,-0.1142,0.0,0.0,0.0,0,0
2026-06-16 15:55:14.245,1327407,R_Hip,0.0402,0.0113,0.9948,0.25,-1.58,1.76,-18.69,27.08,-32.65,0.941435,-0.00351,-0.041505,-0.334544,0.0,0.0,0.0,0,0
2026-06-16 15:55:14.246,1327564,L_Ankle,0.0751,0.0202,0.9765,5.4,-0.85,-10.29,-19.03,-4.77,-47.7,0.991729,0.017426,-0.055666,-0.1142,0.0,0.0,0.0,0,0
2026-06-16 15:55:14.247,1327427,R_Hip,0.0451,0.0006,0.9972,0.27,-1.56,1.77,0.0,0.0,0.0,0.941435,-0.00351,-0.041475,-0.334544,0.0,0.0,0.0,0,0
2026-06-16 15:55:14.248,1327584,L_Ankle,0.0869,0.03,0.9957,5.4,-0.83,-10.29,0.0,0.0,0.0,0.991729,0.017426,-0.055666,-0.1142,0.0,0.0,0.0,0,0
2026-06-16 15:55:14.249,1327447,R_Hip,0.056,0.0089,0.9914,0.26,-1.57,1.77,-19.42,26.71,-33.67,0.941435,-0.00351,-0.041475,-0.334574,0.0,0.0,0.0,0,0
2026-06-16 15:55:14.251,1327397,R_Shank,0.0355,2.3688,1.0104,-0.09,-1.47,-8.42,-12.55,26.52,-23.68,0.901242,0.036409,-0.017396,0.43141,0.0,0.0,0.0,0,0
2026-06-16 15:55:14.253,1327417,R_Shank,0.0345,0.0572,1.0056,-0.09,-1.45,-8.42,0.0,0.0,0.0,0.901242,0.036409,-0.017396,0.43141,0.0,0.0,0.0,0,0
2026-06-16 15:55:14.255,1327437,R_Shank,0.038,1.4688,0.9941,-0.09,-1.47,-8.42,-11.69,25.68,-23.25,0.901242,0.036409,-0.017396,0.43141,0.0,0.0,0.0,0,0
2026-06-16 15:55:14.257,1327457,R_Shank,0.0345,3.01,1.0052,-0.1,-1.46,-8.42,-10.22,26.82,-21.29,0.901242,0.036409,-0.017396,0.43141,0.0,0.0,0.0,0,0
2026-06-16 15:55:14.265,1327547,L_Ankle,0.0825,0.0236,0.9818,5.41,-0.84,-10.29,-17.64,-5.15,-48.35,0.991729,0.017426,-0.055666,-0.1142,0.0,0.0,0.0,0,0
2026-06-16 15:55:14.265,1327412,R_Hip,0.0496,0.0093,0.9866,0.27,-1.57,1.77,-18.32,27.44,-32.65,0.941435,-0.00351,-0.041505,-0.334574,0.0,0.0,0.0,0,0
2026-06-16 15:55:14.267,1327567,L_Ankle,0.08,0.0256,0.9995,5.41,-0.85,-10.29,-18.32,-5.85,-48.03,0.991729,0.017396,-0.055666,-0.11417,0.0,0.0,0.0,0,0
2026-06-16 15:55:14.267,1327432,R_Hip,0.0417,0.0103,0.9914,0.25,-1.58,1.8,-18.15,29.09,-34.53,0.941435,-0.00354,-0.041475,-0.334574,0.0,0.0,0.0,0,0
2026-06-16 15:55:14.270,1327587,L_Ankle,0.08,0.0212,0.9909,5.41,-0.86,-10.29,-18.48,-7.09,-48.2,0.991729,0.017396,-0.055666,-0.11417,0.0,0.0,0.0,0,0
2026-06-16 15:55:14.270,1327452,R_Hip,0.0525,0.0128,0.9967,0.26,-1.56,1.79,-16.87,27.08,-33.67,0.941435,-0.00354,-0.041505,-0.334574,0.0,0.0,0.0,0,0
2026-06-16 15:55:14.272,1327607,L_Ankle,0.0854,0.0222,0.9827,5.4,-0.83,-10.3,-19.2,-4.95,-47.53,0.991729,0.017426,-0.055635,-0.11417,0.0,0.0,0.0,0,0
2026-06-16 15:55:14.272,1327472,R_Hip,0.0486,0.0045,0.9881,0.26,-1.58,1.78,0.0,0.0,0.0,0.941435,-0.00354,-0.041505,-0.334544,0.0,0.0,0.0,0,0
2026-06-16 15:55:14.292,1327440,R_Ankle,0.0135,-0.0081,1.0134,0.76,-1.72,-0.48,-12.61,33.08,-29.59,0.108829,0.085788,0.029206,0.989898,0.0,0.0,0.0,0,0
2026-06-16 15:55:14.294,1327460,R_Ankle,0.016,-0.0027,1.0053,0.76,-1.73,-0.51,0.0,0.0,0.0,0.108829,0.085788,0.029176,0.989898,0.0,0.0,0.0,0,0
2026-06-16 15:55:14.297,1327480,R_Ankle,0.0243,-0.0141,0.9952,0.76,-1.72,-0.49,-13.65,31.49,-29.89,0.108829,0.085788,0.029206,0.989898,0.0,0.0,0.0,0,0
2026-06-16 15:55:14.298,1327579,L_Hip,0.1161,-0.0735,0.9938,-4.16,4.49,2.96,-4.55,33.1,-24.76,0.994324,-0.033509,-0.068178,-0.07416,0.0,0.0,0.0,0,0
2026-06-16 15:55:14.300,1327500,R_Ankle,0.0175,-0.0141,1.0014,0.76,-1.73,-0.48,-11.93,32.45,-29.58,0.108829,0.085818,0.029176,0.989898,0.0,0.0,0.0,0,0
2026-06-16 15:55:14.301,1327599,L_Hip,0.1239,-0.0705,0.9866,-4.15,4.5,2.97,-5.76,32.59,-23.73,0.994324,-0.033509,-0.068178,-0.074129,0.0,0.0,0.0,0,0
2026-06-16 15:55:14.302,1327442,R_Shank,0.0394,2.2392,1.0061,-0.08,-1.46,-8.42,-11.9,27.5,-23.08,0.901242,0.036378,-0.017396,0.43141,0.0,0.0,0.0,0,0
2026-06-16 15:55:14.303,1327619,L_Hip,0.1195,-0.0671,0.973,-4.15,4.51,2.98,-5.58,32.11,-24.75,0.994324,-0.03354,-0.068178,-0.074129,0.0,0.0,0.0,0,0
2026-06-16 15:55:14.304,1327462,R_Shank,0.033,0.9572,1.009,-0.08,-1.46,-8.42,0.0,0.0,0.0,0.901242,0.036378,-0.017365,0.43141,0.0,0.0,0.0,0,0
2026-06-16 15:55:14.305,1327639,L_Hip,0.1249,-0.073,0.9817,-4.16,4.5,2.97,-4.06,33.26,-23.76,0.994324,-0.03354,-0.068178,-0.074129,0.0,0.0,0.0,0,0
2026-06-16 15:55:14.307,1327482,R_Shank,0.0311,-1.8728,1.0095,-0.08,-1.48,-8.43,-12.55,25.87,-22.18,0.901242,0.036409,-0.017365,0.43141,0.0,0.0,0.0,0,0
2026-06-16 15:55:14.308,1327586,L_Shank,-0.004,-0.0141,0.9935,1.76,-1.2,-0.2,-2.04,16.7,-24.14,0.9729,-0.002655,-0.025697,0.229652,0.0,0.0,0.0,0,0
2026-06-16 15:55:14.309,1327502,R_Shank,0.0434,1.3392,1.0013,-0.09,-1.45,-8.44,-11.21,26.5,-22.49,0.901242,0.036378,-0.017365,0.43141,0.0,0.0,0.0,0,0
2026-06-16 15:55:14.310,1327606,L_Shank,-0.004,-0.0204,0.9935,1.76,-1.19,-0.19,0.0,0.0,0.0,0.9729,-0.002655,-0.025697,0.229652,0.0,0.0,0.0,0,0
2026-06-16 15:55:14.312,1327626,L_Shank,-0.0025,-0.0253,0.983,1.76,-1.19,-0.2,-3.08,15.69,-24.74,0.9729,-0.002686,-0.025666,0.229652,0.0,0.0,0.0,0,0
2026-06-16 15:55:14.314,1327646,L_Shank,0.0057,-0.016,1.0007,1.75,-1.19,-0.19,-2.92,15.17,-23.64,0.9729,-0.002655,-0.025666,0.229652,0.0,0.0,0.0,0,0
2026-06-16 15:55:14.315,1327463,R_Hip,0.0471,0.0089,0.9861,0.27,-1.57,1.79,-18.69,27.44,-32.99,0.941435,-0.003571,-0.041536,-0.334544,0.0,0.0,0.0,0,0
2026-06-16 15:55:14.316,1327591,L_Ankle,0.083,0.0173,0.987,5.4,-0.83,-10.29,-19.39,-5.12,-48.38,0.991729,0.017426,-0.055666,-0.11417,0.0,0.0,0.0,0,0
2026-06-16 15:55:14.317,1327483,R_Hip,0.0451,0.0093,0.9789,0.26,-1.57,1.79,-20.33,28.35,-32.48,0.941435,-0.003571,-0.041536,-0.334544,0.0,0.0,0.0,0,0
2026-06-16 15:55:14.318,1327611,L_Ankle,0.0761,0.0236,0.9914,5.4,-0.84,-10.29,0.0,0.0,0.0,0.991729,0.017426,-0.055666,-0.11417,0.0,0.0,0.0,0,0
2026-06-16 15:55:14.319,1327503,R_Hip,0.0417,0.0006,0.9856,0.28,-1.58,1.78,0.0,0.0,0.0,0.941435,-0.003571,-0.041536,-0.334544,0.0,0.0,0.0,0,0
2026-06-16 15:55:14.320,1327631,L_Ankle,0.0766,0.0236,0.9866,5.4,-0.84,-10.29,-17.45,-5.68,-48.18,0.991729,0.017426,-0.055666,-0.11417,0.0,0.0,0.0,0,0
2026-06-16 15:55:14.321,1327523,R_Hip,0.0491,0.0006,0.9847,0.27,-1.55,1.77,-17.6,27.81,-33.33,0.941435,-0.00354,-0.041505,-0.334544,0.0,0.0,0.0,0,0
2026-06-16 15:55:14.322,1327651,L_Ankle,0.0849,0.0266,0.9904,5.4,-0.84,-10.29,-19.38,-5.12,-47.7,0.991729,0.017396,-0.055666,-0.11417,0.0,0.0,0.0,0,0
2026-06-16 15:55:14.324,1327464,R_Shank,0.0443,-2.6436,1.008,-0.08,-1.46,-8.43,-10.21,26.49,-22.2,0.901242,0.036409,-0.017365,0.43141,0.0,0.0,0.0,0,0
2026-06-16 15:55:14.325,1327601,L_Hip,0.1171,-0.0671,0.9914,-4.15,4.5,2.96,-5.25,33.08,-23.3,0.994324,-0.03354,-0.068209,-0.074129,0.0,0.0,0.0,0,0
2026-06-16 15:55:14.326,1327484,R_Shank,0.0335,1.3392,1.0028,-0.09,-1.45,-8.43,0.0,0.0,0.0,0.901242,0.036409,-0.017335,0.43141,0.0,0.0,0.0,0,0
2026-06-16 15:55:14.327,1327621,L_Hip,0.1215,-0.0749,0.9817,-4.16,4.51,2.96,0.0,0.0,0.0,0.994324,-0.033509,-0.068178,-0.074129,0.0,0.0,0.0,0,0
2026-06-16 15:55:14.328,1327504,R_Shank,0.0394,3.1396,1.0196,-0.09,-1.46,-8.43,-12.01,24.69,-23.55,0.901242,0.036409,-0.017335,0.431379,0.0,0.0,0.0,0,0
2026-06-16 15:55:14.330,1327641,L_Hip,0.122,-0.0749,0.9962,-4.16,4.5,2.96,-5.57,32.75,-24.46,0.994324,-0.033509,-0.068178,-0.074129,0.0,0.0,0.0,0,0
2026-06-16 15:55:14.331,1327524,R_Shank,0.035,-0.8432,1.021,-0.09,-1.45,-8.43,-10.72,26.66,-22.04,0.901242,0.036409,-0.017335,0.431379,0.0,0.0,0.0,0,0
2026-06-16 15:55:14.332,1327661,L_Hip,0.118,-0.07,0.9992,-4.16,4.5,2.96,-6.08,33.23,-23.72,0.994324,-0.033509,-0.068178,-0.074129,0.0,0.0,0.0,0,0
2026-06-16 15:55:14.334,1327612,L_Shank,0.0072,-0.0263,0.9897,1.75,-1.18,-0.19,-2.9,15.53,-25.21,0.9729,-0.002686,-0.025666,0.229652,0.0,0.0,0.0,0,0
2026-06-16 15:55:14.336,1327632,L_Shank,-0.0059,-0.0317,0.983,1.74,-1.19,-0.22,0.0,0.0,0.0,0.9729,-0.002686,-0.025666,0.229652,0.0,0.0,0.0,0,0
2026-06-16 15:55:14.338,1327652,L_Shank,0.0003,-0.018,0.994,1.76,-1.19,-0.19,-2.23,15.84,-23.04,0.9729,-0.002716,-0.025636,0.229652,0.0,0.0,0.0,0,0
2026-06-16 15:55:14.341,1327487,R_Hip,0.0431,0.0054,0.9866,0.27,-1.57,1.77,-17.96,28.9,-32.99,0.941435,-0.003571,-0.041505,-0.334544,0.0,0.0,0.0,0,0
2026-06-16 15:55:14.341,1327672,L_Shank,-0.0015,-0.0244,0.9782,1.75,-1.19,-0.19,-2.91,16.53,-24.28,0.9729,-0.002686,-0.025636,0.229652,0.0,0.0,0.0,0,0
2026-06-16 15:55:14.343,1327507,R_Hip,0.0496,0.0049,0.9881,0.27,-1.58,1.77,-20.15,27.08,-32.65,0.941435,-0.003571,-0.041505,-0.334544,0.0,0.0,0.0,0,0
2026-06-16 15:55:14.344,1327614,L_Ankle,0.0732,0.0207,1.0082,5.41,-0.85,-10.3,-18.32,-4.07,-46.66,0.991729,0.017365,-0.055666,-0.11417,0.0,0.0,0.0,0,0
2026-06-16 15:55:14.346,1327527,R_Hip,0.0367,0.0074,0.9871,0.26,-1.58,1.77,-17.77,28.35,-31.79,0.941435,-0.003571,-0.041505,-0.334544,0.0,0.0,0.0,0,0
2026-06-16 15:55:14.346,1327634,L_Ankle,0.0776,0.0212,0.9938,5.38,-0.86,-10.29,0.0,0.0,0.0,0.991729,0.017365,-0.055666,-0.11417,0.0,0.0,0.0,0,0
2026-06-16 15:55:14.348,1327547,R_Hip,0.0412,-0.0042,0.9856,0.29,-1.57,1.77,0.0,0.0,0.0,0.941435,-0.003571,-0.041475,-0.334544,0.0,0.0,0.0,0,0
2026-06-16 15:55:14.349,1327654,L_Ankle,0.0771,0.0227,0.9851,5.39,-0.85,-10.3,-18.51,-4.96,-47.86,0.991729,0.017365,-0.055666,-0.11417,0.0,0.0,0.0,0,0
2026-06-16 15:55:14.352,1327674,L_Ankle,0.082,0.0251,0.9909,5.41,-0.83,-10.3,-18.15,-4.96,-47.51,0.991729,0.017365,-0.055666,-0.11417,0.0,0.0,0.0,0,0
2026-06-16 15:55:14.354,1327636,L_Shank,-0.005,-0.0229,0.9897,1.76,-1.19,-0.2,-2.57,14.83,-24.27,0.9729,-0.002686,-0.025605,0.229652,0.0,0.0,0.0,0,0
2026-06-16 15:55:14.356,1327656,L_Shank,0.0101,-0.0204,0.9998,1.75,-1.19,-0.2,0.0,0.0,0.0,0.9729,-0.002686,-0.025636,0.229652,0.0,0.0,0.0,0,0
2026-06-16 15:55:14.358,1327676,L_Shank,0.0076,-0.017,0.9671,1.76,-1.18,-0.2,-1.35,15.68,-23.82,0.9729,-0.002716,-0.025605,0.229652,0.0,0.0,0.0,0,0
2026-06-16 15:55:14.360,1327696,L_Shank,-0.0015,-0.019,0.9921,1.77,-1.18,-0.19,-2.39,16.02,-24.44,0.9729,-0.002716,-0.025636,0.229652,0.0,0.0,0.0,0,0
2026-06-16 15:55:14.377,1327659,L_Ankle,0.0771,0.0212,1.0043,5.4,-0.83,-10.29,-18.68,-4.78,-47.69,0.991729,0.017335,-0.055635,-0.11417,0.0,0.0,0.0,0,0
2026-06-16 15:55:14.379,1327679,L_Ankle,0.082,0.0207,0.9866,5.41,-0.85,-10.29,0.0,0.0,0.0,0.991729,0.017335,-0.055635,-0.1142,0.0,0.0,0.0,0,0
2026-06-16 15:55:14.381,1327699,L_Ankle,0.0717,0.0246,1.0019,5.41,-0.85,-10.29,-17.62,-6.21,-48.02,0.991729,0.017335,-0.055635,-0.1142,0.0,0.0,0.0,0,0
2026-06-16 15:55:14.382,1327719,L_Ankle,0.0879,0.0246,0.9976,5.41,-0.85,-10.3,-19.91,-5.29,-48.56,0.991729,0.017304,-0.055635,-0.1142,0.0,0.0,0.0,0,0
2026-06-16 15:55:14.387,1327669,L_Hip,0.1293,-0.0685,0.9972,-4.16,4.51,2.98,-5.26,32.43,-23.59,0.994324,-0.033509,-0.068209,-0.074129,0.0,0.0,0.0,0,0
2026-06-16 15:55:14.388,1327689,L_Hip,0.1185,-0.0759,0.9909,-4.16,4.51,2.97,0.0,0.0,0.0,0.994324,-0.033479,-0.068178,-0.074129,0.0,0.0,0.0,0,0
2026-06-16 15:55:14.390,1327709,L_Hip,0.118,-0.0808,0.988,-4.16,4.51,2.96,-4.91,31.48,-25.04,0.994324,-0.033479,-0.068178,-0.074129,0.0,0.0,0.0,0,0
2026-06-16 15:55:14.392,1327729,L_Hip,0.121,-0.0754,0.9817,-4.15,4.5,2.97,-4.91,32.44,-24.18,0.994324,-0.033479,-0.068178,-0.074129,0.0,0.0,0.0,0,0
2026-06-16 15:55:14.405,1327687,L_Shank,0.0106,-0.0151,0.9815,1.75,-1.19,-0.2,-2.22,16.52,-23.67,0.9729,-0.002716,-0.025605,0.229652,0.0,0.0,0.0,0,0
2026-06-16 15:55:14.406,1327553,R_Ankle,0.017,-0.0096,1.0029,0.75,-1.74,-0.49,-11.76,32.92,-29.43,0.108829,0.085849,0.029206,0.989898,0.0,0.0,0.0,0,0
2026-06-16 15:55:14.407,1327707,L_Shank,-0.0045,-0.0278,0.9782,1.75,-1.19,-0.2,0.0,0.0,0.0,0.9729,-0.002747,-0.025605,0.229652,0.0,0.0,0.0,0,0
2026-06-16 15:55:14.408,1327573,R_Ankle,0.016,-0.0156,1.0019,0.77,-1.72,-0.51,0.0,0.0,0.0,0.108829,0.085849,0.029206,0.989898,0.0,0.0,0.0,0,0
2026-06-16 15:55:14.410,1327727,L_Shank,0.0013,-0.0102,0.9815,1.75,-1.19,-0.19,-2.91,16.19,-24.28,0.9729,-0.002777,-0.025575,0.229652,0.0,0.0,0.0,0,0
2026-06-16 15:55:14.411,1327593,R_Ankle,0.0111,-0.0181,0.9866,0.77,-1.72,-0.5,-12.61,33.08,-29.59,0.108829,0.085849,0.029206,0.989898,0.0,0.0,0.0,0,0
2026-06-16 15:55:14.412,1327747,L_Shank,-0.0059,-0.016,0.9767,1.77,-1.18,-0.2,-3.62,16.19,-23.96,0.9729,-0.002777,-0.025575,0.229652,0.0,0.0,0.0,0,0
2026-06-16 15:55:14.413,1327613,R_Ankle,0.0184,-0.0146,1.0062,0.75,-1.71,-0.5,-12.1,32.92,-29.43,0.108829,0.085849,0.029206,0.989898,0.0,0.0,0.0,0,0
2026-06-16 15:55:14.415,1327691,L_Hip,0.1141,-0.0739,0.9929,-4.17,4.52,2.97,-4.41,30.36,-26.06,0.994324,-0.033479,-0.068148,-0.074129,0.0,0.0,0.0,0,0
2026-06-16 15:55:14.416,1327554,R_Shank,0.0424,1.5984,1.0157,-0.08,-1.45,-8.42,-10.85,26.15,-24.0,0.901242,0.036378,-0.017335,0.431379,0.0,0.0,0.0,0,0
2026-06-16 15:55:14.417,1327711,L_Hip,0.1112,-0.0779,0.9958,-4.16,4.51,2.97,0.0,0.0,0.0,0.994324,-0.033479,-0.068148,-0.074129,0.0,0.0,0.0,0,0
2026-06-16 15:55:14.419,1327574,R_Shank,0.0326,2.2392,1.01,-0.09,-1.46,-8.44,-11.22,27.49,-23.39,0.901242,0.036378,-0.017304,0.431379,0.0,0.0,0.0,0,0
2026-06-16 15:55:14.420,1327731,L_Hip,0.1126,-0.0793,0.9841,-4.17,4.51,2.97,-4.54,33.1,-25.06,0.994324,-0.033479,-0.068178,-0.074129,0.0,0.0,0.0,0,0
2026-06-16 15:55:14.421,1327594,R_Shank,0.0443,-2.514,1.0119,-0.07,-1.46,-8.42,-11.37,26.01,-22.94,0.901242,0.036378,-0.017304,0.431379,0.0,0.0,0.0,0,0
2026-06-16 15:55:14.422,1327692,L_Hip,0.1146,-0.0715,0.9798,-4.15,4.51,2.98,-5.06,32.61,-25.19,0.994324,-0.033509,-0.068178,-0.074129,0.0,0.0,0.0,0,0
2026-06-16 15:55:14.423,1327614,R_Shank,0.0281,-1.8728,1.0071,-0.09,-1.46,-8.43,0.0,0.0,0.0,0.901242,0.036378,-0.017304,0.431379,0.0,0.0,0.0,0,0
2026-06-16 15:55:14.427,1327575,R_Ankle,0.0165,-0.0081,0.9976,0.76,-1.73,-0.48,-10.92,32.47,-30.49,0.108829,0.085849,0.029176,0.989898,0.0,0.0,0.0,0,0
2026-06-16 15:55:14.430,1327595,R_Ankle,0.0081,-0.0106,1.0058,0.76,-1.74,-0.49,0.0,0.0,0.0,0.108829,0.085849,0.029176,0.989898,0.0,0.0,0.0,0,0
2026-06-16 15:55:14.430,1327712,L_Shank,0.0003,-0.0185,0.9738,1.77,-1.19,-0.19,-3.28,15.15,-22.71,0.9729,-0.002777,-0.025605,0.229652,0.0,0.0,0.0,0,0
2026-06-16 15:55:14.432,1327732,L_Shank,-0.0006,-0.0288,0.9983,1.76,-1.19,-0.19,0.0,0.0,0.0,0.9729,-0.002777,-0.025575,0.229652,0.0,0.0,0.0,0,0
2026-06-16 15:55:14.433,1327615,R_Ankle,0.0155,-0.0062,1.012,0.76,-1.73,-0.49,-11.77,32.29,-29.73,0.108829,0.085849,0.029176,0.989898,0.0,0.0,0.0,0,0
2026-06-16 15:55:14.435,1327752,L_Shank,0.0106,-0.0136,0.9892,1.76,-1.19,-0.19,-0.65,14.66,-23.81,0.9729,-0.002777,-0.025605,0.229652,0.0,0.0,0.0,0,0
2026-06-16 15:55:14.435,1327635,R_Ankle,0.0155,-0.0116,0.9976,0.77,-1.71,-0.48,-11.59,33.09,-29.58,0.108829,0.085849,0.029206,0.989898,0.0,0.0,0.0,0,0
2026-06-16 15:55:14.436,1327772,L_Shank,0.0003,-0.0195,0.9906,1.75,-1.19,-0.2,-2.2,15.2,-26.14,0.9729,-0.002777,-0.025575,0.229652,0.0,0.0,0.0,0,0
2026-06-16 15:55:14.440,1327587,R_Hip,0.0427,-0.0042,0.9967,0.27,-1.57,1.78,-18.51,27.62,-32.82,0.941435,-0.003601,-0.041444,-0.334544,0.0,0.0,0.0,0,0
2026-06-16 15:55:14.442,1327607,R_Hip,0.051,0.0093,0.9842,0.27,-1.57,1.77,-19.05,27.81,-33.33,0.941435,-0.003601,-0.041475,-0.334544,0.0,0.0,0.0,0,0
2026-06-16 15:55:14.444,1327726,L_Ankle,0.0805,0.028,0.9846,5.41,-0.84,-10.29,-18.53,-5.32,-49.56,0.991729,0.017304,-0.055635,-0.11417,0.0,0.0,0.0,0,0
2026-06-16 15:55:14.444,1327627,R_Hip,0.0407,0.0113,0.9856,0.27,-1.57,1.79,0.0,0.0,0.0,0.941435,-0.003632,-0.041475,-0.334544,0.0,0.0,0.0,0,0
2026-06-16 15:55:14.446,1327746,L_Ankle,0.0751,0.0271,0.9798,5.39,-0.84,-10.29,0.0,0.0,0.0,0.991729,0.017304,-0.055605,-0.11417,0.0,0.0,0.0,0,0
2026-06-16 15:55:14.447,1327647,R_Hip,0.0382,0.0113,0.9929,0.26,-1.58,1.78,-18.14,27.62,-33.16,0.941435,-0.003601,-0.041475,-0.334544,0.0,0.0,0.0,0,0
2026-06-16 15:55:14.448,1327766,L_Ankle,0.08,0.0271,0.9957,5.4,-0.85,-10.29,-18.14,-6.03,-47.85,0.991729,0.017335,-0.055605,-0.1142,0.0,0.0,0.0,0,0
2026-06-16 15:55:14.450,1327598,R_Ankle,0.0155,-0.0101,0.9947,0.75,-1.73,-0.51,-13.47,32.92,-30.06,0.108829,0.085849,0.029206,0.989898,0.0,0.0,0.0,0,0
2026-06-16 15:55:14.451,1327786,L_Ankle,0.0835,0.0256,0.9866,5.41,-0.83,-10.29,-18.68,-5.13,-47.69,0.991729,0.017335,-0.055605,-0.1142,0.0,0.0,0.0,0,0
2026-06-16 15:55:14.453,1327618,R_Ankle,0.0204,-0.0146,1.0129,0.75,-1.72,-0.5,0.0,0.0,0.0,0.108829,0.085818,0.029206,0.989898,0.0,0.0,0.0,0,0
2026-06-16 15:55:14.454,1327638,R_Ankle,0.0116,-0.0081,1.001,0.77,-1.73,-0.49,-11.61,31.82,-30.18,0.108829,0.085849,0.029206,0.989898,0.0,0.0,0.0,0,0
2026-06-16 15:55:14.456,1327658,R_Ankle,0.0077,-0.0141,1.0029,0.77,-1.72,-0.49,-12.79,31.97,-30.04,0.108829,0.085849,0.029237,0.989898,0.0,0.0,0.0,0,0
2026-06-16 15:55:14.459,1327599,R_Shank,0.038,1.4688,1.0109,-0.09,-1.48,-8.42,-10.87,26.49,-23.1,0.901242,0.036378,-0.017304,0.431379,0.0,0.0,0.0,0,0
2026-06-16 15:55:14.461,1327619,R_Shank,0.0384,-2.6436,1.0023,-0.09,-1.46,-8.41,-12.22,25.86,-22.18,0.901242,0.036348,-0.017304,0.431379,0.0,0.0,0.0,0,0
2026-06-16 15:55:14.463,1327639,R_Shank,0.0453,-2.2548,0.9936,-0.1,-1.45,-8.43,0.0,0.0,0.0,0.901242,0.036348,-0.017304,0.431379,0.0,0.0,0.0,0,0
2026-06-16 15:55:14.465,1327659,R_Shank,0.0458,3.2692,1.0114,-0.09,-1.45,-8.44,-12.04,26.02,-23.24,0.901242,0.036348,-0.017335,0.431379,0.0,0.0,0.0,0,0
2026-06-16 15:55:14.467,1327749,L_Ankle,0.0683,0.0158,1.0072,5.39,-0.84,-10.29,-19.38,-5.83,-48.73,0.991729,0.017335,-0.055574,-0.11417,0.0,0.0,0.0,0,0
2026-06-16 15:55:14.467,1327612,R_Hip,0.0358,0.0069,1.0126,0.27,-1.56,1.78,-18.14,28.35,-32.14,0.941435,-0.003601,-0.041475,-0.334544,0.0,0.0,0.0,0,0
2026-06-16 15:55:14.469,1327769,L_Ankle,0.08,0.0256,0.9966,5.39,-0.86,-10.29,0.0,0.0,0.0,0.991729,0.017335,-0.055574,-0.11417,0.0,0.0,0.0,0,0
2026-06-16 15:55:14.470,1327632,R_Hip,0.0431,0.0064,0.9828,0.26,-1.57,1.77,-18.69,26.35,-33.67,0.941435,-0.003571,-0.041444,-0.334544,0.0,0.0,0.0,0,0
2026-06-16 15:55:14.472,1327789,L_Ankle,0.0712,0.0163,0.999,5.41,-0.84,-10.28,-19.01,-6.19,-47.7,0.991729,0.017335,-0.055605,-0.11417,0.0,0.0,0.0,0,0
2026-06-16 15:55:14.472,1327652,R_Hip,0.0436,-0.0042,0.9914,0.26,-1.56,1.78,-18.32,27.08,-33.33,0.941435,-0.003571,-0.041414,-0.334544,0.0,0.0,0.0,0,0
2026-06-16 15:55:14.474,1327809,L_Ankle,0.0844,0.0144,0.9986,5.41,-0.85,-10.28,-18.14,-4.96,-47.17,0.991729,0.017335,-0.055605,-0.11417,0.0,0.0,0.0,0,0
2026-06-16 15:55:14.474,1327672,R_Hip,0.0407,0.0074,1.0006,0.27,-1.59,1.77,0.0,0.0,0.0,0.941435,-0.003601,-0.041414,-0.334544,0.0,0.0,0.0,0,0
2026-06-16 15:55:14.477,1327620,R_Ankle,0.0155,-0.0146,0.9871,0.75,-1.74,-0.49,-12.44,33.57,-30.36,0.108829,0.085818,0.029237,0.989898,0.0,0.0,0.0,0,0
2026-06-16 15:55:14.478,1327760,L_Hip,0.1171,-0.073,0.9895,-4.16,4.51,2.96,-5.57,33.08,-24.46,0.994324,-0.033509,-0.068178,-0.074129,0.0,0.0,0.0,0,0
2026-06-16 15:55:14.479,1327640,R_Ankle,0.0091,-0.0047,0.9976,0.77,-1.73,-0.49,0.0,0.0,0.0,0.108829,0.085788,0.029206,0.989898,0.0,0.0,0.0,0,0
2026-06-16 15:55:14.481,1327780,L_Hip,0.1156,-0.0759,0.9822,-4.16,4.51,2.96,0.0,0.0,0.0,0.994324,-0.033509,-0.068178,-0.074129,0.0,0.0,0.0,0,0
2026-06-16 15:55:14.483,1327660,R_Ankle,0.0184,-0.0146,0.9995,0.77,-1.72,-0.49,-13.64,32.11,-29.28,0.108829,0.085788,0.029206,0.989898,0.0,0.0,0.0,0,0
2026-06-16 15:55:14.483,1327800,L_Hip,0.1239,-0.0828,0.9769,-4.16,4.51,2.97,-5.42,32.27,-24.31,0.994324,-0.033509,-0.068148,-0.074129,0.0,0.0,0.0,0,0
2026-06-16 15:55:14.486,1327680,R_Ankle,0.0175,-0.0067,1.0067,0.77,-1.72,-0.49,-12.1,31.96,-28.49,0.108829,0.085788,0.029206,0.989898,0.0,0.0,0.0,0,0
2026-06-16 15:55:14.487,1327820,L_Hip,0.122,-0.0779,0.9962,-4.16,4.5,2.97,-6.42,33.22,-23.72,0.994354,-0.033509,-0.068087,-0.074129,0.0,0.0,0.0,0,0
2026-06-16 15:55:14.489,1327622,R_Shank,0.0522,-2.0024,0.998,-0.09,-1.47,-8.43,-10.71,26.33,-22.35,0.901242,0.036348,-0.017335,0.431379,0.0,0.0,0.0,0,0
2026-06-16 15:55:14.491,1327761,L_Shank,-0.0035,-0.0185,0.9897,1.76,-1.21,-0.19,-3.96,15.17,-24.26,0.9729,-0.002777,-0.025575,0.229652,0.0,0.0,0.0,0,0
2026-06-16 15:55:14.492,1327642,R_Shank,0.0321,3.01,1.0071,-0.09,-1.46,-8.43,-10.51,25.82,-23.71,0.901242,0.036348,-0.017304,0.431379,0.0,0.0,0.0,0,0
2026-06-16 15:55:14.493,1327781,L_Shank,0.0052,-0.0185,0.981,1.77,-1.18,-0.19,0.0,0.0,0.0,0.9729,-0.002777,-0.025605,0.229652,0.0,0.0,0.0,0,0
2026-06-16 15:55:14.495,1327662,R_Shank,0.0345,1.5984,1.0225,-0.09,-1.47,-8.43,0.0,0.0,0.0,0.901242,0.036378,-0.017335,0.431379,0.0,0.0,0.0,0,0
2026-06-16 15:55:14.495,1327801,L_Shank,0.0008,-0.0234,0.9921,1.75,-1.19,-0.2,-1.69,15.35,-24.75,0.9729,-0.002777,-0.025575,0.229652,0.0,0.0,0.0,0,0
2026-06-16 15:55:14.497,1327682,R_Shank,0.0365,2.2392,1.0225,-0.09,-1.46,-8.43,-10.68,25.99,-23.86,0.901242,0.036378,-0.017335,0.431349,0.0,0.0,0.0,0,0
2026-06-16 15:55:14.498,1327821,L_Shank,0.0062,-0.017,0.9854,1.76,-1.19,-0.19,-2.92,15.51,-23.96,0.9729,-0.002747,-0.025575,0.229652,0.0,0.0,0.0,0,0
2026-06-16 15:55:14.499,1327637,R_Hip,0.0441,0.004,0.9991,0.25,-1.55,1.78,-18.69,27.08,-32.99,0.941435,-0.003601,-0.041414,-0.334544,0.0,0.0,0.0,0,0
2026-06-16 15:55:14.500,1327771,L_Ankle,0.0781,0.0246,0.987,5.4,-0.83,-10.29,-18.52,-4.61,-48.2,0.991729,0.017335,-0.055574,-0.11417,0.0,0.0,0.0,0,0
2026-06-16 15:55:14.502,1327657,R_Hip,0.0496,0.0064,0.9924,0.27,-1.57,1.78,-19.05,28.53,-31.62,0.941435,-0.003601,-0.041414,-0.334544,0.0,0.0,0.0,0,0
2026-06-16 15:55:14.502,1327772,L_Ankle,0.0791,0.0212,0.9918,5.4,-0.83,-10.29,-18.33,-5.14,-47.68,0.991729,0.017304,-0.055574,-0.11417,0.0,0.0,0.0,0,0
2026-06-16 15:55:14.504,1327677,R_Hip,0.0407,0.0049,0.989,0.27,-1.58,1.79,0.0,0.0,0.0,0.941435,-0.003601,-0.041414,-0.334544,0.0,0.0,0.0,0,0
2026-06-16 15:55:14.504,1327792,L_Ankle,0.0859,0.0246,0.9942,5.4,-0.83,-10.3,0.0,0.0,0.0,0.991729,0.017304,-0.055574,-0.11417,0.0,0.0,0.0,0,0
2026-06-16 15:55:14.506,1327697,R_Hip,0.0427,0.0098,0.9953,0.27,-1.57,1.78,-18.14,26.16,-32.13,0.941435,-0.003601,-0.041414,-0.334544,0.0,0.0,0.0,0,0
2026-06-16 15:55:14.507,1327812,L_Ankle,0.0756,0.0188,0.9842,5.4,-0.83,-10.3,-17.64,-5.15,-48.69,0.991729,0.017335,-0.055544,-0.11417,0.0,0.0,0.0,0,0
2026-06-16 15:55:14.509,1327643,R_Ankle,0.0111,-0.0205,0.9947,0.77,-1.73,-0.5,-14.48,33.22,-29.15,0.108829,0.085788,0.029206,0.989898,0.0,0.0,0.0,0,0
2026-06-16 15:55:14.509,1327781,L_Hip,0.1136,-0.072,0.9808,-4.15,4.5,2.97,-5.07,32.92,-24.32,0.994354,-0.033509,-0.068087,-0.074099,0.0,0.0,0.0,0,0
2026-06-16 15:55:14.511,1327663,R_Ankle,0.0145,-0.0047,1.0014,0.76,-1.73,-0.5,0.0,0.0,0.0,0.108829,0.085788,0.029237,0.989898,0.0,0.0,0.0,0,0
2026-06-16 15:55:14.511,1327801,L_Hip,0.118,-0.073,0.9938,-4.16,4.48,2.96,-5.42,31.95,-24.6,0.994354,-0.033509,-0.068117,-0.074099,0.0,0.0,0.0,0,0
2026-06-16 15:55:14.513,1327683,R_Ankle,0.0189,-0.0131,0.9995,0.77,-1.73,-0.5,-14.15,32.91,-29.76,0.108829,0.085788,0.029206,0.989898,0.0,0.0,0.0,0,0
2026-06-16 15:55:14.513,1327821,L_Hip,0.122,-0.071,0.9948,-4.15,4.51,2.96,0.0,0.0,0.0,0.994354,-0.033509,-0.068087,-0.074099,0.0,0.0,0.0,0,0
2026-06-16 15:55:14.515,1327703,R_Ankle,0.0111,-0.0086,1.001,0.77,-1.72,-0.5,-12.11,31.97,-29.73,0.108829,0.085788,0.029237,0.989898,0.0,0.0,0.0,0,0
2026-06-16 15:55:14.516,1327782,L_Hip,0.121,-0.073,0.9943,-4.15,4.5,2.97,-5.89,32.75,-25.61,0.994354,-0.03354,-0.068117,-0.074099,0.0,0.0,0.0,0,0
2026-06-16 15:55:14.517,1327644,R_Shank,0.0463,1.5984,1.0028,-0.07,-1.45,-8.42,-11.88,26.51,-23.39,0.901273,0.036378,-0.017304,0.431349,0.0,0.0,0.0,0,0
2026-06-16 15:55:14.518,1327786,L_Shank,0.0003,-0.0293,0.9873,1.75,-1.19,-0.2,-3.27,15.5,-23.65,0.9729,-0.002777,-0.025605,0.229682,0.0,0.0,0.0,0,0
2026-06-16 15:55:14.520,1327664,R_Shank,0.0345,3.1396,0.9999,-0.08,-1.47,-8.43,-10.87,26.49,-23.4,0.901273,0.036378,-0.017304,0.431349,0.0,0.0,0.0,0,0
2026-06-16 15:55:14.520,1327806,L_Shank,0.0018,-0.0224,0.9815,1.76,-1.19,-0.19,-2.75,16.0,-22.88,0.9729,-0.002777,-0.025605,0.229682,0.0,0.0,0.0,0,0
2026-06-16 15:55:14.522,1327684,R_Shank,0.0375,-2.132,1.008,-0.09,-1.47,-8.42,0.0,0.0,0.0,0.901273,0.036378,-0.017304,0.431349,0.0,0.0,0.0,0,0
2026-06-16 15:55:14.522,1327826,L_Shank,-0.0103,-0.0248,0.9945,1.77,-1.19,-0.2,0.0,0.0,0.0,0.9729,-0.002777,-0.025605,0.229682,0.0,0.0,0.0,0,0
2026-06-16 15:55:14.524,1327704,R_Shank,0.0443,0.698,1.008,-0.09,-1.47,-8.42,-10.21,26.49,-21.9,0.901273,0.036409,-0.017304,0.431349,0.0,0.0,0.0,0,0
2026-06-16 15:55:14.525,1327787,L_Shank,0.0003,-0.019,0.983,1.76,-1.19,-0.19,-3.43,15.35,-24.73,0.9729,-0.002777,-0.025605,0.229682,0.0,0.0,0.0,0,0
2026-06-16 15:55:14.534,1327816,L_Ankle,0.0854,0.029,0.9986,5.4,-0.83,-10.29,-18.34,-4.78,-48.02,0.991729,0.017335,-0.055544,-0.11417,0.0,0.0,0.0,0,0
2026-06-16 15:55:14.537,1327836,L_Ankle,0.0746,0.0217,0.9798,5.4,-0.83,-10.29,-19.0,-5.83,-47.02,0.991729,0.017335,-0.055544,-0.11417,0.0,0.0,0.0,0,0
2026-06-16 15:55:14.538,1327856,L_Ankle,0.0859,0.0236,0.9928,5.4,-0.83,-10.29,0.0,0.0,0.0,0.991729,0.017304,-0.055544,-0.11417,0.0,0.0,0.0,0,0
2026-06-16 15:55:14.540,1327688,R_Hip,0.0412,0.003,0.9842,0.27,-1.58,1.79,-16.5,29.27,-32.31,0.941435,-0.003601,-0.041414,-0.334513,0.0,0.0,0.0,0,0
2026-06-16 15:55:14.541,1327876,L_Ankle,0.0751,0.0202,0.9976,5.41,-0.83,-10.29,-19.55,-5.29,-47.54,0.991729,0.017304,-0.055513,-0.11417,0.0,0.0,0.0,0,0
2026-06-16 15:55:14.542,1327708,R_Hip,0.0441,0.0074,0.9717,0.28,-1.58,1.77,-18.32,28.17,-32.31,0.941435,-0.003632,-0.041414,-0.334513,0.0,0.0,0.0,0,0
2026-06-16 15:55:14.544,1327728,R_Hip,0.0407,0.0069,0.99,0.27,-1.57,1.78,0.0,0.0,0.0,0.941435,-0.003632,-0.041414,-0.334513,0.0,0.0,0.0,0,0
2026-06-16 15:55:14.544,1327827,L_Hip,0.1176,-0.0735,0.9812,-4.16,4.51,2.97,-5.77,32.26,-23.44,0.994324,-0.033509,-0.068117,-0.074129,0.0,0.0,0.0,0,0
2026-06-16 15:55:14.546,1327748,R_Hip,0.0461,0.0054,0.9943,0.26,-1.58,1.79,-19.42,25.98,-33.33,0.941435,-0.003601,-0.041414,-0.334513,0.0,0.0,0.0,0,0
2026-06-16 15:55:14.547,1327847,L_Hip,0.1166,-0.0735,0.9929,-4.16,4.51,2.96,-5.07,32.28,-24.61,0.994324,-0.033479,-0.068148,-0.074129,0.0,0.0,0.0,0,0
2026-06-16 15:55:14.548,1327867,L_Hip,0.1156,-0.0725,1.0103,-4.16,4.51,2.98,0.0,0.0,0.0,0.994324,-0.033509,-0.068178,-0.074099,0.0,0.0,0.0,0,0
2026-06-16 15:55:14.550,1327887,L_Hip,0.1205,-0.0813,0.9919,-4.16,4.51,2.97,-4.4,32.29,-24.33,0.994324,-0.033479,-0.068178,-0.074099,0.0,0.0,0.0,0,0
2026-06-16 15:55:14.555,1327837,L_Shank,0.0067,-0.0253,0.9815,1.77,-1.19,-0.19,-2.4,15.33,-23.5,0.9729,-0.002747,-0.025605,0.229682,0.0,0.0,0.0,0,0
2026-06-16 15:55:14.556,1327857,L_Shank,0.0047,-0.0263,0.9844,1.76,-1.19,-0.19,-1.87,16.19,-23.98,0.9729,-0.002747,-0.025575,0.229682,0.0,0.0,0.0,0,0
2026-06-16 15:55:14.558,1327877,L_Shank,0.0081,-0.0214,0.9887,1.77,-1.18,-0.19,0.0,0.0,0.0,0.9729,-0.002747,-0.025605,0.229682,0.0,0.0,0.0,0,0
2026-06-16 15:55:14.559,1327897,L_Shank,-0.005,-0.0141,0.9786,1.77,-1.18,-0.2,-3.27,16.87,-23.97,0.9729,-0.002747,-0.025605,0.229682,0.0,0.0,0.0,0,0
2026-06-16 15:55:14.579,1327861,L_Shank,-0.0025,-0.0214,0.9825,1.76,-1.21,-0.19,-2.05,16.01,-23.2,0.9729,-0.002747,-0.025605,0.229682,0.0,0.0,0.0,0,0
2026-06-16 15:55:14.581,1327881,L_Shank,-0.003,-0.0248,0.9897,1.76,-1.2,-0.2,-3.26,16.54,-24.59,0.9729,-0.002747,-0.025605,0.229682,0.0,0.0,0.0,0,0
2026-06-16 15:55:14.582,1327901,L_Shank,0.0042,-0.0219,0.9858,1.75,-1.2,-0.21,0.0,0.0,0.0,0.9729,-0.002777,-0.025575,0.229682,0.0,0.0,0.0,0,0
2026-06-16 15:55:14.584,1327862,L_Shank,-0.003,-0.0219,0.9719,1.77,-1.18,-0.19,-2.92,15.51,-23.96,0.9729,-0.002747,-0.025605,0.229682,0.0,0.0,0.0,0,0
2026-06-16 15:55:14.585,1327733,R_Ankle,0.0238,-0.0121,1.0019,0.77,-1.73,-0.48,-11.62,30.55,-30.48,0.10886,0.085757,0.029267,0.989898,0.0,0.0,0.0,0,0
2026-06-16 15:55:14.587,1327753,R_Ankle,0.0106,-0.0101,1.0077,0.77,-1.74,-0.47,0.0,0.0,0.0,0.10886,0.085757,0.029237,0.989898,0.0,0.0,0.0,0,0
2026-06-16 15:55:14.589,1327773,R_Ankle,0.0023,-0.021,1.0067,0.76,-1.71,-0.49,-13.14,32.61,-30.98,0.108829,0.085757,0.029237,0.989898,0.0,0.0,0.0,0,0
2026-06-16 15:55:14.589,1327871,L_Hip,0.12,-0.0764,0.9929,-4.15,4.5,2.98,-5.4,31.96,-25.47,0.994324,-0.033479,-0.068178,-0.074099,0.0,0.0,0.0,0,0
2026-06-16 15:55:14.591,1327891,L_Hip,0.1195,-0.0789,0.9875,-4.16,4.5,2.98,-5.88,32.43,-26.78,0.994324,-0.033479,-0.068148,-0.074099,0.0,0.0,0.0,0,0
2026-06-16 15:55:14.591,1327793,R_Ankle,0.0224,-0.0131,1.0014,0.76,-1.74,-0.5,-12.62,31.8,-29.27,0.108829,0.085757,0.029237,0.989898,0.0,0.0,0.0,0,0
2026-06-16 15:55:14.593,1327911,L_Hip,0.12,-0.0715,0.9856,-4.16,4.51,2.96,0.0,0.0,0.0,0.994324,-0.033448,-0.068148,-0.074129,0.0,0.0,0.0,0,0
2026-06-16 15:55:14.594,1327735,R_Shank,0.0355,-2.132,1.008,-0.08,-1.48,-8.42,-11.04,26.01,-21.74,0.901273,0.036409,-0.017304,0.431349,0.0,0.0,0.0,0,0
2026-06-16 15:55:14.595,1327931,L_Hip,0.1249,-0.0739,0.9817,-4.16,4.51,2.97,-5.72,33.88,-24.31,0.994354,-0.033448,-0.068148,-0.074099,0.0,0.0,0.0,0,0
2026-06-16 15:55:14.597,1327755,R_Shank,0.0399,1.3392,1.0157,-0.11,-1.47,-8.42,-11.05,26.01,-21.14,0.901273,0.036409,-0.017335,0.431349,0.0,0.0,0.0,0,0
2026-06-16 15:55:14.598,1327775,R_Shank,0.0384,0.698,1.01,-0.09,-1.46,-8.42,0.0,0.0,0.0,0.901242,0.036439,-0.017304,0.431349,0.0,0.0,0.0,0,0
2026-06-16 15:55:14.601,1327795,R_Shank,0.0429,2.3688,0.9994,-0.09,-1.48,-8.42,-12.42,27.69,-21.72,0.901242,0.036439,-0.017304,0.431349,0.0,0.0,0.0,0,0
2026-06-16 15:55:14.602,1327884,L_Ankle,0.081,0.0354,0.988,5.41,-0.84,-10.3,-18.3,-6.55,-47.35,0.991729,0.017304,-0.055513,-0.11417,0.0,0.0,0.0,0,0
2026-06-16 15:55:14.603,1327904,L_Ankle,0.0791,0.0192,0.9899,5.41,-0.86,-10.3,-17.98,-5.5,-48.02,0.991729,0.017304,-0.055513,-0.11417,0.0,0.0,0.0,0,0
2026-06-16 15:55:14.605,1327924,L_Ankle,0.0844,0.0276,0.9851,5.4,-0.84,-10.28,0.0,0.0,0.0,0.991729,0.017304,-0.055513,-0.11417,0.0,0.0,0.0,0,0
2026-06-16 15:55:14.607,1327755,R_Ankle,0.0135,-0.0072,1.0096,0.76,-1.72,-0.49,-12.1,32.28,-28.81,0.108829,0.085757,0.029237,0.989898,0.0,0.0,0.0,0,0
2026-06-16 15:55:14.608,1327944,L_Ankle,0.0859,0.0251,0.9914,5.41,-0.86,-10.29,-19.38,-5.48,-48.05,0.991729,0.017304,-0.055513,-0.11417,0.0,0.0,0.0,0,0
2026-06-16 15:55:14.610,1327775,R_Ankle,0.0194,-0.0042,0.989,0.77,-1.72,-0.49,0.0,0.0,0.0,0.108829,0.085757,0.029237,0.989898,0.0,0.0,0.0,0,0
2026-06-16 15:55:14.610,1327886,L_Shank,0.0028,-0.0156,0.9825,1.77,-1.17,-0.2,-3.96,15.85,-23.95,0.9729,-0.002777,-0.025605,0.229682,0.0,0.0,0.0,0,0
2026-06-16 15:55:14.612,1327795,R_Ankle,0.0204,-0.0181,0.9943,0.77,-1.74,-0.49,-12.44,32.92,-29.43,0.108829,0.085757,0.029237,0.989898,0.0,0.0,0.0,0,0
2026-06-16 15:55:14.613,1327906,L_Shank,0.0013,-0.019,0.9868,1.76,-1.17,-0.2,-2.22,15.51,-23.97,0.9729,-0.002777,-0.025605,0.229682,0.0,0.0,0.0,0,0
2026-06-16 15:55:14.614,1327815,R_Ankle,0.0179,-0.0042,0.9957,0.77,-1.72,-0.49,-12.29,32.14,-30.81,0.108829,0.085788,0.029237,0.989898,0.0,0.0,0.0,0,0
2026-06-16 15:55:14.615,1327926,L_Shank,-0.0064,-0.016,0.9834,1.77,-1.19,-0.19,0.0,0.0,0.0,0.9729,-0.002777,-0.025636,0.229682,0.0,0.0,0.0,0,0
2026-06-16 15:55:14.617,1327757,R_Shank,0.0355,-0.0724,0.9994,-0.09,-1.46,-8.43,-10.67,24.67,-22.66,0.901242,0.036439,-0.017335,0.431349,0.0,0.0,0.0,0,0
2026-06-16 15:55:14.617,1327946,L_Shank,0.0003,-0.0136,0.9887,1.76,-1.19,-0.2,-1.53,15.84,-23.04,0.9729,-0.002777,-0.025636,0.229682,0.0,0.0,0.0,0,0
2026-06-16 15:55:14.619,1327777,R_Shank,0.0399,-1.3612,0.9917,-0.08,-1.45,-8.42,-12.04,25.69,-22.94,0.901273,0.036439,-0.017304,0.431349,0.0,0.0,0.0,0,0
2026-06-16 15:55:14.620,1327894,L_Hip,0.1239,-0.071,0.9885,-4.16,4.51,2.97,-4.91,32.12,-24.17,0.994324,-0.033448,-0.068148,-0.074099,0.0,0.0,0.0,0,0
2026-06-16 15:55:14.622,1327797,R_Shank,0.0409,-0.9728,0.9922,-0.09,-1.45,-8.43,0.0,0.0,0.0,0.901242,0.03647,-0.017304,0.431349,0.0,0.0,0.0,0,0
2026-06-16 15:55:14.622,1327914,L_Hip,0.1097,-0.0754,0.9909,-4.16,4.51,2.98,-4.89,33.09,-24.47,0.994324,-0.033448,-0.068148,-0.074129,0.0,0.0,0.0,0,0
2026-06-16 15:55:14.624,1327817,R_Shank,0.038,3.01,1.0167,-0.09,-1.45,-8.41,-10.32,24.66,-23.87,0.901242,0.03647,-0.017304,0.431349,0.0,0.0,0.0,0,0
2026-06-16 15:55:14.624,1327934,L_Hip,0.1195,-0.0646,0.9716,-4.16,4.51,2.96,0.0,0.0,0.0,0.994324,-0.033448,-0.068178,-0.074099,0.0,0.0,0.0,0,0
2026-06-16 15:55:14.626,1327762,R_Hip,0.0382,0.0045,0.9789,0.28,-1.58,1.77,-18.5,26.89,-32.13,0.941435,-0.003632,-0.041414,-0.334513,0.0,0.0,0.0,0,0
2026-06-16 15:55:14.627,1327954,L_Hip,0.1117,-0.0754,0.9841,-4.16,4.51,2.96,-5.92,33.39,-23.0,0.994324,-0.033479,-0.068178,-0.074099,0.0,0.0,0.0,0,0
2026-06-16 15:55:14.629,1327782,R_Hip,0.0496,0.0035,0.9871,0.26,-1.58,1.79,-19.6,27.26,-31.79,0.941435,-0.003632,-0.041414,-0.334513,0.0,0.0,0.0,0,0
2026-06-16 15:55:14.629,1327906,L_Ankle,0.0761,0.0305,0.9813,5.41,-0.83,-10.29,-18.83,-5.66,-46.85,0.991729,0.017335,-0.055544,-0.11417,0.0,0.0,0.0,0,0
2026-06-16 15:55:14.631,1327802,R_Hip,0.0436,0.0079,0.989,0.27,-1.58,1.78,0.0,0.0,0.0,0.941465,-0.003632,-0.041414,-0.334513,0.0,0.0,0.0,0,0
2026-06-16 15:55:14.632,1327926,L_Ankle,0.0844,0.0285,0.9861,5.41,-0.84,-10.29,-17.95,-5.49,-46.32,0.991729,0.017335,-0.055544,-0.11417,0.0,0.0,0.0,0,0
2026-06-16 15:55:14.634,1327946,L_Ankle,0.082,0.0305,0.9928,5.41,-0.86,-10.31,0.0,0.0,0.0,0.991729,0.017335,-0.055574,-0.11417,0.0,0.0,0.0,0,0
2026-06-16 15:55:14.634,1327822,R_Hip,0.0451,0.0074,0.9958,0.26,-1.58,1.78,-18.69,27.08,-33.33,0.941465,-0.003632,-0.041414,-0.334513,0.0,0.0,0.0,0,0
2026-06-16 15:55:14.636,1327907,L_Ankle,0.0864,0.028,0.9842,5.4,-0.87,-10.29,-17.1,-4.98,-47.49,0.991729,0.017335,-0.055544,-0.11417,0.0,0.0,0.0,0,0
2026-06-16 15:55:14.636,1327778,R_Ankle,0.015,-0.02,0.9962,0.77,-1.73,-0.49,-13.13,31.96,-29.74,0.108829,0.085818,0.029237,0.989898,0.0,0.0,0.0,0,0
2026-06-16 15:55:14.638,1327911,L_Shank,0.0062,-0.0151,0.9906,1.77,-1.19,-0.19,-2.91,16.87,-24.29,0.9729,-0.002777,-0.025605,0.229682,0.0,0.0,0.0,0,0
2026-06-16 15:55:14.639,1327798,R_Ankle,0.017,-0.0126,1.0115,0.76,-1.73,-0.48,0.0,0.0,0.0,0.108829,0.085818,0.029267,0.989898,0.0,0.0,0.0,0,0
2026-06-16 15:55:14.641,1327931,L_Shank,-0.003,-0.0293,0.9738,1.76,-1.19,-0.19,-3.09,14.66,-23.79,0.9729,-0.002777,-0.025605,0.229682,0.0,0.0,0.0,0,0
2026-06-16 15:55:14.641,1327818,R_Ankle,0.015,-0.0126,1.0129,0.76,-1.73,-0.49,-13.82,31.97,-30.67,0.108829,0.085818,0.029237,0.989898,0.0,0.0,0.0,0,0
2026-06-16 15:55:14.643,1327951,L_Shank,0.0033,-0.0244,0.995,1.75,-1.17,-0.19,0.0,0.0,0.0,0.9729,-0.002777,-0.025636,0.229682,0.0,0.0,0.0,0,0
2026-06-16 15:55:14.644,1327838,R_Ankle,0.0219,-0.0151,0.9971,0.76,-1.73,-0.48,-12.95,32.75,-29.28,0.108829,0.085818,0.029237,0.989898,0.0,0.0,0.0,0,0
2026-06-16 15:55:14.646,1327971,L_Shank,0.0023,-0.0219,0.9873,1.77,-1.19,-0.19,-3.08,15.01,-24.73,0.9729,-0.002777,-0.025605,0.229682,0.0,0.0,0.0,0,0
2026-06-16 15:55:14.646,1327779,R_Shank,0.0404,2.1096,0.9946,-0.08,-1.47,-8.43,-12.37,25.69,-22.94,0.901242,0.036409,-0.017212,0.431379,0.0,0.0,0.0,0,0
2026-06-16 15:55:14.648,1327916,L_Hip,0.1185,-0.0744,0.9846,-4.16,4.52,2.97,-5.93,32.1,-24.16,0.994324,-0.033448,-0.068178,-0.074099,0.0,0.0,0.0,0,0
2026-06-16 15:55:14.648,1327799,R_Shank,0.0355,-2.7732,1.0234,-0.08,-1.48,-8.42,0.0,0.0,0.0,0.901242,0.036409,-0.017212,0.431379,0.0,0.0,0.0,0,0
2026-06-16 15:55:14.650,1327936,L_Hip,0.1229,-0.0779,0.9885,-4.15,4.49,2.96,-4.71,32.61,-25.78,0.994324,-0.033448,-0.068209,-0.074099,0.0,0.0,0.0,0,0
2026-06-16 15:55:14.651,1327819,R_Shank,0.0316,-0.8432,1.0109,-0.09,-1.45,-8.42,-12.04,25.37,-21.74,0.901242,0.036439,-0.017212,0.431379,0.0,0.0,0.0,0,0
2026-06-16 15:55:14.652,1327956,L_Hip,0.1225,-0.0774,0.9938,-4.16,4.51,2.96,-5.91,33.07,-24.16,0.994324,-0.033448,-0.068209,-0.074099,0.0,0.0,0.0,0,0
2026-06-16 15:55:14.653,1327839,R_Shank,0.0458,2.4984,1.0109,-0.09,-1.46,-8.41,-11.89,26.52,-21.88,0.901242,0.036439,-0.017212,0.431379,0.0,0.0,0.0,0,0
2026-06-16 15:55:14.654,1327976,L_Hip,0.1279,-0.072,0.9948,-4.15,4.51,2.96,0.0,0.0,0.0,0.994324,-0.033418,-0.068209,-0.074099,0.0,0.0,0.0,0,0
2026-06-16 15:55:14.655,1327787,R_Hip,0.0313,0.0128,0.9861,0.26,-1.58,1.77,-17.77,27.99,-31.79,0.941465,-0.003632,-0.041414,-0.334513,0.0,0.0,0.0,0,0
2026-06-16 15:55:14.657,1327936,L_Shank,0.0091,-0.0204,0.9849,1.76,-1.19,-0.2,-3.08,14.67,-24.73,0.9729,-0.002777,-0.025575,0.229682,0.0,0.0,0.0,0,0
2026-06-16 15:55:14.659,1327807,R_Hip,0.0451,0.0152,0.9808,0.26,-1.56,1.8,-19.05,28.9,-33.34,0.941465,-0.003632,-0.041444,-0.334513,0.0,0.0,0.0,0,0
2026-06-16 15:55:14.664,1327827,R_Hip,0.0441,0.0098,0.989,0.27,-1.56,1.78,0.0,0.0,0.0,0.941465,-0.003601,-0.041444,-0.334513,0.0,0.0,0.0,0,0
2026-06-16 15:55:14.664,1327956,L_Shank,0.0057,-0.0195,0.994,1.76,-1.19,-0.19,-2.4,15.34,-23.81,0.9729,-0.002747,-0.025575,0.229682,0.0,0.0,0.0,0,0
2026-06-16 15:55:14.667,1327976,L_Shank,0.0101,-0.0234,0.9863,1.74,-1.19,-0.19,-2.05,14.66,-23.8,0.9729,-0.002747,-0.025544,0.229682,0.0,0.0,0.0,0,0
2026-06-16 15:55:14.667,1327847,R_Hip,0.0491,0.0093,0.9919,0.25,-1.56,1.78,-18.5,27.62,-31.45,0.941465,-0.003601,-0.041414,-0.334513,0.0,0.0,0.0,0,0
2026-06-16 15:55:14.670,1327800,R_Ankle,0.0121,-0.0101,1.0053,0.76,-1.71,-0.49,-12.79,32.6,-29.74,0.108829,0.085849,0.029206,0.989898,0.0,0.0,0.0,0,0
2026-06-16 15:55:14.670,1327996,L_Shank,0.0008,-0.0165,0.9921,1.77,-1.2,-0.2,-4.13,14.68,-25.34,0.9729,-0.002747,-0.025544,0.229682,0.0,0.0,0.0,0,0
2026-06-16 15:55:14.672,1327820,R_Ankle,0.0179,-0.0081,0.999,0.77,-1.72,-0.48,0.0,0.0,0.0,0.108829,0.085849,0.029176,0.989898,0.0,0.0,0.0,0,0
2026-06-16 15:55:14.673,1327939,L_Hip,0.1185,-0.0671,0.9711,-4.16,4.49,2.96,-5.54,33.4,-25.33,0.994324,-0.033448,-0.068178,-0.074099,0.0,0.0,0.0,0,0
2026-06-16 15:55:14.674,1327840,R_Ankle,0.014,-0.0101,1.0101,0.78,-1.72,-0.49,-11.76,32.61,-29.42,0.108798,0.085849,0.029206,0.989898,0.0,0.0,0.0,0,0
2026-06-16 15:55:14.675,1327959,L_Hip,0.1239,-0.0798,0.9895,-4.16,4.51,2.96,-5.38,33.57,-24.9,0.994324,-0.033418,-0.068178,-0.074099,0.0,0.0,0.0,0,0
2026-06-16 15:55:14.677,1327860,R_Ankle,0.0091,-0.0116,0.999,0.77,-1.71,-0.5,-11.6,32.78,-30.19,0.108798,0.085849,0.029206,0.989898,0.0,0.0,0.0,0,0
2026-06-16 15:55:14.678,1327979,L_Hip,0.1146,-0.0774,0.9769,-4.17,4.51,2.97,-5.57,33.08,-24.46,0.994324,-0.033418,-0.068178,-0.074099,0.0,0.0,0.0,0,0
2026-06-16 15:55:14.679,1327802,R_Shank,0.0355,2.4984,1.0076,-0.08,-1.47,-8.42,-12.4,26.69,-22.33,0.901242,0.036409,-0.017212,0.431379,0.0,0.0,0.0,0,0
2026-06-16 15:55:14.680,1327999,L_Hip,0.1205,-0.0735,0.9875,-4.16,4.51,2.98,0.0,0.0,0.0,0.994324,-0.033418,-0.068178,-0.074099,0.0,0.0,0.0,0,0
2026-06-16 15:55:14.682,1327822,R_Shank,0.0414,-0.3316,1.0066,-0.09,-1.47,-8.44,0.0,0.0,0.0,0.901242,0.036409,-0.017212,0.431379,0.0,0.0,0.0,0,0
2026-06-16 15:55:14.683,1327951,L_Ankle,0.081,0.0183,0.9899,5.41,-0.85,-10.29,-17.29,-4.8,-48.0,0.991729,0.017365,-0.055544,-0.11417,0.0,0.0,0.0,0,0
2026-06-16 15:55:14.684,1327842,R_Shank,0.0311,0.5684,1.0215,-0.1,-1.48,-8.43,-11.2,25.84,-22.19,0.901242,0.036439,-0.017212,0.431379,0.0,0.0,0.0,0,0
2026-06-16 15:55:14.685,1327971,L_Ankle,0.0766,0.0236,0.999,5.4,-0.84,-10.29,-17.98,-5.14,-47.68,0.991729,0.017365,-0.055574,-0.11417,0.0,0.0,0.0,0,0
2026-06-16 15:55:14.687,1327862,R_Shank,0.035,1.5984,1.0109,-0.08,-1.47,-8.43,-10.2,26.81,-23.1,0.901242,0.036409,-0.017212,0.431349,0.0,0.0,0.0,0,0
2026-06-16 15:55:14.688,1327991,L_Ankle,0.0791,0.0285,0.9938,5.39,-0.84,-10.29,-19.01,-6.19,-47.7,0.991729,0.017335,-0.055574,-0.11417,0.0,0.0,0.0,0,0
2026-06-16 15:55:14.689,1327812,R_Hip,0.0436,0.0079,0.9943,0.28,-1.57,1.78,-19.78,28.17,-31.97,0.941465,-0.003601,-0.041414,-0.334483,0.0,0.0,0.0,0,0
2026-06-16 15:55:14.690,1327952,L_Ankle,0.082,0.0305,1.0163,5.4,-0.83,-10.28,0.0,0.0,0.0,0.991729,0.017365,-0.055605,-0.11417,0.0,0.0,0.0,0,0
2026-06-16 15:55:14.691,1327832,R_Hip,0.0427,0.0006,1.0126,0.26,-1.58,1.77,-18.69,28.17,-32.65,0.941465,-0.003601,-0.041414,-0.334483,0.0,0.0,0.0,0,0
2026-06-16 15:55:14.692,1327974,L_Ankle,0.0776,0.0261,0.9822,5.4,-0.84,-10.29,-18.3,-6.2,-47.35,0.991729,0.017335,-0.055605,-0.11417,0.0,0.0,0.0,0,0
2026-06-16 15:55:14.693,1327852,R_Hip,0.0451,-0.0008,0.9885,0.26,-1.57,1.79,0.0,0.0,0.0,0.941465,-0.003601,-0.041383,-0.334483,0.0,0.0,0.0,0,0
2026-06-16 15:55:14.695,1327994,L_Ankle,0.0707,0.0276,0.9875,5.4,-0.83,-10.29,-19.03,-6.55,-49.06,0.991729,0.017335,-0.055574,-0.11417,0.0,0.0,0.0,0,0
2026-06-16 15:55:14.696,1327872,R_Hip,0.0461,0.0132,0.9847,0.26,-1.58,1.77,-19.23,27.62,-32.82,0.941465,-0.003632,-0.041383,-0.334483,0.0,0.0,0.0,0,0
2026-06-16 15:55:14.697,1328014,L_Ankle,0.0884,0.0246,0.988,5.4,-0.85,-10.29,0.0,0.0,0.0,0.991729,0.017365,-0.055574,-0.114139,0.0,0.0,0.0,0,0
2026-06-16 15:55:14.698,1327824,R_Shank,0.0414,-1.7432,0.998,-0.09,-1.45,-8.42,-11.22,27.16,-22.79,0.901242,0.036409,-0.017182,0.431349,0.0,0.0,0.0,0,0
2026-06-16 15:55:14.700,1328034,L_Ankle,0.0742,0.0217,0.9986,5.4,-0.83,-10.29,-19.76,-5.12,-49.41,0.991729,0.017365,-0.055574,-0.11417,0.0,0.0,0.0,0,0
2026-06-16 15:55:14.700,1327844,R_Shank,0.0375,-2.6436,1.0109,-0.09,-1.47,-8.41,0.0,0.0,0.0,0.901242,0.036439,-0.017182,0.431349,0.0,0.0,0.0,0,0
2026-06-16 15:55:14.703,1327985,L_Hip,0.1225,-0.0695,0.9832,-4.14,4.51,2.97,-4.73,32.61,-24.61,0.994324,-0.033418,-0.068178,-0.074099,0.0,0.0,0.0,0,0
2026-06-16 15:55:14.703,1327864,R_Shank,0.0345,0.4388,1.0008,-0.09,-1.46,-8.41,-12.41,27.02,-22.02,0.901242,0.036439,-0.017182,0.431379,0.0,0.0,0.0,0,0
2026-06-16 15:55:14.705,1328005,L_Hip,0.1185,-0.0808,1.0001,-4.16,4.51,2.96,-5.92,31.78,-24.74,0.994324,-0.033418,-0.068209,-0.074099,0.0,0.0,0.0,0,0
2026-06-16 15:55:14.706,1327884,R_Shank,0.035,-1.8728,0.996,-0.09,-1.47,-8.42,-11.72,26.68,-22.33,0.901242,0.036439,-0.017212,0.431379,0.0,0.0,0.0,0,0
2026-06-16 15:55:14.708,1328025,L_Hip,0.119,-0.0774,0.9808,-4.16,4.51,2.95,-4.73,33.57,-23.17,0.994324,-0.033387,-0.068209,-0.074129,0.0,0.0,0.0,0,0
2026-06-16 15:55:14.709,1327845,R_Ankle,0.016,-0.0121,1.0062,0.75,-1.73,-0.51,-12.97,32.45,-30.82,0.108829,0.085849,0.029206,0.989898,0.0,0.0,0.0,0,0
2026-06-16 15:55:14.710,1327865,R_Ankle,0.0155,-0.0042,1.0101,0.77,-1.72,-0.5,0.0,0.0,0.0,0.108829,0.085879,0.029206,0.989898,0.0,0.0,0.0,0,0
2026-06-16 15:55:14.711,1328045,L_Hip,0.122,-0.0749,0.9895,-4.15,4.5,2.96,-5.22,33.73,-24.47,0.994324,-0.033418,-0.068209,-0.074129,0.0,0.0,0.0,0,0
2026-06-16 15:55:14.713,1327885,R_Ankle,0.0077,-0.0062,1.0072,0.76,-1.72,-0.5,-11.94,31.18,-29.56,0.108829,0.085879,0.029206,0.989898,0.0,0.0,0.0,0,0
2026-06-16 15:55:14.713,1327986,L_Shank,-0.0069,-0.0165,0.9959,1.76,-1.19,-0.2,-1.87,16.19,-23.98,0.9729,-0.002747,-0.025544,0.229682,0.0,0.0,0.0,0,0
2026-06-16 15:55:14.715,1327905,R_Ankle,0.0155,-0.0076,0.9914,0.77,-1.72,-0.47,-11.6,32.14,-29.88,0.108798,0.085849,0.029206,0.989898,0.0,0.0,0.0,0,0
2026-06-16 15:55:14.715,1328006,L_Shank,0.0057,-0.0204,0.9916,1.74,-1.18,-0.19,0.0,0.0,0.0,0.9729,-0.002716,-0.025575,0.229713,0.0,0.0,0.0,0,0
2026-06-16 15:55:14.718,1328026,L_Shank,-0.0054,-0.0195,0.9858,1.77,-1.18,-0.19,-2.03,14.34,-25.04,0.9729,-0.002747,-0.025575,0.229713,0.0,0.0,0.0,0,0
2026-06-16 15:55:14.718,1327862,R_Hip,0.0407,0.0054,0.9856,0.27,-1.56,1.78,-18.87,27.62,-32.13,0.941465,-0.003632,-0.041383,-0.334483,0.0,0.0,0.0,0,0
2026-06-16 15:55:14.720,1328046,L_Shank,0.0091,-0.0185,0.9902,1.75,-1.18,-0.19,0.0,0.0,0.0,0.9729,-0.002777,-0.025575,0.229713,0.0,0.0,0.0,0,0
2026-06-16 15:55:14.720,1327882,R_Hip,0.0328,0.0142,0.9881,0.26,-1.57,1.78,-19.05,28.17,-31.97,0.941465,-0.003632,-0.041383,-0.334483,0.0,0.0,0.0,0,0
2026-06-16 15:55:14.722,1327902,R_Hip,0.0436,0.0132,0.9905,0.29,-1.57,1.77,0.0,0.0,0.0,0.941465,-0.003632,-0.041353,-0.334483,0.0,0.0,0.0,0,0
2026-06-16 15:55:14.724,1327922,R_Hip,0.0481,0.0118,0.9943,0.26,-1.58,1.77,-19.05,28.9,-31.97,0.941465,-0.003601,-0.041353,-0.334483,0.0,0.0,0.0,0,0
2026-06-16 15:55:14.724,1328006,L_Hip,0.1229,-0.0715,0.9895,-4.16,4.51,2.97,-6.75,32.89,-24.59,0.994324,-0.033418,-0.068209,-0.074129,0.0,0.0,0.0,0,0
2026-06-16 15:55:14.726,1328026,L_Hip,0.1303,-0.0695,0.9837,-4.17,4.5,2.96,0.0,0.0,0.0,0.994324,-0.033418,-0.068209,-0.074129,0.0,0.0,0.0,0,0
2026-06-16 15:55:14.728,1328046,L_Hip,0.1249,-0.072,0.9808,-4.16,4.49,2.97,-4.07,32.3,-23.75,0.994324,-0.033418,-0.068209,-0.074129,0.0,0.0,0.0,0,0
2026-06-16 15:55:14.729,1328007,L_Hip,0.1225,-0.0695,0.9841,-4.16,4.51,2.96,-5.59,32.43,-23.87,0.994324,-0.033448,-0.068209,-0.074129,0.0,0.0,0.0,0,0
2026-06-16 15:55:14.731,1328011,L_Shank,0.0008,-0.0185,0.981,1.74,-1.19,-0.21,-3.97,14.49,-23.94,0.9729,-0.002777,-0.025575,0.229713,0.0,0.0,0.0,0,0
2026-06-16 15:55:14.733,1328031,L_Shank,0.0057,-0.0214,0.9791,1.75,-1.19,-0.2,-3.44,14.67,-24.41,0.9729,-0.002777,-0.025605,0.229713,0.0,0.0,0.0,0,0
2026-06-16 15:55:14.736,1328051,L_Shank,-0.0001,-0.0229,0.981,1.76,-1.19,-0.19,-4.13,15.68,-24.42,0.9729,-0.002777,-0.025636,0.229713,0.0,0.0,0.0,0,0
2026-06-16 15:55:14.737,1328071,L_Shank,0.0003,-0.0234,0.9767,1.76,-1.19,-0.19,0.0,0.0,0.0,0.9729,-0.002747,-0.025605,0.229713,0.0,0.0,0.0,0,0
2026-06-16 15:55:14.739,1328019,L_Ankle,0.0849,0.0261,1.0038,5.41,-0.84,-10.29,-18.36,-5.14,-49.39,0.991729,0.017365,-0.055574,-0.114139,0.0,0.0,0.0,0,0
2026-06-16 15:55:14.741,1328039,L_Ankle,0.0835,0.0271,0.9952,5.4,-0.86,-10.29,-17.63,-5.5,-48.01,0.991729,0.017365,-0.055574,-0.114139,0.0,0.0,0.0,0,0
2026-06-16 15:55:14.743,1328059,L_Ankle,0.0854,0.0236,0.9808,5.4,-0.83,-10.3,-18.3,-6.2,-47.35,0.991729,0.017335,-0.055574,-0.114139,0.0,0.0,0.0,0,0
2026-06-16 15:55:14.745,1327892,R_Shank,0.0419,2.4984,1.008,-0.08,-1.47,-8.43,-10.7,26.0,-22.35,0.901242,0.036439,-0.017212,0.431379,0.0,0.0,0.0,0,0
2026-06-16 15:55:14.746,1328079,L_Ankle,0.0761,0.0217,0.9798,5.4,-0.83,-10.29,-19.19,-5.65,-47.53,0.991729,0.017335,-0.055574,-0.114139,0.0,0.0,0.0,0,0
2026-06-16 15:55:14.747,1327912,R_Shank,0.038,1.728,0.9994,-0.07,-1.47,-8.42,0.0,0.0,0.0,0.901242,0.036439,-0.017243,0.431379,0.0,0.0,0.0,0,0
2026-06-16 15:55:14.748,1328029,L_Hip,0.1244,-0.072,0.9866,-4.16,4.51,2.98,-5.57,32.76,-24.75,0.994324,-0.033448,-0.068209,-0.074129,0.0,0.0,0.0,0,0
2026-06-16 15:55:14.750,1327932,R_Shank,0.0326,-1.1024,1.0119,-0.08,-1.48,-8.43,-11.06,27.0,-22.34,0.901242,0.036439,-0.017243,0.431379,0.0,0.0,0.0,0,0
2026-06-16 15:55:14.750,1328049,L_Hip,0.12,-0.0779,0.9851,-4.16,4.51,2.96,0.0,0.0,0.0,0.994324,-0.033418,-0.068209,-0.074129,0.0,0.0,0.0,0,0
2026-06-16 15:55:14.752,1327952,R_Shank,0.034,-1.7432,0.997,-0.07,-1.48,-8.41,-11.74,27.01,-21.73,0.901242,0.036409,-0.017243,0.431379,0.0,0.0,0.0,0,0
2026-06-16 15:55:14.753,1328069,L_Hip,0.1146,-0.0661,0.9856,-4.16,4.51,2.96,-4.74,33.25,-23.45,0.994324,-0.033418,-0.068209,-0.074129,0.0,0.0,0.0,0,0
2026-06-16 15:55:14.755,1328089,L_Hip,0.1117,-0.0754,0.9803,-4.16,4.5,2.96,-4.56,32.45,-25.05,0.994324,-0.033418,-0.068239,-0.074129,0.0,0.0,0.0,0,0
2026-06-16 15:55:14.765,1327913,R_Hip,0.0353,0.0093,0.9914,0.26,-1.58,1.78,-18.87,27.26,-32.48,0.941465,-0.003601,-0.041353,-0.334483,0.0,0.0,0.0,0,0
2026-06-16 15:55:14.766,1327933,R_Hip,0.0496,0.0049,0.9996,0.26,-1.58,1.77,-19.05,27.08,-33.33,0.941465,-0.003601,-0.041322,-0.334483,0.0,0.0,0.0,0,0
2026-06-16 15:55:14.768,1327953,R_Hip,0.0476,0.0103,0.99,0.26,-1.56,1.77,0.0,0.0,0.0,0.941465,-0.003632,-0.041322,-0.334483,0.0,0.0,0.0,0,0
2026-06-16 15:55:14.769,1328051,L_Hip,0.12,-0.0739,0.9846,-4.16,4.51,2.96,-5.4,32.6,-24.9,0.994324,-0.033418,-0.06827,-0.074129,0.0,0.0,0.0,0,0
2026-06-16 15:55:14.771,1327973,R_Hip,0.0461,0.0171,0.9828,0.27,-1.58,1.77,-18.14,27.25,-31.11,0.941465,-0.003601,-0.041353,-0.334483,0.0,0.0,0.0,0,0
2026-06-16 15:55:14.772,1328052,L_Hip,0.1171,-0.0725,0.9909,-4.16,4.51,2.96,0.0,0.0,0.0,0.994324,-0.033387,-0.06827,-0.074099,0.0,0.0,0.0,0,0
2026-06-16 15:55:14.774,1328072,L_Hip,0.1244,-0.0759,0.9817,-4.16,4.51,2.95,-5.4,33.24,-24.32,0.994324,-0.033387,-0.06827,-0.074099,0.0,0.0,0.0,0,0
2026-06-16 15:55:14.775,1328092,L_Hip,0.1151,-0.0715,0.9846,-4.16,4.5,2.97,-5.25,32.11,-24.17,0.994324,-0.033387,-0.068239,-0.074129,0.0,0.0,0.0,0,0
2026-06-16 15:55:14.781,1328064,L_Ankle,0.0707,0.028,0.9822,5.4,-0.85,-10.29,-18.5,-5.67,-47.86,0.991729,0.017335,-0.055605,-0.114139,0.0,0.0,0.0,0,0
2026-06-16 15:55:14.783,1328084,L_Ankle,0.0761,0.0276,0.9962,5.39,-0.85,-10.29,-18.16,-5.67,-48.53,0.991729,0.017335,-0.055574,-0.114139,0.0,0.0,0.0,0,0
2026-06-16 15:55:14.785,1328104,L_Ankle,0.0786,0.0227,0.987,5.39,-0.84,-10.3,-18.15,-5.67,-47.85,0.991729,0.017335,-0.055544,-0.11417,0.0,0.0,0.0,0,0
2026-06-16 15:55:14.787,1328124,L_Ankle,0.08,0.0276,0.9966,5.41,-0.83,-10.31,-19.74,-5.12,-48.39,0.991729,0.017335,-0.055544,-0.11417,0.0,0.0,0.0,0,0
2026-06-16 15:55:14.788,1327935,R_Ankle,0.0224,-0.0081,1.0014,0.76,-1.74,-0.5,-11.94,32.45,-29.88,0.108798,0.085849,0.029206,0.989898,0.0,0.0,0.0,0,0
2026-06-16 15:55:14.789,1327955,R_Ankle,0.0145,-0.0151,1.0067,0.76,-1.72,-0.51,0.0,0.0,0.0,0.108798,0.085849,0.029206,0.989898,0.0,0.0,0.0,0,0
2026-06-16 15:55:14.791,1327975,R_Ankle,0.0155,-0.0121,0.9928,0.77,-1.72,-0.49,-13.13,32.28,-29.43,0.108829,0.085879,0.029206,0.989898,0.0,0.0,0.0,0,0
2026-06-16 15:55:14.792,1328074,L_Hip,0.1225,-0.0666,0.9861,-4.15,4.51,2.97,-4.2,34.07,-24.19,0.994324,-0.033387,-0.068239,-0.074129,0.0,0.0,0.0,0,0
2026-06-16 15:55:14.793,1327995,R_Ankle,0.0106,-0.0086,0.9986,0.74,-1.72,-0.49,-11.25,33.09,-29.58,0.108798,0.085879,0.029206,0.989898,0.0,0.0,0.0,0,0
2026-06-16 15:55:14.795,1328094,L_Hip,0.1176,-0.0749,0.9895,-4.16,4.5,2.97,0.0,0.0,0.0,0.994324,-0.033387,-0.068239,-0.074129,0.0,0.0,0.0,0,0
2026-06-16 15:55:14.797,1328114,L_Hip,0.1229,-0.0749,0.99,-4.16,4.49,2.97,-5.71,33.88,-25.19,0.994324,-0.033418,-0.068239,-0.074129,0.0,0.0,0.0,0,0
2026-06-16 15:55:14.799,1328134,L_Hip,0.1249,-0.0789,0.9919,-4.16,4.51,2.96,-4.58,32.45,-23.6,0.994324,-0.033418,-0.068239,-0.074129,0.0,0.0,0.0,0,0
2026-06-16 15:55:14.804,1328087,L_Shank,0.0028,-0.0185,0.983,1.76,-1.19,-0.19,-2.93,15.16,-23.02,0.9729,-0.002777,-0.025636,0.229713,0.0,0.0,0.0,0,0
2026-06-16 15:55:14.806,1328107,L_Shank,0.0023,-0.0126,0.9935,1.75,-1.21,-0.22,-3.44,16.36,-24.12,0.9729,-0.002777,-0.025636,0.229713,0.0,0.0,0.0,0,0
2026-06-16 15:55:14.807,1328127,L_Shank,-0.0035,-0.0214,0.9786,1.76,-1.19,-0.19,-2.05,16.69,-23.21,0.9729,-0.002777,-0.025605,0.229743,0.0,0.0,0.0,0,0
2026-06-16 15:55:14.810,1328147,L_Shank,-0.0069,-0.0258,0.9993,1.75,-1.19,-0.19,-2.39,16.02,-24.13,0.9729,-0.002777,-0.025636,0.229743,0.0,0.0,0.0,0,0
2026-06-16 15:55:14.810,1327958,R_Ankle,0.0091,-0.0146,1.0034,0.77,-1.72,-0.51,-12.63,32.45,-30.51,0.108798,0.085879,0.029206,0.989898,0.0,0.0,0.0,0,0
2026-06-16 15:55:14.812,1327978,R_Ankle,0.0248,-0.0096,0.9971,0.76,-1.71,-0.5,-12.28,32.45,-29.89,0.108829,0.08591,0.029237,0.989898,0.0,0.0,0.0,0,0
2026-06-16 15:55:14.814,1327998,R_Ankle,0.014,-0.0131,1.024,0.76,-1.71,-0.51,0.0,0.0,0.0,0.108829,0.08591,0.029206,0.989898,0.0,0.0,0.0,0,0
2026-06-16 15:55:14.816,1328018,R_Ankle,0.017,-0.0116,1.0077,0.76,-1.72,-0.49,-12.27,32.45,-29.58,0.108829,0.08591,0.029206,0.989898,0.0,0.0,0.0,0,0
2026-06-16 15:55:14.817,1327960,R_Shank,0.036,-0.9728,1.0128,-0.08,-1.47,-8.42,-11.52,25.84,-23.7,0.901242,0.036439,-0.017243,0.431379,0.0,0.0,0.0,0,0
2026-06-16 15:55:14.819,1327980,R_Shank,0.0384,-0.0724,1.0032,-0.09,-1.47,-8.43,-10.52,25.5,-22.2,0.901242,0.036409,-0.017243,0.431379,0.0,0.0,0.0,0,0
2026-06-16 15:55:14.821,1328000,R_Shank,0.0404,-2.2548,0.9912,-0.08,-1.47,-8.41,-11.37,25.68,-22.34,0.901242,0.036378,-0.017243,0.431379,0.0,0.0,0.0,0,0
2026-06-16 15:55:14.822,1328020,R_Shank,0.0429,0.0572,1.0052,-0.08,-1.47,-8.42,0.0,0.0,0.0,0.901242,0.036378,-0.017243,0.431379,0.0,0.0,0.0,0,0
2026-06-16 15:55:14.824,1327962,R_Hip,0.0456,0.0098,0.9794,0.27,-1.57,1.79,-17.96,26.34,-32.64,0.941465,-0.003571,-0.041353,-0.334483,0.0,0.0,0.0,0,0
2026-06-16 15:55:14.826,1327982,R_Hip,0.0422,0.0054,0.9818,0.26,-1.58,1.77,-18.69,25.61,-32.3,0.941465,-0.00354,-0.041322,-0.334483,0.0,0.0,0.0,0,0
2026-06-16 15:55:14.828,1328109,L_Ankle,0.0795,0.031,0.9813,5.41,-0.85,-10.29,-19.22,-5.66,-49.23,0.991729,0.017335,-0.055513,-0.11417,0.0,0.0,0.0,0,0
2026-06-16 15:55:14.829,1328002,R_Hip,0.0397,0.0093,0.9876,0.25,-1.58,1.77,-18.32,28.17,-32.31,0.941465,-0.00354,-0.041353,-0.334483,0.0,0.0,0.0,0,0
2026-06-16 15:55:14.830,1328129,L_Ankle,0.0864,0.0246,0.9909,5.39,-0.83,-10.3,0.0,0.0,0.0,0.991729,0.017335,-0.055544,-0.11417,0.0,0.0,0.0,0,0
2026-06-16 15:55:14.831,1328022,R_Hip,0.0545,0.0113,0.9876,0.27,-1.57,1.78,0.0,0.0,0.0,0.941465,-0.00354,-0.041353,-0.334483,0.0,0.0,0.0,0,0
2026-06-16 15:55:14.832,1328149,L_Ankle,0.0746,0.0256,1.0034,5.38,-0.83,-10.29,-19.72,-6.18,-48.39,0.991729,0.017335,-0.055544,-0.11417,0.0,0.0,0.0,0,0
2026-06-16 15:55:14.833,1327980,R_Ankle,0.0091,-0.0156,0.9899,0.77,-1.72,-0.5,-11.94,31.49,-29.57,0.108829,0.08591,0.029237,0.989898,0.0,0.0,0.0,0,0
2026-06-16 15:55:14.835,1328169,L_Ankle,0.0859,0.0359,0.9904,5.39,-0.83,-10.29,-17.48,-6.04,-49.88,0.991729,0.017365,-0.055574,-0.11417,0.0,0.0,0.0,0,0
2026-06-16 15:55:14.835,1328000,R_Ankle,0.0184,-0.0086,0.9928,0.77,-1.72,-0.49,-11.93,32.77,-29.89,0.108829,0.085879,0.029237,0.989898,0.0,0.0,0.0,0,0
2026-06-16 15:55:14.837,1328111,L_Shank,0.0101,-0.0214,0.9902,1.76,-1.19,-0.2,-3.09,15.34,-24.11,0.9729,-0.002777,-0.025605,0.229743,0.0,0.0,0.0,0,0
2026-06-16 15:55:14.837,1328020,R_Ankle,0.0184,-0.0176,1.0014,0.76,-1.74,-0.48,0.0,0.0,0.0,0.108829,0.085879,0.029237,0.989898,0.0,0.0,0.0,0,0
2026-06-16 15:55:14.839,1328131,L_Shank,0.0003,-0.0248,0.9786,1.76,-1.2,-0.21,-2.74,16.36,-23.82,0.9729,-0.002777,-0.025636,0.229743,0.0,0.0,0.0,0,0
2026-06-16 15:55:14.840,1328040,R_Ankle,0.014,-0.0047,0.999,0.77,-1.72,-0.48,-12.1,33.24,-29.43,0.108798,0.08591,0.029237,0.989898,0.0,0.0,0.0,0,0
2026-06-16 15:55:14.842,1328151,L_Shank,0.0008,-0.0258,0.97,1.75,-1.19,-0.19,-2.05,16.36,-23.82,0.9729,-0.002777,-0.025636,0.229743,0.0,0.0,0.0,0,0
2026-06-16 15:55:14.843,1327987,R_Hip,0.0372,0.0132,0.9876,0.27,-1.56,1.78,-16.68,27.99,-32.47,0.941465,-0.00354,-0.041383,-0.334513,0.0,0.0,0.0,0,0
2026-06-16 15:55:14.845,1328171,L_Shank,-0.0045,-0.0258,0.9983,1.77,-1.19,-0.19,-2.57,15.51,-23.96,0.9729,-0.002777,-0.025636,0.229743,0.0,0.0,0.0,0,0
2026-06-16 15:55:14.846,1328007,R_Hip,0.0476,0.0108,1.002,0.26,-1.58,1.78,-18.32,27.07,-32.65,0.941465,-0.00354,-0.041383,-0.334483,0.0,0.0,0.0,0,0
2026-06-16 15:55:14.847,1328119,L_Hip,0.118,-0.0725,0.9841,-4.16,4.52,2.96,-5.23,33.08,-24.46,0.994324,-0.033418,-0.068239,-0.074129,0.0,0.0,0.0,0,0
2026-06-16 15:55:14.848,1328027,R_Hip,0.0471,0.0045,0.9885,0.25,-1.58,1.77,0.0,0.0,0.0,0.941465,-0.00351,-0.041383,-0.334483,0.0,0.0,0.0,0,0
2026-06-16 15:55:14.849,1328139,L_Hip,0.1239,-0.0705,0.9933,-4.16,4.52,2.96,0.0,0.0,0.0,0.994324,-0.033418,-0.068239,-0.074129,0.0,0.0,0.0,0,0
2026-06-16 15:55:14.850,1328047,R_Hip,0.0436,0.0079,0.9847,0.28,-1.57,1.77,-18.5,27.25,-30.42,0.941465,-0.00354,-0.041383,-0.334483,0.0,0.0,0.0,0,0
2026-06-16 15:55:14.851,1328159,L_Hip,0.1156,-0.0759,0.99,-4.16,4.5,2.97,-6.45,31.61,-24.0,0.994324,-0.033418,-0.068209,-0.074129,0.0,0.0,0.0,0,0
2026-06-16 15:55:14.853,1328179,L_Hip,0.1107,-0.0789,0.9832,-4.16,4.51,2.96,-4.91,32.12,-24.47,0.994324,-0.033418,-0.068239,-0.074129,0.0,0.0,0.0,0,0
2026-06-16 15:55:14.855,1328003,R_Ankle,0.0184,-0.0086,1.0129,0.76,-1.73,-0.49,-11.78,31.34,-30.02,0.108829,0.085879,0.029237,0.989898,0.0,0.0,0.0,0,0
2026-06-16 15:55:14.856,1328136,L_Shank,0.0018,-0.0302,0.9782,1.76,-1.19,-0.19,-2.4,15.0,-23.8,0.9729,-0.002777,-0.025666,0.229743,0.0,0.0,0.0,0,0
2026-06-16 15:55:14.858,1328156,L_Shank,0.0106,-0.0219,0.9854,1.77,-1.19,-0.19,0.0,0.0,0.0,0.9729,-0.002777,-0.025697,0.229743,0.0,0.0,0.0,0,0
2026-06-16 15:55:14.858,1328023,R_Ankle,0.0072,-0.0166,0.9995,0.76,-1.74,-0.5,-12.1,33.24,-29.43,0.108829,0.085879,0.029237,0.989898,0.0,0.0,0.0,0,0
2026-06-16 15:55:14.860,1328043,R_Ankle,0.0116,-0.0151,1.0029,0.76,-1.73,-0.5,0.0,0.0,0.0,0.108829,0.085879,0.029206,0.989898,0.0,0.0,0.0,0,0
2026-06-16 15:55:14.861,1328176,L_Shank,-0.0089,-0.017,0.9892,1.77,-1.18,-0.19,-2.57,15.5,-23.65,0.9729,-0.002777,-0.025666,0.229743,0.0,0.0,0.0,0,0
2026-06-16 15:55:14.864,1328063,R_Ankle,0.0175,-0.0181,1.0014,0.77,-1.73,-0.5,-11.43,31.34,-29.4,0.108829,0.085879,0.029206,0.989898,0.0,0.0,0.0,0,0
2026-06-16 15:55:14.865,1328137,L_Shank,-0.0001,-0.0229,0.969,1.74,-1.19,-0.22,-3.44,16.02,-24.12,0.9729,-0.002808,-0.025666,0.229743,0.0,0.0,0.0,0,0
2026-06-16 15:55:14.866,1328004,R_Shank,0.0438,2.2392,1.0066,-0.09,-1.47,-8.43,-11.03,26.0,-22.65,0.901242,0.036378,-0.017273,0.431379,0.0,0.0,0.0,0,0
2026-06-16 15:55:14.867,1328141,L_Hip,0.1239,-0.0798,0.9967,-4.16,4.5,2.95,-5.23,32.76,-24.46,0.994324,-0.033418,-0.068209,-0.074129,0.0,0.0,0.0,0,0
2026-06-16 15:55:14.869,1328024,R_Shank,0.036,2.4984,1.0076,-0.08,-1.46,-8.41,-12.23,26.85,-22.18,0.901242,0.036348,-0.017273,0.431379,0.0,0.0,0.0,0,0
2026-06-16 15:55:14.869,1328161,L_Hip,0.1229,-0.0735,0.9764,-4.16,4.5,2.96,-4.74,32.93,-23.74,0.994324,-0.033418,-0.068209,-0.074129,0.0,0.0,0.0,0,0
2026-06-16 15:55:14.871,1328044,R_Shank,0.0399,-0.8432,1.0056,-0.09,-1.45,-8.42,0.0,0.0,0.0,0.901242,0.036348,-0.017273,0.431379,0.0,0.0,0.0,0,0
2026-06-16 15:55:14.871,1328181,L_Hip,0.1205,-0.0744,0.9769,-4.14,4.51,2.97,0.0,0.0,0.0,0.994324,-0.033418,-0.068209,-0.074129,0.0,0.0,0.0,0,0
2026-06-16 15:55:14.874,1328064,R_Shank,0.0448,0.8276,1.0186,-0.08,-1.45,-8.41,-11.53,25.51,-22.8,0.901242,0.036348,-0.017273,0.431379,0.0,0.0,0.0,0,0
2026-06-16 15:55:14.874,1328201,L_Hip,0.1185,-0.0749,0.9885,-4.15,4.51,2.96,-6.26,32.74,-23.87,0.994324,-0.033418,-0.068209,-0.074129,0.0,0.0,0.0,0,0
2026-06-16 15:55:14.876,1328012,R_Hip,0.0412,0.0069,0.9876,0.28,-1.57,1.78,-18.51,26.16,-33.84,0.941465,-0.00351,-0.041383,-0.334483,0.0,0.0,0.0,0,0
2026-06-16 15:55:14.877,1328154,L_Ankle,0.0791,0.0158,0.9842,5.4,-0.83,-10.29,-18.69,-5.49,-48.71,0.991729,0.017365,-0.055574,-0.11417,0.0,0.0,0.0,0,0
2026-06-16 15:55:14.880,1328032,R_Hip,0.0486,0.0006,1.0112,0.27,-1.58,1.78,-18.69,28.54,-32.99,0.941465,-0.00351,-0.041383,-0.334483,0.0,0.0,0.0,0,0
2026-06-16 15:55:14.880,1328174,L_Ankle,0.0786,0.0295,0.999,5.39,-0.83,-10.29,0.0,0.0,0.0,0.991729,0.017335,-0.055574,-0.11417,0.0,0.0,0.0,0,0
2026-06-16 15:55:14.883,1328052,R_Hip,0.0471,0.0123,0.9856,0.27,-1.58,1.78,0.0,0.0,0.0,0.941465,-0.00354,-0.041383,-0.334483,0.0,0.0,0.0,0,0
2026-06-16 15:55:14.885,1328194,L_Ankle,0.082,0.0285,0.9842,5.41,-0.83,-10.3,-18.66,-5.84,-47.35,0.991729,0.017365,-0.055574,-0.11417,0.0,0.0,0.0,0,0
2026-06-16 15:55:14.887,1328072,R_Hip,0.0461,0.004,1.0025,0.26,-1.58,1.78,-18.51,28.35,-32.82,0.941465,-0.00351,-0.041414,-0.334483,0.0,0.0,0.0,0,0
2026-06-16 15:55:14.889,1328214,L_Ankle,0.081,0.0266,1.0019,5.41,-0.84,-10.3,-19.06,-5.13,-49.4,0.991729,0.017365,-0.055544,-0.11417,0.0,0.0,0.0,0,0
2026-06-16 15:55:14.891,1328025,R_Ankle,0.013,-0.0116,1.0058,0.76,-1.72,-0.51,-11.41,32.92,-29.11,0.108829,0.085879,0.029176,0.989898,0.0,0.0,0.0,0,0
2026-06-16 15:55:14.893,1328164,L_Hip,0.1185,-0.0744,0.9929,-4.16,4.51,2.96,-4.88,33.41,-24.76,0.994324,-0.033418,-0.068178,-0.074129,0.0,0.0,0.0,0,0
2026-06-16 15:55:14.894,1328045,R_Ankle,0.0121,-0.0166,1.0177,0.75,-1.73,-0.49,-12.79,31.97,-29.73,0.108829,0.085879,0.029176,0.989898,0.0,0.0,0.0,0,0
2026-06-16 15:55:14.896,1328184,L_Hip,0.1126,-0.072,0.9832,-4.16,4.51,2.97,-5.4,32.92,-24.61,0.994324,-0.033448,-0.068209,-0.074129,0.0,0.0,0.0,0,0
2026-06-16 15:55:14.896,1328065,R_Ankle,0.015,-0.0052,1.0,0.76,-1.73,-0.48,0.0,0.0,0.0,0.108798,0.085879,0.029176,0.989898,0.0,0.0,0.0,0,0
2026-06-16 15:55:14.898,1328204,L_Hip,0.1156,-0.0749,0.9885,-4.17,4.5,2.96,0.0,0.0,0.0,0.994324,-0.033448,-0.068209,-0.074129,0.0,0.0,0.0,0,0
2026-06-16 15:55:14.900,1328085,R_Ankle,0.0106,-0.0081,0.9971,0.76,-1.72,-0.49,-13.47,32.28,-29.44,0.108798,0.085879,0.029145,0.989898,0.0,0.0,0.0,0,0
2026-06-16 15:55:14.902,1328224,L_Hip,0.118,-0.0739,0.9817,-4.15,4.5,2.96,-6.1,31.62,-24.3,0.994324,-0.033448,-0.068209,-0.074129,0.0,0.0,0.0,0,0
2026-06-16 15:55:14.903,1328027,R_Shank,0.038,2.3688,0.9941,-0.08,-1.46,-8.41,-11.87,26.5,-23.99,0.901242,0.036348,-0.017304,0.431379,0.0,0.0,0.0,0,0
2026-06-16 15:55:14.905,1328176,L_Ankle,0.0791,0.0192,0.9942,5.41,-0.85,-10.3,-19.92,-4.94,-48.9,0.991729,0.017335,-0.055513,-0.11417,0.0,0.0,0.0,0,0
2026-06-16 15:55:14.907,1328047,R_Shank,0.038,1.4688,1.0148,-0.09,-1.47,-8.43,-11.19,25.51,-22.8,0.901242,0.036348,-0.017273,0.43141,0.0,0.0,0.0,0,0
2026-06-16 15:55:14.908,1328196,L_Ankle,0.0702,0.0251,0.9914,5.4,-0.83,-10.29,0.0,0.0,0.0,0.991729,0.017335,-0.055544,-0.11417,0.0,0.0,0.0,0,0
2026-06-16 15:55:14.909,1328067,R_Shank,0.0424,1.5984,1.008,-0.09,-1.45,-8.42,0.0,0.0,0.0,0.901242,0.036348,-0.017273,0.43141,0.0,0.0,0.0,0,0
2026-06-16 15:55:14.911,1328216,L_Ankle,0.0751,0.0158,1.0024,5.4,-0.85,-10.29,-17.64,-5.51,-49.03,0.991729,0.017365,-0.055513,-0.1142,0.0,0.0,0.0,0,0
2026-06-16 15:55:14.912,1328087,R_Shank,0.0424,-2.3844,1.0061,-0.08,-1.46,-8.43,-12.21,25.86,-22.79,0.901242,0.036348,-0.017273,0.43141,0.0,0.0,0.0,0,0
2026-06-16 15:55:14.913,1328236,L_Ankle,0.081,0.0168,0.977,5.39,-0.85,-10.29,-16.93,-4.8,-47.32,0.991729,0.017335,-0.055513,-0.11417,0.0,0.0,0.0,0,0
2026-06-16 15:55:14.915,1328037,R_Hip,0.0496,0.0093,0.9948,0.26,-1.56,1.78,-19.42,26.71,-32.3,0.941465,-0.00351,-0.041414,-0.334483,0.0,0.0,0.0,0,0
2026-06-16 15:55:14.916,1328186,L_Shank,-0.0035,-0.0229,0.9911,1.76,-1.19,-0.18,-2.91,14.16,-24.25,0.9729,-0.002808,-0.025666,0.229743,0.0,0.0,0.0,0,0
2026-06-16 15:55:14.918,1328057,R_Hip,0.0436,0.0089,0.9832,0.29,-1.58,1.77,-19.24,27.63,-33.5,0.941465,-0.00351,-0.041383,-0.334483,0.0,0.0,0.0,0,0
2026-06-16 15:55:14.919,1328206,L_Shank,-0.0015,-0.0204,0.9964,1.77,-1.19,-0.19,0.0,0.0,0.0,0.9729,-0.002777,-0.025697,0.229743,0.0,0.0,0.0,0,0
2026-06-16 15:55:14.921,1328077,R_Hip,0.0486,0.0147,0.9707,0.28,-1.58,1.77,0.0,0.0,0.0,0.941465,-0.00351,-0.041383,-0.334483,0.0,0.0,0.0,0,0
2026-06-16 15:55:14.922,1328226,L_Shank,0.0062,-0.0268,0.9849,1.77,-1.18,-0.2,-2.74,15.01,-24.73,0.9729,-0.002808,-0.025697,0.229743,0.0,0.0,0.0,0,0
2026-06-16 15:55:14.925,1328097,R_Hip,0.0427,0.0089,0.9808,0.27,-1.57,1.78,-19.05,28.53,-31.62,0.941465,-0.00351,-0.041414,-0.334513,0.0,0.0,0.0,0,0
2026-06-16 15:55:14.926,1328246,L_Shank,0.0042,-0.0185,0.9935,1.77,-1.19,-0.2,-3.78,16.03,-24.74,0.9729,-0.002808,-0.025666,0.229743,0.0,0.0,0.0,0,0
2026-06-16 15:55:14.928,1328048,R_Ankle,0.0145,-0.0141,1.0177,0.77,-1.73,-0.5,-13.13,32.61,-30.36,0.108798,0.085879,0.029145,0.989898,0.0,0.0,0.0,0,0
2026-06-16 15:55:14.929,1328209,L_Hip,0.1249,-0.0808,0.9977,-4.15,4.51,2.96,-5.03,33.25,-25.77,0.994324,-0.033448,-0.068209,-0.074129,0.0,0.0,0.0,0,0
2026-06-16 15:55:14.931,1328068,R_Ankle,0.0184,-0.0022,1.023,0.77,-1.72,-0.5,-13.46,32.59,-29.44,0.108798,0.085849,0.029176,0.989898,0.0,0.0,0.0,0,0
2026-06-16 15:55:14.932,1328229,L_Hip,0.1274,-0.07,0.9846,-4.15,4.51,2.96,-4.42,31.97,-23.75,0.994324,-0.033448,-0.068209,-0.074129,0.0,0.0,0.0,0,0
2026-06-16 15:55:14.933,1328088,R_Ankle,0.0145,-0.0047,1.0091,0.74,-1.74,-0.49,0.0,0.0,0.0,0.108798,0.085849,0.029176,0.989898,0.0,0.0,0.0,0,0
2026-06-16 15:55:14.934,1328249,L_Hip,0.1225,-0.0739,0.9769,-4.16,4.51,2.96,0.0,0.0,0.0,0.994324,-0.033448,-0.068209,-0.074129,0.0,0.0,0.0,0,0
2026-06-16 15:55:14.936,1328108,R_Ankle,0.0121,-0.0141,1.0105,0.77,-1.73,-0.5,-11.77,31.97,-29.72,0.108829,0.085849,0.029176,0.989898,0.0,0.0,0.0,0,0
2026-06-16 15:55:14.937,1328269,L_Hip,0.1229,-0.0774,0.9725,-4.15,4.51,2.96,-5.05,32.93,-25.19,0.994324,-0.033448,-0.068178,-0.074129,0.0,0.0,0.0,0,0
2026-06-16 15:55:14.938,1328049,R_Shank,0.035,-1.8728,1.0056,-0.09,-1.45,-8.41,-12.54,25.53,-23.09,0.901242,0.036348,-0.017304,0.43141,0.0,0.0,0.0,0,0
2026-06-16 15:55:14.940,1328221,L_Ankle,0.0795,0.0188,1.0014,5.41,-0.83,-10.29,-18.49,-4.6,-46.84,0.991729,0.017304,-0.055483,-0.1142,0.0,0.0,0.0,0,0
2026-06-16 15:55:14.941,1328069,R_Shank,0.0365,0.698,0.9941,-0.09,-1.48,-8.44,-11.53,26.17,-24.0,0.901242,0.036348,-0.017273,0.43141,0.0,0.0,0.0,0,0
2026-06-16 15:55:14.943,1328241,L_Ankle,0.0859,0.0246,0.9976,5.4,-0.85,-10.29,0.0,0.0,0.0,0.991729,0.017304,-0.055452,-0.1142,0.0,0.0,0.0,0,0
2026-06-16 15:55:14.944,1328089,R_Shank,0.0429,2.1096,1.0095,-0.09,-1.47,-8.43,0.0,0.0,0.0,0.901242,0.036348,-0.017273,0.43141,0.0,0.0,0.0,0,0
2026-06-16 15:55:14.945,1328261,L_Ankle,0.0746,0.028,0.9957,5.39,-0.84,-10.29,-19.73,-5.47,-48.39,0.991729,0.017273,-0.055452,-0.1142,0.0,0.0,0.0,0,0
2026-06-16 15:55:14.946,1328109,R_Shank,0.0438,0.5684,1.009,-0.09,-1.47,-8.43,-10.88,27.15,-23.09,0.901242,0.036378,-0.017273,0.43141,0.0,0.0,0.0,0,0
2026-06-16 15:55:14.948,1328281,L_Ankle,0.0771,0.0256,0.9995,5.41,-0.84,-10.29,-17.49,-4.27,-48.86,0.991729,0.017273,-0.055452,-0.1142,0.0,0.0,0.0,0,0
2026-06-16 15:55:14.949,1328062,R_Hip,0.0476,-0.0003,0.9982,0.28,-1.57,1.78,-18.32,27.44,-32.3,0.941465,-0.00351,-0.041444,-0.334513,0.0,0.0,0.0,0,0
2026-06-16 15:55:14.951,1328082,R_Hip,0.0505,0.0142,0.9972,0.26,-1.58,1.78,-17.23,27.81,-33.67,0.941465,-0.00351,-0.041414,-0.334483,0.0,0.0,0.0,0,0
2026-06-16 15:55:14.955,1328102,R_Hip,0.0476,0.0015,0.9914,0.28,-1.58,1.79,0.0,0.0,0.0,0.941465,-0.00351,-0.041444,-0.334483,0.0,0.0,0.0,0,0
2026-06-16 15:55:14.956,1328236,L_Shank,-0.0006,-0.0209,0.9892,1.75,-1.19,-0.19,-1.69,14.66,-24.12,0.9729,-0.002808,-0.025697,0.229743,0.0,0.0,0.0,0,0
2026-06-16 15:55:14.957,1328122,R_Hip,0.0466,0.0118,0.9982,0.27,-1.58,1.79,-19.23,26.53,-32.47,0.941465,-0.00351,-0.041444,-0.334483,0.0,0.0,0.0,0,0
2026-06-16 15:55:14.958,1328256,L_Shank,-0.001,-0.0248,1.005,1.77,-1.19,-0.19,0.0,0.0,0.0,0.972869,-0.002838,-0.025697,0.229774,0.0,0.0,0.0,0,0
2026-06-16 15:55:14.960,1328070,R_Ankle,0.0101,-0.0136,1.0081,0.77,-1.73,-0.49,-13.13,32.92,-30.36,0.108798,0.085849,0.029176,0.989898,0.0,0.0,0.0,0,0
2026-06-16 15:55:14.960,1328276,L_Shank,-0.0001,-0.0229,0.982,1.77,-1.19,-0.19,-3.08,13.99,-24.72,0.972869,-0.002838,-0.025697,0.229774,0.0,0.0,0.0,0,0
2026-06-16 15:55:14.962,1328090,R_Ankle,0.0145,-0.0067,1.001,0.77,-1.73,-0.48,-13.14,31.33,-30.04,0.108829,0.085849,0.029206,0.989898,0.0,0.0,0.0,0,0
2026-06-16 15:55:14.963,1328296,L_Shank,0.0003,-0.0014,0.9762,1.77,-1.19,-0.21,-2.39,15.69,-24.43,0.9729,-0.002838,-0.025697,0.229743,0.0,0.0,0.0,0,0
2026-06-16 15:55:14.964,1328110,R_Ankle,0.0106,-0.0136,1.0053,0.77,-1.74,-0.5,0.0,0.0,0.0,0.108798,0.085849,0.029206,0.989898,0.0,0.0,0.0,0,0
2026-06-16 15:55:14.966,1328130,R_Ankle,0.0155,-0.0076,1.0029,0.77,-1.72,-0.5,-12.44,32.28,-29.43,0.108798,0.085849,0.029206,0.989898,0.0,0.0,0.0,0,0
2026-06-16 15:55:14.968,1328112,R_Hip,0.0422,0.0132,0.99,0.26,-1.56,1.77,-18.69,27.8,-31.96,0.941465,-0.003479,-0.041444,-0.334483,0.0,0.0,0.0,0,0
2026-06-16 15:55:14.969,1328132,R_Hip,0.0476,0.0098,0.9967,0.26,-1.58,1.78,-18.5,27.99,-32.48,0.941465,-0.003479,-0.041414,-0.334483,0.0,0.0,0.0,0,0
2026-06-16 15:55:14.972,1328152,R_Hip,0.0417,0.0181,0.9914,0.28,-1.57,1.8,0.0,0.0,0.0,0.941465,-0.003479,-0.041444,-0.334483,0.0,0.0,0.0,0,0
2026-06-16 15:55:14.972,1328254,L_Hip,0.1205,-0.0725,0.9846,-4.16,4.49,2.97,-6.76,32.57,-24.29,0.994324,-0.033448,-0.068178,-0.074129,0.0,0.0,0.0,0,0
2026-06-16 15:55:14.974,1328172,R_Hip,0.0505,-0.0013,0.9683,0.26,-1.58,1.77,-17.77,28.35,-31.79,0.941465,-0.003449,-0.041414,-0.334483,0.0,0.0,0.0,0,0
2026-06-16 15:55:14.975,1328274,L_Hip,0.1195,-0.0671,0.9919,-4.16,4.51,2.98,-4.72,32.93,-24.91,0.994324,-0.033418,-0.068178,-0.074129,0.0,0.0,0.0,0,0
2026-06-16 15:55:14.976,1328117,R_Shank,0.0488,3.2692,1.0008,-0.07,-1.47,-8.42,-11.73,27.33,-23.23,0.901242,0.036378,-0.017273,0.43141,0.0,0.0,0.0,0,0
2026-06-16 15:55:14.977,1328294,L_Hip,0.1141,-0.0725,0.9885,-4.16,4.5,2.98,0.0,0.0,0.0,0.994324,-0.033418,-0.068178,-0.07416,0.0,0.0,0.0,0,0
2026-06-16 15:55:14.979,1328137,R_Shank,0.038,-2.3844,1.0066,-0.09,-1.48,-8.43,-11.55,26.84,-22.79,0.901242,0.036378,-0.017273,0.43141,0.0,0.0,0.0,0,0
2026-06-16 15:55:14.980,1328314,L_Hip,0.1195,-0.0784,0.9967,-4.16,4.51,2.96,-4.58,31.81,-24.47,0.994324,-0.033418,-0.068209,-0.07416,0.0,0.0,0.0,0,0
2026-06-16 15:55:14.981,1328157,R_Shank,0.0326,-0.9728,1.0249,-0.07,-1.45,-8.42,0.0,0.0,0.0,0.901242,0.036378,-0.017304,0.43141,0.0,0.0,0.0,0,0
2026-06-16 15:55:14.983,1328177,R_Shank,0.0281,-0.8432,1.0152,-0.07,-1.46,-8.42,-12.08,27.35,-21.42,0.901242,0.036348,-0.017273,0.43141,0.0,0.0,0.0,0,0
2026-06-16 15:55:14.989,1328137,R_Hip,0.0422,0.0147,0.9929,0.27,-1.57,1.76,-19.05,27.44,-32.65,0.941465,-0.003449,-0.041444,-0.334483,0.0,0.0,0.0,0,0
2026-06-16 15:55:14.991,1328157,R_Hip,0.0407,0.0167,0.9967,0.28,-1.57,1.78,-19.05,29.27,-33.34,0.941465,-0.003479,-0.041414,-0.334483,0.0,0.0,0.0,0,0
2026-06-16 15:55:14.993,1328177,R_Hip,0.0466,0.004,0.9919,0.28,-1.59,1.78,0.0,0.0,0.0,0.941465,-0.003418,-0.041414,-0.334483,0.0,0.0,0.0,0,0
2026-06-16 15:55:14.995,1328197,R_Hip,0.0505,0.0069,0.9986,0.26,-1.57,1.79,-18.87,27.26,-31.79,0.941465,-0.003418,-0.041444,-0.334483,0.0,0.0,0.0,0,0
2026-06-16 15:55:15.005,1328287,L_Shank,-0.001,-0.0268,0.9762,1.77,-1.19,-0.21,-3.61,15.18,-24.57,0.9729,-0.002838,-0.025666,0.229743,0.0,0.0,0.0,0,0
2026-06-16 15:55:15.006,1328307,L_Shank,-0.0015,-0.0195,0.9762,1.77,-1.19,-0.19,0.0,0.0,0.0,0.9729,-0.002808,-0.025636,0.229774,0.0,0.0,0.0,0,0
2026-06-16 15:55:15.008,1328327,L_Shank,-0.0015,-0.0258,0.9935,1.75,-1.19,-0.19,-2.22,16.18,-23.66,0.9729,-0.002808,-0.025636,0.229743,0.0,0.0,0.0,0,0
2026-06-16 15:55:15.010,1328347,L_Shank,0.0018,-0.0121,0.9849,1.77,-1.18,-0.19,-2.92,15.84,-23.65,0.9729,-0.002808,-0.025666,0.229743,0.0,0.0,0.0,0,0
2026-06-16 15:55:15.012,1328288,L_Shank,-0.0054,-0.019,0.9954,1.77,-1.19,-0.21,-3.27,15.16,-23.33,0.9729,-0.002808,-0.025666,0.229774,0.0,0.0,0.0,0,0
2026-06-16 15:55:15.014,1328308,L_Shank,0.0072,-0.0185,0.9988,1.75,-1.19,-0.19,0.0,0.0,0.0,0.972869,-0.002808,-0.025666,0.229774,0.0,0.0,0.0,0,0
2026-06-16 15:55:15.016,1328328,L_Shank,-0.0054,-0.0146,0.995,1.75,-1.19,-0.19,-2.57,14.49,-23.64,0.972869,-0.002808,-0.025666,0.229774,0.0,0.0,0.0,0,0
2026-06-16 15:55:15.018,1328348,L_Shank,0.0028,-0.0185,0.9825,1.76,-1.19,-0.19,-2.39,15.69,-24.75,0.9729,-0.002777,-0.025666,0.229774,0.0,0.0,0.0,0,0
2026-06-16 15:55:15.020,1328289,L_Ankle,0.0844,0.0256,0.9885,5.4,-0.83,-10.3,-17.78,-6.39,-47.51,0.991729,0.017273,-0.055452,-0.1142,0.0,0.0,0.0,0,0
2026-06-16 15:55:15.022,1328309,L_Ankle,0.0805,0.0285,0.9856,5.4,-0.85,-10.29,0.0,0.0,0.0,0.991729,0.017273,-0.055452,-0.1142,0.0,0.0,0.0,0,0
2026-06-16 15:55:15.023,1328329,L_Ankle,0.0893,0.0124,0.9914,5.4,-0.85,-10.29,-17.98,-3.72,-46.65,0.991729,0.017273,-0.055452,-0.1142,0.0,0.0,0.0,0,0
2026-06-16 15:55:15.026,1328349,L_Ankle,0.0795,0.0256,0.9894,5.39,-0.85,-10.29,-17.12,-4.98,-48.85,0.991729,0.017273,-0.055452,-0.1142,0.0,0.0,0.0,0,0
2026-06-16 15:55:15.035,1328183,R_Ankle,0.0086,-0.0141,1.0024,0.77,-1.73,-0.48,-11.92,34.04,-29.59,0.108829,0.085849,0.029206,0.989898,0.0,0.0,0.0,0,0
2026-06-16 15:55:15.036,1328203,R_Ankle,0.0077,-0.0081,1.0,0.77,-1.74,-0.47,-13.14,32.29,-30.36,0.108798,0.085849,0.029206,0.989898,0.0,0.0,0.0,0,0
2026-06-16 15:55:15.038,1328223,R_Ankle,0.0111,-0.0057,1.011,0.76,-1.73,-0.48,0.0,0.0,0.0,0.108798,0.085818,0.029206,0.989898,0.0,0.0,0.0,0,0
2026-06-16 15:55:15.040,1328321,L_Hip,0.12,-0.0725,0.9803,-4.16,4.5,2.96,-4.87,33.42,-25.34,0.994324,-0.033418,-0.068209,-0.07416,0.0,0.0,0.0,0,0
2026-06-16 15:55:15.041,1328243,R_Ankle,0.0165,-0.0116,1.0077,0.76,-1.73,-0.49,-13.3,32.76,-30.21,0.108798,0.085818,0.029237,0.989898,0.0,0.0,0.0,0,0
2026-06-16 15:55:15.043,1328341,L_Hip,0.118,-0.07,0.9812,-4.15,4.49,2.97,-4.72,33.26,-24.62,0.994324,-0.033448,-0.068209,-0.07416,0.0,0.0,0.0,0,0
2026-06-16 15:55:15.043,1328185,R_Shank,0.0424,3.1396,1.0071,-0.09,-1.47,-8.42,-12.05,25.69,-22.04,0.901242,0.036378,-0.017243,0.43141,0.0,0.0,0.0,0,0
2026-06-16 15:55:15.045,1328322,L_Hip,0.1195,-0.0626,0.9866,-4.15,4.49,2.96,-6.26,32.1,-24.74,0.994324,-0.033448,-0.068239,-0.07416,0.0,0.0,0.0,0,0
2026-06-16 15:55:15.046,1328205,R_Shank,0.0365,1.4688,0.9999,-0.1,-1.47,-8.43,0.0,0.0,0.0,0.901242,0.036378,-0.017273,0.43141,0.0,0.0,0.0,0,0
2026-06-16 15:55:15.048,1328342,L_Hip,0.1239,-0.0759,0.9895,-4.16,4.51,2.97,0.0,0.0,0.0,0.994324,-0.033418,-0.068239,-0.07416,0.0,0.0,0.0,0,0
2026-06-16 15:55:15.048,1328225,R_Shank,0.0394,0.698,0.9907,-0.07,-1.45,-8.42,-11.21,25.85,-21.89,0.901242,0.036378,-0.017273,0.43141,0.0,0.0,0.0,0,0
2026-06-16 15:55:15.051,1328245,R_Shank,0.0375,-0.9728,1.0037,-0.09,-1.47,-8.41,-12.08,27.35,-21.42,0.901242,0.036378,-0.017273,0.43141,0.0,0.0,0.0,0,0
2026-06-16 15:55:15.053,1328187,R_Hip,0.0441,0.0123,0.9779,0.28,-1.58,1.77,-19.24,26.17,-33.84,0.941465,-0.003418,-0.041444,-0.334483,0.0,0.0,0.0,0,0
2026-06-16 15:55:15.053,1328335,L_Ankle,0.0844,0.0241,1.0029,5.4,-0.84,-10.29,-17.8,-6.03,-48.19,0.991729,0.017273,-0.055452,-0.1142,0.0,0.0,0.0,0,0
2026-06-16 15:55:15.055,1328207,R_Hip,0.0456,0.004,0.9856,0.27,-1.57,1.79,-19.05,27.8,-31.96,0.941465,-0.003418,-0.041444,-0.334483,0.0,0.0,0.0,0,0
2026-06-16 15:55:15.056,1328355,L_Ankle,0.0835,0.0261,0.9957,5.39,-0.85,-10.29,-18.14,-6.03,-47.85,0.991729,0.017243,-0.055483,-0.1142,0.0,0.0,0.0,0,0
2026-06-16 15:55:15.058,1328227,R_Hip,0.0486,0.0015,0.9871,0.27,-1.56,1.79,0.0,0.0,0.0,0.941465,-0.003418,-0.041475,-0.334483,0.0,0.0,0.0,0,0
2026-06-16 15:55:15.059,1328375,L_Ankle,0.0815,0.0349,0.9856,5.39,-0.83,-10.29,0.0,0.0,0.0,0.991729,0.017243,-0.055452,-0.1142,0.0,0.0,0.0,0,0
2026-06-16 15:55:15.061,1328247,R_Hip,0.051,0.0103,0.9919,0.25,-1.55,1.78,-19.6,27.62,-31.45,0.941465,-0.003418,-0.041444,-0.334483,0.0,0.0,0.0,0,0
2026-06-16 15:55:15.061,1328395,L_Ankle,0.0825,0.0192,0.9789,5.41,-0.83,-10.32,-19.54,-5.29,-47.2,0.991729,0.017243,-0.055422,-0.1142,0.0,0.0,0.0,0,0
2026-06-16 15:55:15.064,1328205,R_Ankle,0.0179,-0.019,1.0077,0.76,-1.71,-0.49,-11.42,32.61,-29.73,0.108798,0.085818,0.029237,0.989898,0.0,0.0,0.0,0,0
2026-06-16 15:55:15.065,1328336,L_Shank,0.0003,-0.0058,0.9945,1.76,-1.19,-0.19,-2.39,15.69,-24.43,0.972869,-0.002747,-0.025697,0.229774,0.0,0.0,0.0,0,0
2026-06-16 15:55:15.066,1328225,R_Ankle,0.013,-0.0161,1.0144,0.76,-1.72,-0.51,-12.97,32.45,-30.82,0.108798,0.085818,0.029237,0.989898,0.0,0.0,0.0,0,0
2026-06-16 15:55:15.067,1328356,L_Shank,0.0033,-0.0263,0.9801,1.76,-1.19,-0.2,0.0,0.0,0.0,0.972869,-0.002716,-0.025697,0.229774,0.0,0.0,0.0,0,0
2026-06-16 15:55:15.068,1328245,R_Ankle,0.0155,-0.0047,1.0053,0.77,-1.73,-0.49,0.0,0.0,0.0,0.108798,0.085788,0.029237,0.989898,0.0,0.0,0.0,0,0
2026-06-16 15:55:15.069,1328376,L_Shank,0.0057,-0.0185,0.9897,1.77,-1.19,-0.21,-2.74,15.69,-24.43,0.972869,-0.002747,-0.025666,0.229774,0.0,0.0,0.0,0,0
2026-06-16 15:55:15.071,1328265,R_Ankle,0.0135,-0.0181,1.0196,0.77,-1.72,-0.49,-12.1,31.96,-29.11,0.108798,0.085788,0.029237,0.989898,0.0,0.0,0.0,0,0
2026-06-16 15:55:15.072,1328396,L_Shank,-0.004,-0.0234,0.9911,1.77,-1.18,-0.19,-3.44,16.36,-23.81,0.972869,-0.002716,-0.025666,0.229774,0.0,0.0,0.0,0,0
2026-06-16 15:55:15.073,1328207,R_Shank,0.0438,3.2692,1.008,-0.1,-1.46,-8.41,-11.73,26.68,-22.03,0.901242,0.036378,-0.017273,0.43141,0.0,0.0,0.0,0,0
2026-06-16 15:55:15.075,1328227,R_Shank,0.0453,3.01,1.0037,-0.09,-1.45,-8.42,0.0,0.0,0.0,0.901242,0.036378,-0.017273,0.43141,0.0,0.0,0.0,0,0
2026-06-16 15:55:15.076,1328247,R_Shank,0.0434,3.1396,0.9989,-0.07,-1.45,-8.43,-12.05,26.35,-22.33,0.901242,0.036378,-0.017304,0.43141,0.0,0.0,0.0,0,0
2026-06-16 15:55:15.078,1328267,R_Shank,0.0409,3.2692,1.0114,-0.09,-1.45,-8.44,-12.06,27.67,-23.83,0.901242,0.036378,-0.017304,0.43141,0.0,0.0,0.0,0,0
2026-06-16 15:55:15.081,1328212,R_Hip,0.0427,0.0079,0.9938,0.26,-1.57,1.79,-19.42,27.44,-33.67,0.941465,-0.003418,-0.041444,-0.334483,0.0,0.0,0.0,0,0
2026-06-16 15:55:15.083,1328232,R_Hip,0.0481,0.0098,1.0025,0.28,-1.57,1.76,-18.87,29.45,-33.85,0.941465,-0.003418,-0.041444,-0.334452,0.0,0.0,0.0,0,0
2026-06-16 15:55:15.085,1328367,L_Hip,0.119,-0.0813,0.9895,-4.17,4.51,2.98,-5.23,32.76,-24.46,0.994324,-0.033448,-0.068209,-0.07416,0.0,0.0,0.0,0,0
2026-06-16 15:55:15.086,1328252,R_Hip,0.054,0.0123,1.0001,0.27,-1.57,1.79,0.0,0.0,0.0,0.941465,-0.003418,-0.041444,-0.334483,0.0,0.0,0.0,0,0
2026-06-16 15:55:15.089,1328387,L_Hip,0.121,-0.0749,0.9837,-4.15,4.5,2.99,-5.73,33.56,-24.31,0.994324,-0.033448,-0.068209,-0.07416,0.0,0.0,0.0,0,0
2026-06-16 15:55:15.090,1328272,R_Hip,0.0412,0.0069,0.9958,0.26,-1.58,1.78,-19.6,27.26,-33.16,0.941465,-0.003418,-0.041475,-0.334483,0.0,0.0,0.0,0,0
2026-06-16 15:55:15.091,1328407,L_Hip,0.118,-0.0715,0.9953,-4.16,4.5,2.97,-6.23,33.39,-24.74,0.994324,-0.033448,-0.068239,-0.07416,0.0,0.0,0.0,0,0
2026-06-16 15:55:15.092,1328228,R_Ankle,0.0067,-0.0151,1.0058,0.77,-1.71,-0.5,-12.62,32.45,-30.2,0.108798,0.085788,0.029237,0.989898,0.0,0.0,0.0,0,0
2026-06-16 15:55:15.093,1328427,L_Hip,0.118,-0.0749,0.989,-4.16,4.49,2.98,0.0,0.0,0.0,0.994324,-0.033448,-0.068239,-0.07416,0.0,0.0,0.0,0,0
2026-06-16 15:55:15.095,1328248,R_Ankle,0.0165,-0.0002,1.0014,0.76,-1.72,-0.5,-12.45,32.6,-29.74,0.108798,0.085757,0.029237,0.989898,0.0,0.0,0.0,0,0
2026-06-16 15:55:15.096,1328268,R_Ankle,0.0096,-0.0151,0.9981,0.77,-1.72,-0.48,0.0,0.0,0.0,0.108798,0.085757,0.029237,0.989898,0.0,0.0,0.0,0,0
2026-06-16 15:55:15.097,1328379,L_Ankle,0.082,0.0266,0.9933,5.38,-0.84,-10.29,-17.98,-5.5,-48.02,0.991729,0.017243,-0.055452,-0.1142,0.0,0.0,0.0,0,0
2026-06-16 15:55:15.099,1328288,R_Ankle,0.0184,-0.0111,1.0029,0.77,-1.74,-0.51,-11.44,32.31,-30.96,0.108798,0.085757,0.029237,0.989898,0.0,0.0,0.0,0,0
2026-06-16 15:55:15.100,1328399,L_Ankle,0.0751,0.0173,0.9904,5.41,-0.85,-10.3,-19.75,-5.48,-49.41,0.991729,0.017273,-0.055422,-0.1142,0.0,0.0,0.0,0,0
2026-06-16 15:55:15.101,1328419,L_Ankle,0.0732,0.0246,0.9784,5.4,-0.83,-10.29,0.0,0.0,0.0,0.991729,0.017273,-0.055422,-0.1142,0.0,0.0,0.0,0,0
2026-06-16 15:55:15.103,1328250,R_Ankle,0.0155,-0.0072,0.9971,0.76,-1.72,-0.48,-12.95,33.08,-29.59,0.108798,0.085757,0.029267,0.989898,0.0,0.0,0.0,0,0
2026-06-16 15:55:15.104,1328439,L_Ankle,0.0825,0.0227,1.0053,5.39,-0.84,-10.29,-17.3,-4.8,-48.69,0.991729,0.017273,-0.055422,-0.1142,0.0,0.0,0.0,0,0
2026-06-16 15:55:15.106,1328270,R_Ankle,0.0121,-0.0037,0.9904,0.77,-1.73,-0.5,-11.25,33.09,-29.58,0.108798,0.085788,0.029267,0.989898,0.0,0.0,0.0,0,0
2026-06-16 15:55:15.107,1328386,L_Shank,0.0023,-0.0146,0.9868,1.77,-1.19,-0.2,-2.75,15.67,-23.5,0.972869,-0.002747,-0.025666,0.229774,0.0,0.0,0.0,0,0
2026-06-16 15:55:15.108,1328290,R_Ankle,0.0101,-0.0205,1.0024,0.77,-1.74,-0.48,0.0,0.0,0.0,0.108798,0.085788,0.029298,0.989898,0.0,0.0,0.0,0,0
2026-06-16 15:55:15.109,1328406,L_Shank,-0.001,-0.0244,0.9878,1.77,-1.19,-0.2,-2.22,15.85,-23.97,0.972869,-0.002747,-0.025636,0.229774,0.0,0.0,0.0,0,0
2026-06-16 15:55:15.110,1328310,R_Ankle,0.0219,-0.0081,0.9904,0.76,-1.71,-0.48,-14.15,32.27,-29.75,0.108798,0.085788,0.029267,0.989898,0.0,0.0,0.0,0,0
2026-06-16 15:55:15.111,1328426,L_Shank,0.0008,-0.0185,0.9945,1.77,-1.19,-0.2,0.0,0.0,0.0,0.972869,-0.002716,-0.025636,0.229774,0.0,0.0,0.0,0,0
2026-06-16 15:55:15.113,1328446,L_Shank,0.0018,-0.017,0.994,1.76,-1.17,-0.2,-3.1,14.65,-23.17,0.972869,-0.002747,-0.025636,0.229774,0.0,0.0,0.0,0,0
2026-06-16 15:55:15.114,1328262,R_Hip,0.0471,0.0045,0.9938,0.27,-1.57,1.77,-17.77,27.25,-31.79,0.941465,-0.003388,-0.041475,-0.334483,0.0,0.0,0.0,0,0
2026-06-16 15:55:15.115,1328389,L_Hip,0.1185,-0.0666,0.9895,-4.16,4.51,2.97,-6.06,33.23,-25.18,0.994324,-0.033418,-0.06827,-0.07416,0.0,0.0,0.0,0,0
2026-06-16 15:55:15.117,1328282,R_Hip,0.0466,-0.0018,0.9962,0.27,-1.58,1.77,-19.23,27.62,-32.14,0.941465,-0.003388,-0.041475,-0.334483,0.0,0.0,0.0,0,0
2026-06-16 15:55:15.118,1328409,L_Hip,0.1264,-0.0671,0.9846,-4.16,4.51,2.97,-5.75,32.59,-24.31,0.994324,-0.033418,-0.06827,-0.07416,0.0,0.0,0.0,0,0
2026-06-16 15:55:15.120,1328302,R_Hip,0.0417,0.0108,1.0035,0.25,-1.58,1.78,0.0,0.0,0.0,0.941465,-0.003418,-0.041475,-0.334483,0.0,0.0,0.0,0,0
2026-06-16 15:55:15.120,1328429,L_Hip,0.119,-0.0749,0.9885,-4.18,4.51,2.97,-5.06,32.93,-24.61,0.994324,-0.033418,-0.06827,-0.074129,0.0,0.0,0.0,0,0
2026-06-16 15:55:15.122,1328322,R_Hip,0.0372,0.003,0.989,0.27,-1.57,1.77,-19.23,27.99,-32.82,0.941465,-0.003388,-0.041475,-0.334483,0.0,0.0,0.0,0,0
2026-06-16 15:55:15.122,1328449,L_Hip,0.119,-0.0823,0.987,-4.16,4.51,2.98,-6.39,33.55,-25.17,0.994324,-0.033418,-0.06827,-0.074129,0.0,0.0,0.0,0,0
2026-06-16 15:55:15.125,1328401,L_Ankle,0.0869,0.0276,0.9938,5.38,-0.84,-10.29,-17.84,-4.62,-49.54,0.991729,0.017273,-0.055422,-0.1142,0.0,0.0,0.0,0,0
2026-06-16 15:55:15.126,1328273,R_Ankle,0.0062,-0.0106,1.0187,0.75,-1.7,-0.49,-13.12,33.87,-30.07,0.108768,0.085788,0.029267,0.989898,0.0,0.0,0.0,0,0
2026-06-16 15:55:15.127,1328421,L_Ankle,0.0844,0.0246,0.9894,5.41,-0.84,-10.29,-19.05,-4.78,-48.72,0.991729,0.017273,-0.055391,-0.1142,0.0,0.0,0.0,0,0
2026-06-16 15:55:15.128,1328293,R_Ankle,0.0189,-0.0156,0.9976,0.77,-1.71,-0.49,-12.28,32.77,-29.89,0.108768,0.085788,0.029267,0.989898,0.0,0.0,0.0,0,0
2026-06-16 15:55:15.129,1328441,L_Ankle,0.08,0.0207,0.9966,5.39,-0.83,-10.29,0.0,0.0,0.0,0.991729,0.017273,-0.055391,-0.1142,0.0,0.0,0.0,0,0
2026-06-16 15:55:15.130,1328313,R_Ankle,0.0145,-0.0057,0.9938,0.77,-1.74,-0.49,0.0,0.0,0.0,0.108768,0.085788,0.029267,0.989898,0.0,0.0,0.0,0,0
2026-06-16 15:55:15.132,1328461,L_Ankle,0.0795,0.028,0.9952,5.4,-0.85,-10.3,-18.5,-6.38,-48.54,0.991729,0.017304,-0.055391,-0.1142,0.0,0.0,0.0,0,0
2026-06-16 15:55:15.133,1328333,R_Ankle,0.0194,-0.0111,1.0058,0.76,-1.73,-0.5,-12.96,32.76,-30.21,0.108768,0.085788,0.029298,0.989898,0.0,0.0,0.0,0,0
2026-06-16 15:55:15.135,1328411,L_Shank,-0.0069,-0.0204,0.9782,1.77,-1.18,-0.19,-3.45,14.99,-23.48,0.972869,-0.002716,-0.025605,0.229774,0.0,0.0,0.0,0,0
2026-06-16 15:55:15.137,1328274,R_Shank,0.0419,1.4688,1.0047,-0.09,-1.47,-8.41,-12.38,26.02,-22.93,0.901242,0.036378,-0.017304,0.43141,0.0,0.0,0.0,0,0
2026-06-16 15:55:15.138,1328431,L_Shank,0.0033,-0.0165,0.9892,1.75,-1.18,-0.2,-3.42,15.7,-25.67,0.972869,-0.002686,-0.025605,0.229774,0.0,0.0,0.0,0,0
2026-06-16 15:55:15.140,1328294,R_Shank,0.0389,2.4984,1.0157,-0.09,-1.46,-8.42,0.0,0.0,0.0,0.901242,0.036348,-0.017304,0.43141,0.0,0.0,0.0,0,0
2026-06-16 15:55:15.141,1328451,L_Shank,0.0003,-0.0229,1.0026,1.76,-1.19,-0.2,0.0,0.0,0.0,0.972869,-0.002686,-0.025636,0.229774,0.0,0.0,0.0,0,0
2026-06-16 15:55:15.142,1328314,R_Shank,0.0272,0.8276,0.998,-0.09,-1.45,-8.42,-11.22,26.84,-22.19,0.901242,0.036348,-0.017304,0.43141,0.0,0.0,0.0,0,0
2026-06-16 15:55:15.145,1328471,L_Shank,0.0023,-0.0087,0.9902,1.77,-1.19,-0.2,-2.4,15.67,-23.5,0.972869,-0.002686,-0.025636,0.229774,0.0,0.0,0.0,0,0
2026-06-16 15:55:15.145,1328334,R_Shank,0.038,0.5684,1.0071,-0.08,-1.46,-8.41,-11.38,26.34,-22.34,0.901242,0.036317,-0.017304,0.43141,0.0,0.0,0.0,0,0
2026-06-16 15:55:15.147,1328424,L_Ankle,0.0854,0.0256,1.0029,5.39,-0.85,-10.29,-18.12,-6.02,-46.83,0.991729,0.017304,-0.055422,-0.1142,0.0,0.0,0.0,0,0
2026-06-16 15:55:15.149,1328295,R_Ankle,0.0155,-0.0161,1.0139,0.75,-1.74,-0.48,-12.43,32.91,-28.82,0.108768,0.085788,0.029298,0.989898,0.0,0.0,0.0,0,0
2026-06-16 15:55:15.151,1328444,L_Ankle,0.081,0.0246,0.9957,5.41,-0.84,-10.29,-18.36,-4.43,-49.04,0.991729,0.017273,-0.055391,-0.1142,0.0,0.0,0.0,0,0
2026-06-16 15:55:15.152,1328315,R_Ankle,0.0116,-0.0111,1.0149,0.76,-1.73,-0.51,-13.13,31.96,-29.43,0.108768,0.085788,0.029298,0.989898,0.0,0.0,0.0,0,0
2026-06-16 15:55:15.153,1328464,L_Ankle,0.0776,0.0207,0.9938,5.4,-0.86,-10.29,0.0,0.0,0.0,0.991729,0.017273,-0.055391,-0.1142,0.0,0.0,0.0,0,0
2026-06-16 15:55:15.154,1328335,R_Ankle,0.015,-0.0141,1.0192,0.76,-1.73,-0.49,0.0,0.0,0.0,0.108768,0.085788,0.029267,0.989898,0.0,0.0,0.0,0,0
2026-06-16 15:55:15.155,1328484,L_Ankle,0.0825,0.0276,0.9986,5.39,-0.85,-10.29,-18.85,-5.66,-47.87,0.991729,0.017273,-0.055391,-0.1142,0.0,0.0,0.0,0,0
2026-06-16 15:55:15.156,1328355,R_Ankle,0.0145,-0.0181,0.9933,0.76,-1.73,-0.48,-13.14,32.61,-30.98,0.108768,0.085757,0.029267,0.989898,0.0,0.0,0.0,0,0
2026-06-16 15:55:15.158,1328435,L_Hip,0.1136,-0.0725,0.9832,-4.16,4.5,2.97,-6.26,32.1,-24.15,0.994324,-0.033418,-0.06827,-0.074129,0.0,0.0,0.0,0,0
