python_time,esp32_hw_time,sensor_name,ax,ay,az,gx,gy,gz,mx,my,mz,q0,q1,q2,q3,quat_roll,quat_pitch,quat_yaw,is_paused_flag,t_pose_flag
2026-06-08 19:35:45.889,1567206,L_Shank,-0.1462,-0.2548,0.9479,1.38,-1.03,-1.25,-6.36,29.42,-11.51,0.971496,-0.110508,0.022767,0.208411,0.0,0.0,0.0,0,0
2026-06-08 19:35:45.891,1567207,L_Hip,0.1038,-0.2709,0.9522,0.16,0.09,-0.64,-11.27,28.73,-11.28,0.972442,-0.081668,-0.073366,0.205603,0.0,0.0,0.0,0,0
2026-06-08 19:35:45.893,1567217,L_Hip,0.0906,-0.2827,0.9483,0.19,0.08,-0.58,-11.23,30.02,-12.45,0.972381,-0.081637,-0.073672,0.205756,0.0,0.0,0.0,0,0
2026-06-08 19:35:45.897,1567227,L_Hip,0.094,-0.2822,0.9464,0.19,0.09,-0.53,0.0,0.0,0.0,0.97232,-0.081637,-0.074007,0.206,0.0,0.0,0.0,0,0
2026-06-08 19:35:45.899,1567237,L_Hip,0.1073,-0.2817,0.9575,0.22,0.06,-0.38,-11.61,29.37,-10.7,0.972228,-0.081637,-0.074374,0.206244,0.0,0.0,0.0,0,0
2026-06-08 19:35:45.903,1567230,L_Shank,-0.1535,-0.2631,0.9292,1.46,-1.03,-1.26,-6.88,28.91,-11.34,0.971587,-0.110874,0.022645,0.207739,0.0,0.0,0.0,0,0
2026-06-08 19:35:45.903,1567360,R_Shank,-0.1156,1.1224,0.9269,-0.7,-0.93,-1.74,19.01,-42.21,-2.99,-0.434004,-0.122471,0.151311,0.879604,0.0,0.0,0.0,0,0
2026-06-08 19:35:45.908,1567240,L_Shank,-0.1398,-0.2602,0.9225,1.51,-1.02,-1.25,-7.23,28.57,-11.65,0.971709,-0.11127,0.022553,0.207038,0.0,0.0,0.0,0,0
2026-06-08 19:35:45.909,1567370,R_Shank,-0.119,1.1224,0.935,-0.69,-0.93,-1.74,0.0,0.0,0.0,-0.433943,-0.122257,0.150884,0.879727,0.0,0.0,0.0,0,0
2026-06-08 19:35:45.912,1567250,L_Shank,-0.1555,-0.2685,0.9484,1.52,-1.03,-1.27,0.0,0.0,0.0,0.971831,-0.111667,0.022462,0.206275,0.0,0.0,0.0,0,0
2026-06-08 19:35:45.913,1567380,R_Shank,-0.1284,-0.4184,0.9417,-0.68,-0.94,-1.72,18.8,-40.38,-2.52,-0.433912,-0.122013,0.150456,0.879849,0.0,0.0,0.0,0,0
2026-06-08 19:35:45.917,1567260,L_Shank,-0.1569,-0.267,0.9379,1.57,-1.04,-1.19,-7.76,29.75,-10.57,0.971953,-0.112033,0.02234,0.205512,0.0,0.0,0.0,0,0
2026-06-08 19:35:45.918,1567390,R_Shank,-0.121,2.4112,0.9403,-0.65,-0.94,-1.69,19.79,-40.06,-1.63,-0.433912,-0.121799,0.149998,0.879971,0.0,0.0,0.0,0,0
2026-06-08 19:35:45.922,1567242,L_Ankle,0.056,0.0183,0.9837,-0.7,-0.39,-0.84,-3.89,22.5,-27.78,0.917478,0.032044,-0.031465,0.395184,0.0,0.0,0.0,0,0
2026-06-08 19:35:45.923,1567361,R_Ankle,0.0307,-0.02,1.0038,0.89,-1.87,-0.25,-0.91,28.26,-30.49,0.974914,0.051881,-0.080355,0.200812,0.0,0.0,0.0,0,0
2026-06-08 19:35:45.925,1567252,L_Ankle,0.0585,0.0173,0.9909,-0.72,-0.4,-0.85,-4.57,22.16,-27.11,0.917478,0.032044,-0.031465,0.395215,0.0,0.0,0.0,0,0
2026-06-08 19:35:45.927,1567371,R_Ankle,0.0268,-0.0195,1.0038,0.9,-1.87,-0.26,-0.56,29.54,-30.81,0.974914,0.051851,-0.080386,0.200812,0.0,0.0,0.0,0,0
2026-06-08 19:35:45.929,1567381,R_Ankle,0.0454,-0.0195,0.9947,0.89,-1.86,-0.25,-2.1,29.05,-31.28,0.974914,0.051851,-0.080386,0.200812,0.0,0.0,0.0,0,0
2026-06-08 19:35:45.931,1567391,R_Ankle,0.0302,-0.0131,1.0048,0.89,-1.85,-0.26,-0.9,28.25,-29.57,0.974914,0.051851,-0.080386,0.200812,0.0,0.0,0.0,0,0
2026-06-08 19:35:45.933,1567364,R_Hip,0.0353,-0.1604,1.0073,-0.26,-1.12,1.51,11.43,-29.79,-22.68,0.225959,0.006348,-0.042207,0.973174,0.0,0.0,0.0,0,0
2026-06-08 19:35:45.934,1567374,R_Hip,0.0431,-0.1019,0.9303,-0.14,-0.42,1.66,0.0,0.0,0.0,0.225929,0.006165,-0.042634,0.973174,0.0,0.0,0.0,0,0
2026-06-08 19:35:45.936,1567384,R_Hip,0.0091,-0.1468,0.9751,-0.13,-0.32,1.58,11.26,-31.07,-21.82,0.225898,0.005646,-0.042848,0.973174,0.0,0.0,0.0,0,0
2026-06-08 19:35:45.938,1567394,R_Hip,-0.0465,-0.1287,0.9664,-0.07,-0.38,1.63,10.89,-30.71,-22.85,0.225806,0.005036,-0.043123,0.973174,0.0,0.0,0.0,0,0
2026-06-08 19:35:45.940,1567384,R_Ankle,0.0292,-0.0265,0.9952,0.9,-1.85,-0.25,-1.42,27.78,-30.64,0.974914,0.051881,-0.080386,0.200812,0.0,0.0,0.0,0,0
2026-06-08 19:35:45.942,1567394,R_Ankle,0.0243,-0.0205,1.0048,0.88,-1.85,-0.26,-1.09,28.11,-31.26,0.974914,0.051851,-0.080386,0.200812,0.0,0.0,0.0,0,0
2026-06-08 19:35:45.942,1567262,L_Ankle,0.0629,0.0202,0.9909,-0.69,-0.38,-0.85,0.0,0.0,0.0,0.917478,0.032075,-0.031434,0.395215,0.0,0.0,0.0,0,0
2026-06-08 19:35:45.945,1567272,L_Ankle,0.0482,0.0085,0.9966,-0.7,-0.4,-0.85,-4.91,21.46,-27.12,0.917478,0.032075,-0.031434,0.395215,0.0,0.0,0.0,0,0
2026-06-08 19:35:45.946,1567404,R_Ankle,0.0268,-0.0245,0.9957,0.88,-1.86,-0.26,-2.46,27.78,-31.58,0.974944,0.05182,-0.080386,0.200812,0.0,0.0,0.0,0,0
2026-06-08 19:35:45.949,1567255,L_Shank,-0.156,-0.2822,0.9182,1.63,-1.06,-0.98,-8.28,28.57,-11.33,0.972076,-0.112369,0.022217,0.204718,0.0,0.0,0.0,0,0
2026-06-08 19:35:45.949,1567414,R_Ankle,0.0253,-0.0235,1.0,0.9,-1.86,-0.25,-1.43,28.43,-31.58,0.974944,0.05182,-0.080386,0.200812,0.0,0.0,0.0,0,0
2026-06-08 19:35:45.953,1567406,R_Ankle,0.0297,-0.0265,0.999,0.89,-1.86,-0.25,-1.93,28.57,-30.81,0.974944,0.05182,-0.080386,0.200812,0.0,0.0,0.0,0,0
2026-06-08 19:35:45.953,1567265,L_Shank,-0.1672,-0.2846,0.934,1.68,-1.13,-0.8,-6.19,27.88,-10.71,0.972198,-0.112705,0.022126,0.203925,0.0,0.0,0.0,0,0
2026-06-08 19:35:45.956,1567416,R_Ankle,0.0263,-0.0245,1.0,0.9,-1.86,-0.25,-1.77,27.14,-30.64,0.974944,0.05179,-0.080386,0.200812,0.0,0.0,0.0,0,0
2026-06-08 19:35:45.956,1567275,L_Shank,-0.1545,-0.289,0.9518,1.7,-1.16,-0.69,0.0,0.0,0.0,0.97235,-0.113041,0.022034,0.203101,0.0,0.0,0.0,0,0
2026-06-08 19:35:45.960,1567285,L_Shank,-0.1574,-0.2802,0.935,1.74,-1.18,-0.47,-6.01,28.74,-11.19,0.972472,-0.113346,0.021973,0.202307,0.0,0.0,0.0,0,0
2026-06-08 19:35:45.960,1567426,R_Ankle,0.0258,-0.0176,1.0101,0.91,-1.86,-0.25,-2.27,27.93,-30.5,0.974944,0.05179,-0.080355,0.200812,0.0,0.0,0.0,0,0
2026-06-08 19:35:45.963,1567436,R_Ankle,0.0199,-0.0181,1.0053,0.89,-1.85,-0.25,-1.44,28.75,-32.5,0.974944,0.05182,-0.080355,0.200812,0.0,0.0,0.0,0,0
2026-06-08 19:35:45.964,1567275,L_Hip,0.1023,-0.2238,0.9595,0.58,-0.04,0.03,-11.6,28.72,-11.57,0.971526,-0.08182,-0.077242,0.208441,0.0,0.0,0.0,0,0
2026-06-08 19:35:45.966,1567285,L_Hip,0.1009,-0.2257,0.958,0.58,-0.03,-0.05,-10.07,29.24,-12.03,0.971526,-0.081851,-0.077486,0.208289,0.0,0.0,0.0,0,0
2026-06-08 19:35:45.976,1567295,L_Hip,0.097,-0.2287,0.9667,0.61,-0.01,-0.13,-11.47,28.24,-10.26,0.971587,-0.081973,-0.077639,0.207984,0.0,0.0,0.0,0,0
2026-06-08 19:35:45.978,1567305,L_Hip,0.0847,-0.2154,0.9561,0.61,0.0,-0.29,0.0,0.0,0.0,0.971648,-0.082125,-0.077731,0.207526,0.0,0.0,0.0,0,0
2026-06-08 19:35:45.980,1567287,L_Ankle,0.057,0.0139,0.987,-0.7,-0.4,-0.86,-4.96,22.51,-28.82,0.917478,0.032075,-0.031465,0.395215,0.0,0.0,0.0,0,0
2026-06-08 19:35:45.983,1567297,L_Ankle,0.0619,0.0202,0.9899,-0.7,-0.4,-0.85,-5.44,22.35,-26.62,0.917478,0.032105,-0.031465,0.395215,0.0,0.0,0.0,0,0
2026-06-08 19:35:45.992,1567451,R_Ankle,0.0317,-0.0215,1.0139,0.91,-1.87,-0.25,-0.73,28.09,-29.41,0.974944,0.05179,-0.080325,0.200812,0.0,0.0,0.0,0,0
2026-06-08 19:35:45.994,1567461,R_Ankle,0.0282,-0.0086,0.9947,0.9,-1.86,-0.25,0.0,0.0,0.0,0.974944,0.05179,-0.080325,0.200812,0.0,0.0,0.0,0,0
2026-06-08 19:35:45.996,1567471,R_Ankle,0.0307,-0.0146,0.9976,0.89,-1.86,-0.24,0.28,27.78,-29.39,0.974944,0.05182,-0.080325,0.200812,0.0,0.0,0.0,0,0
2026-06-08 19:35:45.998,1567452,R_Ankle,0.0248,-0.0141,1.0096,0.89,-1.86,-0.26,-0.22,27.94,-29.55,0.974944,0.05182,-0.080325,0.200812,0.0,0.0,0.0,0,0
2026-06-08 19:35:45.998,1567307,L_Ankle,0.0545,0.0105,0.9794,-0.7,-0.4,-0.85,-4.97,23.22,-28.81,0.917478,0.032105,-0.031465,0.395184,0.0,0.0,0.0,0,0
2026-06-08 19:35:46.000,1567317,L_Ankle,0.0594,0.0056,0.9866,-0.69,-0.39,-0.84,0.0,0.0,0.0,0.917478,0.032105,-0.031465,0.395215,0.0,0.0,0.0,0,0
2026-06-08 19:35:46.003,1567297,L_Hip,0.0945,-0.2365,0.9735,0.57,0.0,-0.41,-12.12,28.55,-11.41,0.97174,-0.082308,-0.077761,0.206977,0.0,0.0,0.0,0,0
2026-06-08 19:35:46.006,1567307,L_Hip,0.0955,-0.2498,0.9604,0.56,-0.05,-0.48,-11.79,28.23,-10.84,0.971862,-0.082553,-0.077822,0.206336,0.0,0.0,0.0,0,0
2026-06-08 19:35:46.006,1567464,R_Hip,-0.0268,-0.1595,1.0164,-0.67,-0.83,1.45,10.89,-31.07,-21.82,0.224464,0.003876,-0.046236,0.973357,0.0,0.0,0.0,0,0
2026-06-08 19:35:46.009,1567474,R_Hip,-0.0327,-0.1629,1.0131,-0.8,-0.75,1.34,0.0,0.0,0.0,0.224555,0.003388,-0.046907,0.973296,0.0,0.0,0.0,0,0
2026-06-08 19:35:46.010,1567317,L_Hip,0.0974,-0.2395,0.9725,0.58,-0.06,-0.52,-10.77,29.22,-10.56,0.971984,-0.082797,-0.077853,0.205603,0.0,0.0,0.0,0,0
2026-06-08 19:35:46.013,1567484,R_Hip,-0.0243,-0.1492,1.0136,-0.8,-0.7,1.29,12.35,-30.35,-20.45,0.224708,0.002808,-0.047639,0.973235,0.0,0.0,0.0,0,0
2026-06-08 19:35:46.014,1567327,L_Hip,0.1028,-0.263,0.9706,0.65,-0.04,-0.61,0.0,0.0,0.0,0.972137,-0.083102,-0.077914,0.204779,0.0,0.0,0.0,0,0
2026-06-08 19:35:46.017,1567305,L_Shank,-0.1408,-0.2548,0.9359,1.83,-1.22,-0.25,-8.28,29.93,-11.34,0.972594,-0.113681,0.021882,0.201575,0.0,0.0,0.0,0,0
2026-06-08 19:35:46.017,1567494,R_Hip,-0.0209,-0.1478,0.9871,-0.83,-0.64,1.19,11.07,-31.26,-22.34,0.225013,0.002197,-0.048341,0.973144,0.0,0.0,0.0,0,0
2026-06-08 19:35:46.020,1567315,L_Shank,-0.1457,-0.2533,0.9479,1.91,-1.22,-0.24,-7.23,28.57,-11.34,0.972686,-0.113956,0.02179,0.200903,0.0,0.0,0.0,0,0
2026-06-08 19:35:46.021,1567472,R_Shank,-0.1259,2.5412,0.9432,-0.41,-0.9,-1.45,18.63,-40.22,-2.67,-0.434431,-0.120792,0.147954,0.880184,0.0,0.0,0.0,0,0
2026-06-08 19:35:46.024,1567325,L_Shank,-0.1393,-0.2352,0.9431,1.93,-1.22,-0.31,-6.54,28.9,-11.04,0.972777,-0.114231,0.021729,0.200385,0.0,0.0,0.0,0,0
2026-06-08 19:35:46.024,1567482,R_Shank,-0.1387,2.2824,0.9408,-0.4,-0.91,-1.48,0.0,0.0,0.0,-0.434553,-0.12064,0.147679,0.880215,0.0,0.0,0.0,0,0
2026-06-08 19:35:46.027,1567335,L_Shank,-0.1501,-0.2435,0.9604,1.96,-1.19,-0.39,0.0,0.0,0.0,0.972839,-0.114444,0.021638,0.199988,0.0,0.0,0.0,0,0
2026-06-08 19:35:46.028,1567492,R_Shank,-0.1269,0.7408,0.9518,-0.41,-0.94,-1.53,20.33,-41.24,-2.39,-0.434614,-0.120518,0.147404,0.880245,0.0,0.0,0.0,0,0
2026-06-08 19:35:46.030,1567310,L_Ankle,0.0599,0.0124,0.9837,-0.7,-0.41,-0.85,-5.14,22.69,-28.99,0.917478,0.032105,-0.031465,0.395215,0.0,0.0,0.0,0,0
2026-06-08 19:35:46.032,1567502,R_Shank,-0.1288,2.5412,0.96,-0.41,-1.03,-1.66,18.79,-40.71,-1.62,-0.434614,-0.120334,0.14713,0.880306,0.0,0.0,0.0,0,0
2026-06-08 19:35:46.033,1567320,L_Ankle,0.0545,0.0119,0.9938,-0.7,-0.39,-0.85,-5.1,22.34,-27.29,0.917478,0.032105,-0.031434,0.395215,0.0,0.0,0.0,0,0
2026-06-08 19:35:46.036,1567330,L_Ankle,0.0575,0.0105,0.9731,-0.7,-0.41,-0.85,-4.8,24.11,-28.64,0.917478,0.032105,-0.031434,0.395215,0.0,0.0,0.0,0,0
2026-06-08 19:35:46.038,1567495,R_Shank,-0.1279,-1.9532,0.9706,-0.35,-1.16,-1.91,20.15,-40.74,-1.94,-0.434492,-0.120121,0.146855,0.880428,0.0,0.0,0.0,0,0
2026-06-08 19:35:46.039,1567340,L_Ankle,0.0516,0.008,1.0,-0.68,-0.38,-0.84,0.0,0.0,0.0,0.917478,0.032136,-0.031434,0.395215,0.0,0.0,0.0,0,0
2026-06-08 19:35:46.041,1567505,R_Shank,-0.1411,0.618,0.9566,-0.29,-1.25,-2.03,20.14,-40.4,-1.93,-0.434278,-0.119846,0.14658,0.880642,0.0,0.0,0.0,0,0
2026-06-08 19:35:46.043,1567320,L_Hip,0.095,-0.2537,0.9551,0.85,-0.03,-0.58,-10.24,29.71,-11.01,0.972289,-0.083407,-0.077944,0.203925,0.0,0.0,0.0,0,0
2026-06-08 19:35:46.044,1567515,R_Shank,-0.1377,1.518,0.947,-0.26,-1.29,-2.1,19.99,-40.9,-2.39,-0.433943,-0.119602,0.146367,0.880856,0.0,0.0,0.0,0,0
2026-06-08 19:35:46.046,1567330,L_Hip,0.0842,-0.2572,0.9532,0.93,0.01,-0.26,-11.59,29.05,-12.15,0.972442,-0.083712,-0.077975,0.20307,0.0,0.0,0.0,0,0
2026-06-08 19:35:46.047,1567525,R_Shank,-0.1269,1.2588,0.9403,-0.16,-1.32,-2.25,0.0,0.0,0.0,-0.433515,-0.119358,0.146214,0.88113,0.0,0.0,0.0,0,0
2026-06-08 19:35:46.055,1567340,L_Hip,0.0788,-0.2576,0.944,0.93,0.03,-0.05,-11.6,29.05,-11.57,0.972594,-0.084048,-0.078036,0.202185,0.0,0.0,0.0,0,0
2026-06-08 19:35:46.057,1567350,L_Hip,0.0881,-0.2429,0.9493,0.91,-0.03,0.22,0.0,0.0,0.0,0.972747,-0.084384,-0.078066,0.20127,0.0,0.0,0.0,0,0
2026-06-08 19:35:46.060,1567517,R_Shank,-0.1244,1.0,0.947,-0.08,-1.32,-2.45,18.31,-41.2,-2.67,-0.433027,-0.119144,0.146153,0.881405,0.0,0.0,0.0,0,0
2026-06-08 19:35:46.061,1567330,L_Shank,-0.1569,-0.2455,0.9335,2.07,-1.12,-0.89,-7.06,29.42,-11.19,0.973022,-0.114383,0.021241,0.199133,0.0,0.0,0.0,0,0
2026-06-08 19:35:46.063,1567340,L_Shank,-0.1437,-0.2533,0.9498,2.09,-1.1,-0.87,0.0,0.0,0.0,0.973083,-0.114231,0.021271,0.198859,0.0,0.0,0.0,0,0
2026-06-08 19:35:46.063,1567527,R_Shank,-0.1416,-0.8004,0.9269,-0.03,-1.44,-2.59,20.33,-41.24,-2.7,-0.432417,-0.1189,0.146092,0.881741,0.0,0.0,0.0,0,0
2026-06-08 19:35:46.066,1567537,R_Shank,-0.1382,-2.7304,0.9192,-0.03,-1.5,-2.65,0.0,0.0,0.0,-0.431715,-0.118717,0.146153,0.882107,0.0,0.0,0.0,0,0
2026-06-08 19:35:46.067,1567350,L_Shank,-0.1638,-0.244,0.9604,2.08,-1.11,-0.87,-6.52,30.62,-12.61,0.973174,-0.114078,0.021271,0.198523,0.0,0.0,0.0,0,0
2026-06-08 19:35:46.069,1567360,L_Shank,-0.155,-0.2426,0.9431,2.09,-1.13,-0.84,0.0,0.0,0.0,0.973296,-0.113865,0.021271,0.198126,0.0,0.0,0.0,0,0
2026-06-08 19:35:46.070,1567547,R_Shank,-0.1342,1.2456,0.924,-0.01,-1.58,-2.74,19.32,-41.22,-2.38,-0.430921,-0.118503,0.146275,0.882504,0.0,0.0,0.0,0,0
2026-06-08 19:35:46.073,1567332,L_Ankle,0.0648,0.0075,0.9846,-0.7,-0.4,-0.83,-5.85,24.12,-28.32,0.917478,0.032105,-0.031434,0.395215,0.0,0.0,0.0,0,0
2026-06-08 19:35:46.073,1567518,R_Ankle,0.0258,-0.0121,1.0134,0.9,-1.87,-0.25,-1.08,28.74,-31.27,0.974944,0.051851,-0.080325,0.200812,0.0,0.0,0.0,0,0
2026-06-08 19:35:46.076,1567342,L_Ankle,0.0462,0.0061,0.9914,-0.7,-0.4,-0.85,-4.58,22.51,-27.11,0.917478,0.032136,-0.031434,0.395215,0.0,0.0,0.0,0,0
2026-06-08 19:35:46.076,1567519,R_Ankle,0.0302,-0.0141,1.0019,0.9,-1.87,-0.25,0.0,0.0,0.0,0.974944,0.051851,-0.080325,0.200812,0.0,0.0,0.0,0,0
2026-06-08 19:35:46.079,1567529,R_Ankle,0.0297,-0.0116,0.9938,0.9,-1.86,-0.25,-1.42,28.41,-30.65,0.974944,0.051851,-0.080325,0.200812,0.0,0.0,0.0,0,0
2026-06-08 19:35:46.080,1567539,R_Ankle,0.0297,-0.0195,1.0105,0.9,-1.86,-0.24,-1.08,28.74,-30.65,0.974944,0.051851,-0.080325,0.200812,0.0,0.0,0.0,0,0
2026-06-08 19:35:46.082,1567540,R_Hip,-0.0455,-0.115,0.9592,-1.03,-0.5,-0.83,11.25,-30.7,-23.19,0.229743,-0.001312,-0.052217,0.971831,0.0,0.0,0.0,0,0
2026-06-08 19:35:46.083,1567550,R_Hip,-0.044,-0.1121,0.9625,-0.85,-0.86,-1.03,0.0,0.0,0.0,0.231391,-0.001923,-0.052858,0.971404,0.0,0.0,0.0,0,0
2026-06-08 19:35:46.085,1567560,R_Hip,-0.0332,-0.1092,0.9654,-0.77,-0.96,-1.09,11.98,-30.34,-22.16,0.233161,-0.002228,-0.053407,0.970946,0.0,0.0,0.0,0,0
2026-06-08 19:35:46.087,1567570,R_Hip,-0.0223,-0.0989,0.9803,-0.7,-0.96,-1.14,11.98,-28.88,-22.51,0.234993,-0.002472,-0.053865,0.970489,0.0,0.0,0.0,0,0
2026-06-08 19:35:46.088,1567352,L_Ankle,0.0521,0.0153,0.9885,-0.7,-0.41,-0.84,-5.64,20.75,-29.17,0.917478,0.032105,-0.031434,0.395215,0.0,0.0,0.0,0,0
2026-06-08 19:35:46.090,1567541,R_Ankle,0.0253,-0.0195,0.9981,0.9,-1.87,-0.25,-1.09,27.14,-30.32,0.974944,0.051851,-0.080325,0.200812,0.0,0.0,0.0,0,0
2026-06-08 19:35:46.091,1567362,L_Ankle,0.0697,0.01,0.9866,-0.7,-0.42,-0.86,0.0,0.0,0.0,0.917478,0.032105,-0.031404,0.395215,0.0,0.0,0.0,0,0
2026-06-08 19:35:46.093,1567551,R_Ankle,0.0194,-0.0225,1.0153,0.89,-1.87,-0.26,0.0,0.0,0.0,0.974944,0.051851,-0.080325,0.200812,0.0,0.0,0.0,0,0
2026-06-08 19:35:46.094,1567365,L_Hip,0.0768,-0.2355,0.9638,1.0,-0.32,0.2,-11.77,28.88,-11.42,0.9729,-0.08475,-0.078158,0.200323,0.0,0.0,0.0,0,0
2026-06-08 19:35:46.096,1567561,R_Ankle,0.0248,-0.0195,0.9928,0.9,-1.85,-0.25,-0.91,27.94,-30.79,0.974944,0.051851,-0.080294,0.200842,0.0,0.0,0.0,0,0
2026-06-08 19:35:46.097,1567375,L_Hip,0.0798,-0.2306,0.9716,1.19,-0.45,0.17,-12.29,28.71,-10.98,0.973083,-0.085086,-0.078188,0.199347,0.0,0.0,0.0,0,0
2026-06-08 19:35:46.099,1567571,R_Ankle,0.0219,-0.022,1.0096,0.9,-1.86,-0.26,-0.39,28.42,-30.02,0.974944,0.05182,-0.080264,0.200842,0.0,0.0,0.0,0,0
2026-06-08 19:35:46.122,1567385,L_Hip,0.0862,-0.2311,0.9846,1.26,-0.49,0.2,-11.79,27.59,-12.0,0.973235,-0.085391,-0.078219,0.19837,0.0,0.0,0.0,0,0
2026-06-08 19:35:46.124,1567395,L_Hip,0.094,-0.2218,0.9725,1.33,-0.58,0.14,0.0,0.0,0.0,0.973418,-0.085726,-0.078249,0.197363,0.0,0.0,0.0,0,0
2026-06-08 19:35:46.127,1567377,L_Ankle,0.059,0.0124,0.9851,-0.69,-0.41,-0.85,-5.98,21.47,-28.16,0.917447,0.032075,-0.031434,0.395215,0.0,0.0,0.0,0,0
2026-06-08 19:35:46.128,1567585,R_Shank,-0.1274,-2.096,0.8956,0.02,-1.57,-2.65,19.98,-40.24,-2.99,-0.430158,-0.11829,0.146489,0.88287,0.0,0.0,0.0,0,0
2026-06-08 19:35:46.130,1567387,L_Ankle,0.0492,0.009,0.9875,-0.7,-0.41,-0.84,-4.93,21.81,-28.14,0.917447,0.032075,-0.031434,0.395245,0.0,0.0,0.0,0,0
2026-06-08 19:35:46.131,1567595,R_Shank,-0.1166,-1.0728,0.9134,0.03,-1.54,-2.61,18.14,-41.04,-2.82,-0.429426,-0.118107,0.146764,0.883206,0.0,0.0,0.0,0,0
2026-06-08 19:35:46.133,1567397,L_Ankle,0.0639,0.0105,0.9856,-0.7,-0.41,-0.83,-5.77,20.94,-26.63,0.917447,0.032105,-0.031434,0.395245,0.0,0.0,0.0,0,0
2026-06-08 19:35:46.134,1567605,R_Shank,-0.12,-1.332,0.9033,0.03,-1.5,-2.61,0.0,0.0,0.0,-0.428724,-0.117924,0.147069,0.883541,0.0,0.0,0.0,0,0
2026-06-08 19:35:46.136,1567407,L_Ankle,0.0599,0.0192,0.9717,-0.68,-0.39,-0.84,0.0,0.0,0.0,0.917447,0.032105,-0.031434,0.395215,0.0,0.0,0.0,0,0
2026-06-08 19:35:46.138,1567615,R_Shank,-0.1259,-2.3616,0.9206,-0.03,-1.53,-2.66,18.47,-41.04,-2.52,-0.427992,-0.117771,0.147404,0.883847,0.0,0.0,0.0,0,0
2026-06-08 19:35:46.140,1567380,L_Shank,-0.1452,-0.2357,0.9532,2.31,-1.43,0.33,-7.57,29.6,-12.28,0.974212,-0.112094,0.021119,0.194586,0.0,0.0,0.0,0,0
2026-06-08 19:35:46.141,1567586,R_Ankle,0.0214,-0.0111,1.0,0.9,-1.87,-0.25,-2.28,27.93,-30.81,0.974944,0.05182,-0.080264,0.200842,0.0,0.0,0.0,0,0
2026-06-08 19:35:46.143,1567390,L_Shank,-0.1555,-0.2445,0.9503,2.32,-1.48,0.53,0.0,0.0,0.0,0.974212,-0.11182,0.021058,0.194739,0.0,0.0,0.0,0,0
2026-06-08 19:35:46.144,1567596,R_Ankle,0.0253,-0.0151,1.0014,0.9,-1.86,-0.26,0.0,0.0,0.0,0.974944,0.05182,-0.080294,0.200842,0.0,0.0,0.0,0,0
2026-06-08 19:35:46.146,1567400,L_Shank,-0.1633,-0.2391,0.9532,2.35,-1.48,0.63,-8.1,28.06,-11.48,0.974212,-0.111454,0.020966,0.194952,0.0,0.0,0.0,0,0
2026-06-08 19:35:46.147,1567606,R_Ankle,0.0292,-0.0255,1.0129,0.9,-1.87,-0.25,0.62,28.43,-30.32,0.974944,0.05182,-0.080264,0.200842,0.0,0.0,0.0,0,0
2026-06-08 19:35:46.149,1567410,L_Shank,-0.155,-0.2347,0.9522,2.41,-1.54,0.84,-8.81,29.07,-10.86,0.974212,-0.111026,0.020875,0.195166,0.0,0.0,0.0,0,0
2026-06-08 19:35:46.150,1567616,R_Ankle,0.0263,-0.0161,1.0096,0.9,-1.87,-0.25,-0.56,27.3,-29.55,0.974944,0.05182,-0.080294,0.200842,0.0,0.0,0.0,0,0
2026-06-08 19:35:46.153,1567405,L_Shank,-0.1442,-0.2122,0.9614,2.49,-1.57,1.06,-7.04,29.78,-13.06,0.974242,-0.11063,0.020783,0.195349,0.0,0.0,0.0,0,0
2026-06-08 19:35:46.153,1567609,R_Ankle,0.0322,-0.0151,1.0,0.9,-1.86,-0.25,-1.43,26.51,-30.32,0.974944,0.05182,-0.080294,0.200842,0.0,0.0,0.0,0,0
2026-06-08 19:35:46.156,1567415,L_Shank,-0.1501,-0.198,0.9426,2.46,-1.57,1.11,0.0,0.0,0.0,0.974212,-0.110233,0.020692,0.195654,0.0,0.0,0.0,0,0
2026-06-08 19:35:46.156,1567619,R_Ankle,0.0317,-0.0195,0.9952,0.9,-1.87,-0.25,0.0,0.0,0.0,0.974944,0.05182,-0.080294,0.200842,0.0,0.0,0.0,0,0
2026-06-08 19:35:46.159,1567425,L_Shank,-0.1511,-0.1848,0.9412,2.42,-1.54,1.09,-7.23,28.92,-11.96,0.974181,-0.109836,0.0206,0.196051,0.0,0.0,0.0,0,0
2026-06-08 19:35:46.160,1567629,R_Ankle,0.0297,-0.0126,1.0062,0.89,-1.86,-0.25,-1.26,27.63,-31.1,0.974914,0.051851,-0.080294,0.200842,0.0,0.0,0.0,0,0
2026-06-08 19:35:46.162,1567435,L_Shank,-0.1374,-0.1985,0.9355,2.35,-1.57,1.06,-7.92,29.6,-12.59,0.97412,-0.109439,0.020539,0.1966,0.0,0.0,0.0,0,0
2026-06-08 19:35:46.163,1567639,R_Ankle,0.0326,-0.021,0.9962,0.9,-1.87,-0.25,-0.4,28.74,-30.95,0.974914,0.05182,-0.080294,0.200842,0.0,0.0,0.0,0,0
2026-06-08 19:35:46.165,1567422,L_Ankle,0.059,0.0075,0.9875,-0.7,-0.39,-0.86,-4.58,21.09,-28.81,0.917447,0.032136,-0.031434,0.395215,0.0,0.0,0.0,0,0
2026-06-08 19:35:46.166,1567614,R_Hip,-0.0391,-0.0872,0.989,-0.45,-0.69,-1.42,11.62,-29.61,-22.85,0.236976,-0.002777,-0.05417,0.96997,0.0,0.0,0.0,0,0
2026-06-08 19:35:46.169,1567432,L_Ankle,0.0531,0.008,0.9933,-0.7,-0.4,-0.85,-5.49,23.41,-28.31,0.917447,0.032105,-0.031434,0.395245,0.0,0.0,0.0,0,0
2026-06-08 19:35:46.169,1567624,R_Hip,-0.0332,-0.0814,0.9765,-0.36,-0.73,-1.41,0.0,0.0,0.0,0.23899,-0.003113,-0.054292,0.969481,0.0,0.0,0.0,0,0
2026-06-08 19:35:46.172,1567442,L_Ankle,0.0575,0.01,0.9933,-0.7,-0.4,-0.85,-3.89,22.85,-27.44,0.917447,0.032105,-0.031434,0.395245,0.0,0.0,0.0,0,0
2026-06-08 19:35:46.172,1567634,R_Hip,-0.0342,-0.0882,0.9828,-0.24,-0.98,-1.21,11.98,-29.61,-22.51,0.240883,-0.003296,-0.054384,0.968993,0.0,0.0,0.0,0,0
2026-06-08 19:35:46.175,1567452,L_Ankle,0.0516,0.0153,0.9909,-0.69,-0.39,-0.84,-7.2,22.73,-26.99,0.917447,0.032105,-0.031434,0.395245,0.0,0.0,0.0,0,0
2026-06-08 19:35:46.175,1567644,R_Hip,-0.0322,-0.1024,0.9861,-0.17,-1.12,-1.03,12.35,-29.98,-22.51,0.242561,-0.003265,-0.054476,0.968596,0.0,0.0,0.0,0,0
2026-06-08 19:35:46.178,1567445,L_Ankle,0.0629,0.0124,1.0043,-0.7,-0.4,-0.86,-4.92,21.45,-27.8,0.917447,0.032136,-0.031465,0.395215,0.0,0.0,0.0,0,0
2026-06-08 19:35:46.179,1567630,R_Shank,-0.1122,-1.1888,0.9317,-0.22,-1.53,-2.37,20.84,-41.09,-2.85,-0.424055,-0.116184,0.14835,0.8858,0.0,0.0,0.0,0,0
2026-06-08 19:35:46.181,1567455,L_Ankle,0.0501,0.0114,0.9808,-0.7,-0.4,-0.84,0.0,0.0,0.0,0.917447,0.032136,-0.031465,0.395215,0.0,0.0,0.0,0,0
2026-06-08 19:35:46.182,1567640,R_Shank,-0.1043,1.2588,0.9369,-0.23,-1.41,-2.03,18.82,-41.7,-1.93,-0.423597,-0.115818,0.148381,0.886074,0.0,0.0,0.0,0,0
2026-06-08 19:35:46.184,1567465,L_Ankle,0.0472,0.0109,0.9957,-0.71,-0.4,-0.84,-5.25,21.82,-26.1,0.917447,0.032136,-0.031465,0.395245,0.0,0.0,0.0,0,0
2026-06-08 19:35:46.186,1567650,R_Shank,-0.1176,-0.412,0.9264,-0.24,-1.32,-1.86,0.0,0.0,0.0,-0.423353,-0.115421,0.14832,0.886227,0.0,0.0,0.0,0,0
2026-06-08 19:35:46.187,1567475,L_Ankle,0.0492,0.0119,0.9923,-0.7,-0.4,-0.84,-4.04,22.33,-26.59,0.917447,0.032136,-0.031434,0.395215,0.0,0.0,0.0,0,0
2026-06-08 19:35:46.189,1567660,R_Shank,-0.119,-1.0528,0.9331,-0.23,-1.16,-1.46,18.64,-40.22,-3.57,-0.423353,-0.115146,0.148167,0.886288,0.0,0.0,0.0,0,0
2026-06-08 19:35:46.191,1567455,L_Shank,-0.1418,-0.1848,0.9652,2.28,-1.54,0.96,-7.05,29.09,-12.12,0.974029,-0.108921,0.020447,0.197302,0.0,0.0,0.0,0,0
2026-06-08 19:35:46.192,1567639,R_Hip,-0.013,-0.1434,0.9808,0.03,-1.33,-0.15,12.53,-30.16,-23.36,0.243904,-0.003143,-0.054628,0.96823,0.0,0.0,0.0,0,0
2026-06-08 19:35:46.193,1567465,L_Shank,-0.1354,-0.1795,0.9628,2.28,-1.51,0.87,0.0,0.0,0.0,0.973937,-0.10831,0.020356,0.198096,0.0,0.0,0.0,0,0
2026-06-08 19:35:46.195,1567649,R_Hip,-0.0115,-0.1565,0.9828,0.08,-1.32,0.07,0.0,0.0,0.0,0.244972,-0.002991,-0.054781,0.967956,0.0,0.0,0.0,0,0
2026-06-08 19:35:46.196,1567475,L_Shank,-0.1325,-0.1868,0.9618,2.29,-1.48,0.8,-6.17,27.92,-13.2,0.973846,-0.1077,0.020264,0.19892,0.0,0.0,0.0,0,0
2026-06-08 19:35:46.198,1567659,R_Hip,-0.015,-0.1648,0.9717,0.21,-1.33,0.55,11.98,-30.34,-23.19,0.245705,-0.002869,-0.054933,0.967772,0.0,0.0,0.0,0,0
2026-06-08 19:35:46.200,1567485,L_Shank,-0.1476,-0.1746,0.957,2.25,-1.36,0.59,-8.46,29.41,-10.87,0.973754,-0.107089,0.020203,0.199774,0.0,0.0,0.0,0,0
2026-06-08 19:35:46.201,1567669,R_Hip,-0.0288,-0.1907,0.9847,0.27,-1.35,0.75,11.43,-30.16,-23.02,0.246132,-0.002777,-0.055055,0.96765,0.0,0.0,0.0,0,0
2026-06-08 19:35:46.203,1567478,L_Hip,0.0994,-0.2424,1.0108,1.6,-1.12,-0.28,-12.43,28.87,-12.28,0.973601,-0.086001,-0.07831,0.196326,0.0,0.0,0.0,0,0
2026-06-08 19:35:46.204,1567654,R_Ankle,0.0268,-0.02,1.0091,0.9,-1.87,-0.25,-0.71,29.36,-29.11,0.974914,0.05182,-0.080294,0.200842,0.0,0.0,0.0,0,0
2026-06-08 19:35:46.206,1567664,R_Ankle,0.0346,-0.0176,1.0067,0.89,-1.87,-0.26,0.0,0.0,0.0,0.974914,0.05182,-0.080294,0.200842,0.0,0.0,0.0,0,0
2026-06-08 19:35:46.208,1567674,R_Ankle,0.0331,-0.0225,1.0091,0.9,-1.87,-0.25,-1.93,27.93,-30.5,0.974914,0.05182,-0.080325,0.200842,0.0,0.0,0.0,0,0
2026-06-08 19:35:46.210,1567684,R_Ankle,0.0282,-0.0131,1.0024,0.9,-1.86,-0.25,-1.07,28.73,-30.03,0.974914,0.05182,-0.080325,0.200842,0.0,0.0,0.0,0,0
2026-06-08 19:35:46.211,1567664,R_Hip,-0.0322,-0.2005,0.9784,0.51,-1.47,1.56,14.72,-30.16,-21.3,0.246284,-0.002655,-0.055177,0.967589,0.0,0.0,0.0,0,0
2026-06-08 19:35:46.212,1567488,L_Hip,0.1028,-0.2267,0.9972,1.89,-1.1,-0.11,-14.14,27.87,-12.25,0.973785,-0.086306,-0.078372,0.195288,0.0,0.0,0.0,0,0
2026-06-08 19:35:46.214,1567674,R_Hip,-0.0485,-0.1834,0.9871,0.54,-1.51,1.74,0.0,0.0,0.0,0.246162,-0.002503,-0.055239,0.96762,0.0,0.0,0.0,0,0
2026-06-08 19:35:46.215,1567498,L_Hip,0.1038,-0.2066,0.9798,1.96,-0.88,0.12,-12.65,27.41,-11.26,0.973968,-0.086612,-0.078402,0.19422,0.0,0.0,0.0,0,0
2026-06-08 19:35:46.217,1567684,R_Hip,-0.0396,-0.1805,0.9779,0.64,-1.59,2.03,13.07,-30.34,-23.19,0.245857,-0.00235,-0.055147,0.967711,0.0,0.0,0.0,0,0
2026-06-08 19:35:46.218,1567508,L_Hip,0.1073,-0.1953,0.9532,1.93,-0.43,0.54,-11.95,29.04,-10.69,0.974151,-0.086886,-0.078463,0.193152,0.0,0.0,0.0,0,0
2026-06-08 19:35:46.221,1567694,R_Hip,-0.0421,-0.1727,0.9808,0.66,-1.64,2.13,11.98,-29.61,-23.53,0.245399,-0.002136,-0.055055,0.967833,0.0,0.0,0.0,0,0
2026-06-08 19:35:46.222,1567490,L_Ankle,0.0585,0.0178,0.9856,-0.7,-0.4,-0.85,-4.42,23.04,-27.61,0.917447,0.032136,-0.031434,0.395215,0.0,0.0,0.0,0,0
2026-06-08 19:35:46.234,1567500,L_Ankle,0.056,0.0168,0.9837,-0.72,-0.4,-0.86,0.0,0.0,0.0,0.917447,0.032167,-0.031465,0.395215,0.0,0.0,0.0,0,0
2026-06-08 19:35:46.237,1567510,L_Ankle,0.0594,0.0188,0.9827,-0.7,-0.41,-0.84,-4.92,20.74,-28.48,0.917447,0.032167,-0.031434,0.395245,0.0,0.0,0.0,0,0
2026-06-08 19:35:46.240,1567697,R_Shank,-0.0994,1.5112,0.959,0.15,-1.09,-1.05,19.15,-40.73,-3.13,-0.427931,-0.113742,0.148473,0.884213,0.0,0.0,0.0,0,0
2026-06-08 19:35:46.241,1567520,L_Ankle,0.0565,0.01,0.9842,-0.7,-0.39,-0.87,-5.47,23.06,-27.63,0.917447,0.032197,-0.031434,0.395215,0.0,0.0,0.0,0,0
2026-06-08 19:35:46.244,1567698,R_Shank,-0.0847,-1.4416,0.9576,0.2,-1.15,-1.19,0.0,0.0,0.0,-0.428205,-0.11359,0.148686,0.88406,0.0,0.0,0.0,0,0
2026-06-08 19:35:46.244,1567505,L_Shank,-0.1139,-0.2005,0.9522,2.13,-1.18,0.27,-7.75,29.08,-11.8,0.973632,-0.10654,0.020051,0.200568,0.0,0.0,0.0,0,0
2026-06-08 19:35:46.247,1567708,R_Shank,-0.096,-2.9828,0.9562,0.22,-1.16,-1.27,19.49,-41.06,-3.14,-0.428419,-0.113376,0.1489,0.883969,0.0,0.0,0.0,0,0
2026-06-08 19:35:46.249,1567718,R_Shank,-0.0925,-1.4416,0.9509,0.27,-1.14,-1.35,19.49,-41.39,-2.84,-0.42851,-0.113224,0.149113,0.883877,0.0,0.0,0.0,0,0
2026-06-08 19:35:46.257,1567515,L_Shank,-0.1149,-0.1941,0.9614,2.03,-1.13,0.1,0.0,0.0,0.0,0.97354,-0.105991,0.019929,0.2013,0.0,0.0,0.0,0,0
2026-06-08 19:35:46.259,1567525,L_Shank,-0.1027,-0.1985,0.9695,2.01,-1.12,0.02,-6.53,27.55,-11.64,0.973479,-0.105411,0.019837,0.202002,0.0,0.0,0.0,0,0
2026-06-08 19:35:46.262,1567535,L_Shank,-0.0861,-0.2,0.9738,2.01,-1.09,-0.16,-6.88,28.57,-11.34,0.973418,-0.104862,0.019745,0.202612,0.0,0.0,0.0,0,0
2026-06-08 19:35:46.265,1567722,R_Ankle,0.0243,-0.019,1.0062,0.9,-1.87,-0.26,-1.41,28.73,-30.35,0.974914,0.05182,-0.080325,0.200873,0.0,0.0,0.0,0,0
2026-06-08 19:35:46.266,1567535,L_Ankle,0.055,0.0149,0.9846,-0.7,-0.4,-0.85,-4.43,22.68,-28.3,0.917447,0.032228,-0.031434,0.395215,0.0,0.0,0.0,0,0
2026-06-08 19:35:46.268,1567732,R_Ankle,0.0243,-0.021,1.0024,0.89,-1.87,-0.25,-0.4,27.15,-30.32,0.974914,0.05182,-0.080325,0.200842,0.0,0.0,0.0,0,0
2026-06-08 19:35:46.270,1567742,R_Ankle,0.0258,-0.023,1.0048,0.9,-1.87,-0.27,0.0,0.0,0.0,0.974914,0.05182,-0.080294,0.200842,0.0,0.0,0.0,0,0
2026-06-08 19:35:46.272,1567752,R_Ankle,0.0273,-0.024,1.0062,0.9,-1.86,-0.25,-0.73,28.42,-30.34,0.974944,0.05182,-0.080294,0.200842,0.0,0.0,0.0,0,0
2026-06-08 19:35:46.285,1567744,R_Ankle,0.0282,-0.0136,1.0034,0.9,-1.87,-0.26,-1.06,28.08,-29.1,0.974914,0.05182,-0.080294,0.200842,0.0,0.0,0.0,0,0
2026-06-08 19:35:46.286,1567754,R_Ankle,0.0415,-0.0294,1.0053,0.9,-1.87,-0.26,0.0,0.0,0.0,0.974914,0.051851,-0.080294,0.200842,0.0,0.0,0.0,0,0
2026-06-08 19:35:46.289,1567545,L_Ankle,0.0526,0.0114,0.9904,-0.7,-0.4,-0.86,0.0,0.0,0.0,0.917447,0.032228,-0.031434,0.395215,0.0,0.0,0.0,0,0
2026-06-08 19:35:46.289,1567764,R_Ankle,0.039,-0.0161,1.0115,0.87,-1.86,-0.25,-0.74,28.42,-30.64,0.974914,0.05182,-0.080325,0.200842,0.0,0.0,0.0,0,0
2026-06-08 19:35:46.292,1567555,L_Ankle,0.0585,0.0061,0.9875,-0.7,-0.4,-0.86,-4.07,21.97,-28.63,0.917447,0.032197,-0.031465,0.395245,0.0,0.0,0.0,0,0
2026-06-08 19:35:46.293,1567774,R_Ankle,0.0297,-0.0106,1.0014,0.89,-1.86,-0.25,-1.59,28.25,-30.5,0.974914,0.051851,-0.080355,0.200842,0.0,0.0,0.0,0,0
2026-06-08 19:35:46.295,1567565,L_Ankle,0.0594,0.0065,0.9784,-0.7,-0.39,-0.83,-4.22,22.51,-26.76,0.917447,0.032197,-0.031465,0.395245,0.0,0.0,0.0,0,0
2026-06-08 19:35:46.298,1567545,L_Hip,0.0999,-0.1653,0.9575,1.85,-0.69,0.04,-12.81,28.21,-10.82,0.974334,-0.08713,-0.078494,0.192083,0.0,0.0,0.0,0,0
2026-06-08 19:35:46.307,1567766,R_Ankle,0.0307,-0.0146,1.0029,0.89,-1.86,-0.25,-2.63,27.3,-31.42,0.974914,0.051851,-0.080325,0.200842,0.0,0.0,0.0,0,0
2026-06-08 19:35:46.309,1567776,R_Ankle,0.0277,-0.0185,1.0077,0.9,-1.85,-0.25,0.0,0.0,0.0,0.974914,0.051851,-0.080325,0.200842,0.0,0.0,0.0,0,0
2026-06-08 19:35:46.311,1567786,R_Ankle,0.0228,-0.0195,1.0115,0.9,-1.86,-0.25,-1.07,28.09,-30.03,0.974914,0.051881,-0.080325,0.200842,0.0,0.0,0.0,0,0
2026-06-08 19:35:46.312,1567555,L_Hip,0.0862,-0.1712,0.9885,1.94,-0.7,0.0,0.0,0.0,0.0,0.974487,-0.087405,-0.078524,0.191046,0.0,0.0,0.0,0,0
2026-06-08 19:35:46.314,1567796,R_Ankle,0.0179,-0.0225,0.9981,0.89,-1.87,-0.25,-1.6,27.31,-31.1,0.974914,0.051851,-0.080294,0.200842,0.0,0.0,0.0,0,0
2026-06-08 19:35:46.315,1567565,L_Hip,0.0935,-0.1638,0.9846,2.07,-0.77,0.08,-13.13,27.25,-12.56,0.97467,-0.087649,-0.078555,0.190069,0.0,0.0,0.0,0,0
2026-06-08 19:35:46.318,1567575,L_Hip,0.0989,-0.18,0.9827,2.19,-0.59,0.55,-11.44,27.92,-12.0,0.974822,-0.087954,-0.078555,0.189154,0.0,0.0,0.0,0,0
2026-06-08 19:35:46.321,1567567,L_Hip,0.1323,-0.1555,0.9333,1.76,-0.48,1.04,-13.31,27.08,-12.12,0.974944,-0.088229,-0.078585,0.18833,0.0,0.0,0.0,0,0
2026-06-08 19:35:46.323,1567577,L_Hip,0.1377,-0.152,0.9449,1.58,-0.52,0.96,0.0,0.0,0.0,0.975036,-0.088534,-0.078646,0.187689,0.0,0.0,0.0,0,0
2026-06-08 19:35:46.328,1567787,R_Shank,-0.1077,2.6708,0.9461,0.35,-1.19,-1.54,19.96,-39.58,-2.38,-0.428571,-0.113071,0.149358,0.883847,0.0,0.0,0.0,0,0
2026-06-08 19:35:46.330,1567797,R_Shank,-0.1004,-0.6708,0.9312,0.37,-1.18,-1.58,0.0,0.0,0.0,-0.428571,-0.11298,0.149663,0.883816,0.0,0.0,0.0,0,0
2026-06-08 19:35:46.332,1567807,R_Shank,-0.1014,1.0,0.9269,0.38,-1.14,-1.6,19.49,-41.06,-3.14,-0.42851,-0.112888,0.149937,0.883816,0.0,0.0,0.0,0,0
2026-06-08 19:35:46.334,1567817,R_Shank,-0.1009,2.5412,0.9269,0.44,-1.12,-1.54,20.33,-41.57,-2.1,-0.42848,-0.112857,0.150243,0.883786,0.0,0.0,0.0,0,0
2026-06-08 19:35:46.335,1567789,R_Hip,0.0007,-0.1487,0.9924,0.64,-1.56,1.43,11.25,-28.88,-23.54,0.240761,0.001526,-0.053743,0.969085,0.0,0.0,0.0,0,0
2026-06-08 19:35:46.337,1567799,R_Hip,0.0062,-0.1473,0.9818,0.67,-1.53,1.37,0.0,0.0,0.0,0.240791,0.001862,-0.05356,0.969085,0.0,0.0,0.0,0,0
2026-06-08 19:35:46.339,1567809,R_Hip,0.0052,-0.1478,0.9905,0.67,-1.48,1.35,12.89,-29.8,-21.99,0.240883,0.002197,-0.053377,0.969054,0.0,0.0,0.0,0,0
2026-06-08 19:35:46.341,1567819,R_Hip,0.0052,-0.137,0.9818,0.68,-1.47,1.32,11.43,-29.42,-24.05,0.241005,0.002503,-0.053133,0.969054,0.0,0.0,0.0,0,0
2026-06-08 19:35:46.349,1567587,L_Hip,0.1298,-0.153,0.9464,1.4,-0.57,0.8,-12.79,28.22,-11.98,0.975097,-0.088778,-0.078677,0.187201,0.0,0.0,0.0,0,0
2026-06-08 19:35:46.353,1567597,L_Hip,0.1391,-0.1589,0.9585,1.26,-0.68,0.46,-13.28,28.37,-12.41,0.975158,-0.089022,-0.078738,0.186865,0.0,0.0,0.0,0,0
2026-06-08 19:35:46.354,1567811,R_Ankle,0.0238,-0.0156,1.0014,0.89,-1.87,-0.25,-1.07,27.13,-28.78,0.974914,0.051851,-0.080264,0.200873,0.0,0.0,0.0,0,0
2026-06-08 19:35:46.357,1567590,L_Hip,0.1617,-0.1707,0.9599,1.19,-0.69,0.71,-12.78,27.9,-12.56,0.975188,-0.089145,-0.078829,0.186651,0.0,0.0,0.0,0,0
2026-06-08 19:35:46.358,1567821,R_Ankle,0.0263,-0.019,1.0139,0.9,-1.86,-0.25,-2.28,27.94,-31.12,0.974914,0.05182,-0.080264,0.200873,0.0,0.0,0.0,0,0
2026-06-08 19:35:46.361,1567600,L_Hip,0.1607,-0.1614,0.9425,1.1,-0.66,0.76,0.0,0.0,0.0,0.975219,-0.089175,-0.07889,0.186438,0.0,0.0,0.0,0,0
2026-06-08 19:35:46.362,1567831,R_Ankle,0.0273,-0.0111,1.0115,0.9,-1.87,-0.24,0.0,0.0,0.0,0.974914,0.05182,-0.080264,0.200873,0.0,0.0,0.0,0,0
2026-06-08 19:35:46.364,1567841,R_Ankle,0.0189,-0.0131,1.0081,0.89,-1.86,-0.25,-1.1,27.8,-31.87,0.974914,0.05182,-0.080264,0.200873,0.0,0.0,0.0,0,0
2026-06-08 19:35:46.367,1567814,R_Hip,-0.0071,-0.1517,0.9909,0.72,-1.42,1.3,12.89,-29.79,-23.36,0.241188,0.002777,-0.052889,0.969024,0.0,0.0,0.0,0,0
2026-06-08 19:35:46.369,1567824,R_Hip,-0.0135,-0.1517,0.9909,0.71,-1.43,1.32,0.0,0.0,0.0,0.24131,0.002991,-0.052644,0.968993,0.0,0.0,0.0,0,0
2026-06-08 19:35:46.372,1567610,L_Hip,0.1602,-0.1653,0.9483,1.0,-0.61,0.75,-12.62,28.06,-11.84,0.975249,-0.089114,-0.07889,0.186163,0.0,0.0,0.0,0,0
2026-06-08 19:35:46.373,1567834,R_Hip,-0.0051,-0.1565,0.9731,0.7,-1.43,1.37,11.8,-30.16,-23.02,0.241401,0.003204,-0.052431,0.968993,0.0,0.0,0.0,0,0
2026-06-08 19:35:46.376,1567844,R_Hip,-0.0031,-0.1546,0.9828,0.7,-1.43,1.44,12.53,-29.43,-22.68,0.241432,0.003418,-0.052248,0.968993,0.0,0.0,0.0,0,0
2026-06-08 19:35:46.377,1567620,L_Hip,0.1401,-0.1766,0.9609,0.79,-0.54,0.64,-11.78,27.59,-12.29,0.975341,-0.088961,-0.07889,0.185858,0.0,0.0,0.0,0,0
2026-06-08 19:35:46.380,1567602,L_Ankle,0.0585,0.0031,0.9938,-0.7,-0.4,-0.85,-5.82,22.71,-27.98,0.917447,0.032197,-0.031465,0.395245,0.0,0.0,0.0,0,0
2026-06-08 19:35:46.380,1567832,R_Shank,-0.0999,0.3588,0.936,0.49,-1.06,-1.36,19.64,-40.24,-2.68,-0.42851,-0.112827,0.150578,0.883694,0.0,0.0,0.0,0,0
2026-06-08 19:35:46.383,1567612,L_Ankle,0.0565,0.0149,0.9904,-0.7,-0.41,-0.85,0.0,0.0,0.0,0.917447,0.032197,-0.031465,0.395245,0.0,0.0,0.0,0,0
2026-06-08 19:35:46.384,1567842,R_Shank,-0.091,0.4884,0.9393,0.5,-1.0,-1.18,0.0,0.0,0.0,-0.428602,-0.112796,0.150914,0.883602,0.0,0.0,0.0,0,0
2026-06-08 19:35:46.388,1567622,L_Ankle,0.056,0.007,0.9928,-0.7,-0.41,-0.83,-5.79,22.36,-26.62,0.917447,0.032197,-0.031465,0.395245,0.0,0.0,0.0,0,0
2026-06-08 19:35:46.389,1567852,R_Shank,-0.0876,1.3884,0.9384,0.51,-0.95,-1.09,18.13,-40.37,-2.82,-0.428846,-0.112796,0.15125,0.883419,0.0,0.0,0.0,0,0
2026-06-08 19:35:46.391,1567632,L_Ankle,0.056,0.0202,0.977,-0.69,-0.4,-0.85,-4.96,23.58,-27.79,0.917447,0.032167,-0.031465,0.395245,0.0,0.0,0.0,0,0
2026-06-08 19:35:46.392,1567862,R_Shank,-0.0847,-2.3416,0.9369,0.5,-0.89,-0.93,19.66,-41.23,-2.99,-0.429212,-0.112796,0.151555,0.883206,0.0,0.0,0.0,0,0
2026-06-08 19:35:46.395,1567612,L_Hip,0.146,-0.1962,0.9595,0.77,-0.38,0.66,-12.29,28.39,-11.26,0.975433,-0.088809,-0.07886,0.185492,0.0,0.0,0.0,0,0
2026-06-08 19:35:46.397,1567622,L_Hip,0.1401,-0.1933,0.9628,0.75,-0.32,0.7,0.0,0.0,0.0,0.975524,-0.088656,-0.07886,0.185034,0.0,0.0,0.0,0,0
2026-06-08 19:35:46.399,1567856,R_Ankle,0.0253,-0.0205,0.9976,0.89,-1.87,-0.25,-0.9,27.93,-29.56,0.974944,0.05182,-0.080233,0.200873,0.0,0.0,0.0,0,0
2026-06-08 19:35:46.401,1567632,L_Hip,0.148,-0.1933,0.9711,0.7,-0.26,0.73,-12.61,28.71,-12.13,0.975646,-0.088504,-0.07886,0.184484,0.0,0.0,0.0,0,0
2026-06-08 19:35:46.404,1567866,R_Ankle,0.0346,-0.0146,1.0096,0.88,-1.86,-0.25,0.0,0.0,0.0,0.974944,0.05182,-0.080233,0.200873,0.0,0.0,0.0,0,0
2026-06-08 19:35:46.406,1567642,L_Hip,0.1475,-0.1712,0.9628,0.55,-0.12,0.78,-13.08,29.51,-12.85,0.975799,-0.08829,-0.078799,0.183813,0.0,0.0,0.0,0,0
2026-06-08 19:35:46.409,1567857,R_Ankle,0.0292,-0.0205,1.0139,0.89,-1.86,-0.25,-1.42,28.74,-30.96,0.974914,0.051851,-0.080264,0.200873,0.0,0.0,0.0,0,0
2026-06-08 19:35:46.410,1567625,L_Ankle,0.0575,0.0202,0.9899,-0.7,-0.41,-0.85,-5.62,21.47,-27.47,0.917447,0.032167,-0.031434,0.395276,0.0,0.0,0.0,0,0
2026-06-08 19:35:46.413,1567867,R_Ankle,0.0243,-0.0265,0.9957,0.9,-1.87,-0.25,-0.73,27.77,-29.4,0.974914,0.051851,-0.080264,0.200873,0.0,0.0,0.0,0,0
2026-06-08 19:35:46.415,1567635,L_Ankle,0.0575,0.0153,0.9827,-0.7,-0.4,-0.84,-4.58,22.87,-26.77,0.917447,0.032167,-0.031434,0.395276,0.0,0.0,0.0,0,0
2026-06-08 19:35:46.418,1567645,L_Ankle,0.0501,0.0119,0.9962,-0.69,-0.4,-0.83,0.0,0.0,0.0,0.917447,0.032167,-0.031465,0.395276,0.0,0.0,0.0,0,0
2026-06-08 19:35:46.421,1567877,R_Shank,-0.0778,0.7344,0.9441,0.52,-0.83,-0.76,19.64,-39.91,-2.98,-0.42964,-0.112796,0.151921,0.882931,0.0,0.0,0.0,0,0
2026-06-08 19:35:46.424,1567655,L_Ankle,0.0585,0.0129,0.988,-0.7,-0.41,-0.84,-6.15,21.65,-27.65,0.917447,0.032167,-0.031434,0.395276,0.0,0.0,0.0,0,0
2026-06-08 19:35:46.425,1567887,R_Shank,-0.0832,1.1224,0.9321,0.56,-0.82,-0.69,0.0,0.0,0.0,-0.430158,-0.112827,0.152379,0.882595,0.0,0.0,0.0,0,0
2026-06-08 19:35:46.428,1567647,L_Ankle,0.0678,0.0139,0.999,-0.7,-0.39,-0.84,-4.41,22.69,-27.62,0.917447,0.032167,-0.031465,0.395276,0.0,0.0,0.0,0,0
2026-06-08 19:35:46.429,1567897,R_Shank,-0.0832,-2.0896,0.9269,0.56,-0.8,-0.66,18.97,-40.55,-2.68,-0.430677,-0.112918,0.152806,0.88226,0.0,0.0,0.0,0,0
2026-06-08 19:35:46.432,1567907,R_Shank,-0.0802,0.9928,0.9326,0.55,-0.75,-0.58,19.15,-41.05,-2.83,-0.431288,-0.11301,0.153264,0.881863,0.0,0.0,0.0,0,0
2026-06-08 19:35:46.441,1567900,R_Shank,-0.0979,-2.7368,0.9499,0.56,-0.61,-0.39,19.33,-41.88,-2.69,-0.431928,-0.113163,0.153722,0.881436,0.0,0.0,0.0,0,0
2026-06-08 19:35:46.443,1567910,R_Shank,-0.0935,2.7872,0.9403,0.53,-0.54,-0.26,20.68,-41.26,-3.91,-0.432691,-0.113346,0.154118,0.880978,0.0,0.0,0.0,0,0
2026-06-08 19:35:46.444,1567920,R_Shank,-0.1028,-0.0432,0.9235,0.52,-0.51,-0.2,19.63,-40.23,-2.08,-0.433515,-0.11359,0.154515,0.880459,0.0,0.0,0.0,0,0
2026-06-08 19:35:46.446,1567930,R_Shank,-0.0925,3.1688,0.9225,0.51,-0.43,-0.04,0.0,0.0,0.0,-0.434462,-0.113895,0.154942,0.87991,0.0,0.0,0.0,0,0
2026-06-08 19:35:46.448,1567657,L_Ankle,0.0452,0.0129,0.9774,-0.7,-0.38,-0.86,-6.0,23.24,-27.81,0.917447,0.032167,-0.031465,0.395276,0.0,0.0,0.0,0,0
2026-06-08 19:35:46.450,1567667,L_Ankle,0.0599,0.0129,0.987,-0.7,-0.4,-0.84,0.0,0.0,0.0,0.917447,0.032197,-0.031465,0.395276,0.0,0.0,0.0,0,0
2026-06-08 19:35:46.453,1567677,L_Ankle,0.0531,0.009,0.9885,-0.68,-0.39,-0.86,-5.45,22.7,-26.95,0.917447,0.032197,-0.031465,0.395276,0.0,0.0,0.0,0,0
2026-06-08 19:35:46.456,1567657,L_Hip,0.1328,-0.1368,0.9551,0.1,0.03,0.49,-12.29,27.75,-12.13,0.976684,-0.087527,-0.078768,0.179449,0.0,0.0,0.0,0,0
2026-06-08 19:35:46.462,1567667,L_Hip,0.1435,-0.1314,0.9667,0.05,0.03,0.42,-13.22,30.96,-13.29,0.976867,-0.087283,-0.078768,0.178472,0.0,0.0,0.0,0,0
2026-06-08 19:35:46.465,1567922,R_Shank,-0.0999,-2.3552,0.9086,0.3,-0.47,-0.16,17.31,-42.17,-1.77,-0.439436,-0.115452,0.156896,0.876858,0.0,0.0,0.0,0,0
2026-06-08 19:35:46.465,1567677,L_Hip,0.1357,-0.1393,0.9667,-0.02,0.09,0.3,0.0,0.0,0.0,0.97705,-0.086978,-0.078677,0.177709,0.0,0.0,0.0,0,0
2026-06-08 19:35:46.470,1567932,R_Shank,-0.0969,3.0392,0.9134,0.29,-0.51,-0.29,18.99,-41.87,-2.08,-0.440321,-0.115696,0.15717,0.876339,0.0,0.0,0.0,0,0
2026-06-08 19:35:46.470,1567687,L_Hip,0.122,-0.1442,0.9808,-0.06,0.12,0.25,-11.39,29.86,-12.88,0.977172,-0.086734,-0.078524,0.17719,0.0,0.0,0.0,0,0
2026-06-08 19:35:46.474,1567942,R_Shank,-0.1077,2.6576,0.9235,0.28,-0.54,-0.36,0.0,0.0,0.0,-0.441084,-0.11594,0.157476,0.875881,0.0,0.0,0.0,0,0
2026-06-08 19:35:46.475,1567680,L_Shank,-0.1095,-0.2069,0.959,2.0,-0.99,-0.54,-7.56,28.93,-12.89,0.973357,-0.104373,0.019715,0.20304,0.0,0.0,0.0,0,0
2026-06-08 19:35:46.478,1567952,R_Shank,-0.1053,1.2456,0.9148,0.27,-0.62,-0.54,18.46,-41.03,-1.62,-0.441755,-0.116123,0.157689,0.875454,0.0,0.0,0.0,0,0
2026-06-08 19:35:46.479,1567690,L_Shank,-0.1149,-0.2308,0.947,1.97,-1.02,-0.54,0.0,0.0,0.0,0.973357,-0.104007,0.019715,0.203314,0.0,0.0,0.0,0,0
2026-06-08 19:35:46.484,1567700,L_Shank,-0.132,-0.2308,0.9546,1.96,-1.03,-0.48,-7.05,28.75,-11.81,0.973357,-0.103732,0.019654,0.203467,0.0,0.0,0.0,0,0
2026-06-08 19:35:46.488,1567710,L_Shank,-0.1345,-0.2294,0.9551,1.96,-1.04,-0.22,-7.56,28.93,-12.89,0.973388,-0.103458,0.019593,0.203497,0.0,0.0,0.0,0,0
2026-06-08 19:35:46.488,1567945,R_Shank,-0.1077,2.0232,0.9389,0.31,-0.96,-1.29,18.32,-41.54,-2.98,-0.443556,-0.116703,0.158635,0.874294,0.0,0.0,0.0,0,0
2026-06-08 19:35:46.492,1567714,L_Ankle,0.0575,0.0129,0.9842,-0.7,-0.39,-0.85,-5.11,20.92,-28.99,0.917447,0.032167,-0.031465,0.395276,0.0,0.0,0.0,0,0
2026-06-08 19:35:46.493,1567955,R_Shank,-0.1082,-2.9896,0.9269,0.33,-1.0,-1.34,18.12,-40.04,-2.81,-0.443709,-0.116733,0.158818,0.874203,0.0,0.0,0.0,0,0
2026-06-08 19:35:46.495,1567965,R_Shank,-0.1053,-2.9896,0.9355,0.34,-1.02,-1.37,0.0,0.0,0.0,-0.4438,-0.116733,0.159032,0.874111,0.0,0.0,0.0,0,0
2026-06-08 19:35:46.497,1567975,R_Shank,-0.1131,-3.1192,0.9312,0.35,-1.05,-1.4,17.46,-41.35,-1.91,-0.443861,-0.116764,0.159246,0.87405,0.0,0.0,0.0,0,0
2026-06-08 19:35:46.499,1567947,R_Ankle,0.0292,-0.0181,0.9957,0.9,-1.86,-0.24,-0.39,28.74,-30.64,0.974914,0.051851,-0.080233,0.200873,0.0,0.0,0.0,0,0
2026-06-08 19:35:46.501,1567957,R_Ankle,0.0307,-0.0151,0.9933,0.88,-1.87,-0.26,0.0,0.0,0.0,0.974914,0.051851,-0.080264,0.200873,0.0,0.0,0.0,0,0
2026-06-08 19:35:46.503,1567967,R_Ankle,0.0312,-0.0225,1.0149,0.89,-1.86,-0.26,-1.07,28.09,-29.41,0.974914,0.05182,-0.080264,0.200873,0.0,0.0,0.0,0,0
2026-06-08 19:35:46.504,1567977,R_Ankle,0.0243,-0.0245,1.0038,0.9,-1.87,-0.24,-1.94,28.26,-31.12,0.974914,0.051851,-0.080264,0.200873,0.0,0.0,0.0,0,0
2026-06-08 19:35:46.505,1567724,L_Ankle,0.0644,0.009,0.9938,-0.7,-0.39,-0.86,-4.6,22.51,-28.13,0.917447,0.032167,-0.031465,0.395276,0.0,0.0,0.0,0,0
2026-06-08 19:35:46.507,1567734,L_Ankle,0.0526,0.0158,0.9803,-0.7,-0.41,-0.84,0.0,0.0,0.0,0.917447,0.032167,-0.031465,0.395276,0.0,0.0,0.0,0,0
2026-06-08 19:35:46.511,1567744,L_Ankle,0.0521,0.0134,0.9842,-0.7,-0.4,-0.83,-4.93,22.87,-26.77,0.917447,0.032197,-0.031465,0.395276,0.0,0.0,0.0,0,0
2026-06-08 19:35:46.512,1567969,R_Ankle,0.0238,-0.0111,0.9947,0.9,-1.87,-0.25,-1.57,29.83,-29.9,0.974914,0.05182,-0.080264,0.200903,0.0,0.0,0.0,0,0
2026-06-08 19:35:46.516,1567725,L_Hip,0.1019,-0.1692,0.9774,0.0,0.41,-0.16,-13.12,27.89,-12.85,0.977691,-0.084201,-0.078982,0.175359,0.0,0.0,0.0,0,0
2026-06-08 19:35:46.517,1567979,R_Ankle,0.0336,-0.0121,1.0072,0.91,-1.87,-0.26,0.0,0.0,0.0,0.974914,0.051851,-0.080264,0.200903,0.0,0.0,0.0,0,0
2026-06-08 19:35:46.520,1567735,L_Hip,0.0979,-0.1643,0.99,0.0,0.42,-0.14,-11.58,29.05,-12.73,0.977844,-0.083285,-0.07947,0.174749,0.0,0.0,0.0,0,0
2026-06-08 19:35:46.521,1567989,R_Ankle,0.0273,-0.0151,0.9933,0.89,-1.87,-0.25,-1.08,28.1,-30.64,0.974914,0.051851,-0.080264,0.200903,0.0,0.0,0.0,0,0
2026-06-08 19:35:46.524,1567745,L_Hip,0.096,-0.1732,0.9817,-0.02,0.43,-0.05,0.0,0.0,0.0,0.977996,-0.082186,-0.08002,0.1742,0.0,0.0,0.0,0,0
2026-06-08 19:35:46.526,1567999,R_Ankle,0.0297,-0.0285,1.0115,0.9,-1.87,-0.26,-0.03,29.68,-28.8,0.974914,0.051881,-0.080294,0.200873,0.0,0.0,0.0,0,0
2026-06-08 19:35:46.528,1567755,L_Hip,0.0955,-0.1815,0.9827,-0.01,0.42,0.03,-13.46,28.53,-11.97,0.978118,-0.080996,-0.080294,0.173956,0.0,0.0,0.0,0,0
2026-06-08 19:35:46.531,1567737,L_Ankle,0.0555,0.0041,0.9875,-0.7,-0.41,-0.86,-4.94,22.52,-27.8,0.917447,0.032197,-0.031465,0.395276,0.0,0.0,0.0,0,0
2026-06-08 19:35:46.534,1567990,R_Hip,0.0037,-0.1028,1.001,0.93,-1.79,3.49,12.53,-30.52,-22.68,0.234748,0.00705,-0.05005,0.970733,0.0,0.0,0.0,0,0
2026-06-08 19:35:46.535,1567747,L_Ankle,0.0668,0.009,0.9856,-0.7,-0.4,-0.85,-5.31,22.87,-28.82,0.917447,0.032167,-0.031465,0.395276,0.0,0.0,0.0,0,0
2026-06-08 19:35:46.537,1568000,R_Hip,0.0022,-0.1019,0.9919,1.03,-1.74,3.55,11.62,-31.44,-23.19,0.233375,0.007508,-0.049562,0.971068,0.0,0.0,0.0,0,0
2026-06-08 19:35:46.540,1568010,R_Hip,-0.0071,-0.0833,0.9881,1.03,-1.74,3.58,0.0,0.0,0.0,0.231971,0.007965,-0.049013,0.971435,0.0,0.0,0.0,0,0
2026-06-08 19:35:46.541,1567757,L_Ankle,0.0619,0.0163,0.9894,-0.7,-0.4,-0.84,-5.25,21.82,-26.1,0.917447,0.032197,-0.031434,0.395276,0.0,0.0,0.0,0,0
2026-06-08 19:35:46.544,1567767,L_Ankle,0.0521,0.0114,0.9798,-0.69,-0.41,-0.86,0.0,0.0,0.0,0.917417,0.032197,-0.031434,0.395276,0.0,0.0,0.0,0,0
2026-06-08 19:35:46.545,1568020,R_Hip,0.016,-0.0936,1.0083,0.93,-1.9,3.63,12.16,-30.16,-23.36,0.230537,0.008393,-0.048463,0.971801,0.0,0.0,0.0,0,0
2026-06-08 19:35:46.548,1567747,L_Hip,0.0999,-0.2134,0.9536,0.05,0.44,0.4,-11.27,27.76,-12.15,0.97821,-0.079836,-0.080294,0.173864,0.0,0.0,0.0,0,0
2026-06-08 19:35:46.549,1567991,R_Ankle,0.0268,-0.021,0.9952,0.89,-1.88,-0.25,-1.26,27.3,-30.48,0.974914,0.051851,-0.080294,0.200903,0.0,0.0,0.0,0,0
2026-06-08 19:35:46.553,1567757,L_Hip,0.0974,-0.2115,0.9711,0.11,0.38,0.6,0.0,0.0,0.0,0.978332,-0.078707,-0.080355,0.17362,0.0,0.0,0.0,0,0
2026-06-08 19:35:46.554,1568001,R_Ankle,0.0268,-0.0185,1.0048,0.88,-1.87,-0.25,0.0,0.0,0.0,0.974914,0.051851,-0.080294,0.200903,0.0,0.0,0.0,0,0
2026-06-08 19:35:46.557,1567767,L_Hip,0.1009,-0.2242,0.9585,0.12,0.38,0.71,-13.28,28.37,-12.41,0.978515,-0.077425,-0.080599,0.173193,0.0,0.0,0.0,0,0
2026-06-08 19:35:46.559,1568011,R_Ankle,0.0233,-0.0245,1.0144,0.89,-1.87,-0.26,-1.77,27.46,-30.95,0.974914,0.051851,-0.080294,0.200903,0.0,0.0,0.0,0,0
2026-06-08 19:35:46.562,1567777,L_Hip,0.0911,-0.2306,0.9672,0.15,0.34,0.83,0.0,0.0,0.0,0.978668,-0.076022,-0.080752,0.172887,0.0,0.0,0.0,0,0
2026-06-08 19:35:46.565,1568021,R_Ankle,0.0238,-0.022,1.0134,0.9,-1.86,-0.24,-1.09,27.79,-31.26,0.974914,0.05182,-0.080294,0.200903,0.0,0.0,0.0,0,0
2026-06-08 19:35:46.568,1567755,L_Shank,-0.1393,-0.2372,0.9542,1.95,-1.03,0.2,-5.82,29.95,-13.23,0.973418,-0.103183,0.019501,0.203375,0.0,0.0,0.0,0,0
2026-06-08 19:35:46.569,1568012,R_Shank,-0.1033,-2.6072,0.9211,0.35,-1.1,-1.42,18.33,-41.87,-2.98,-0.443892,-0.116764,0.15952,0.873959,0.0,0.0,0.0,0,0
2026-06-08 19:35:46.572,1567765,L_Shank,-0.131,-0.221,0.9633,1.94,-1.03,0.39,0.0,0.0,0.0,0.97351,-0.102939,0.01941,0.20307,0.0,0.0,0.0,0,0
2026-06-08 19:35:46.575,1568022,R_Shank,-0.1082,-2.2256,0.9345,0.38,-1.12,-1.39,18.63,-40.54,-2.07,-0.443953,-0.116764,0.159795,0.873898,0.0,0.0,0.0,0,0
2026-06-08 19:35:46.577,1567775,L_Shank,-0.131,-0.2147,0.9556,1.96,-1.03,0.41,-6.68,28.77,-13.68,0.973601,-0.102786,0.01941,0.202734,0.0,0.0,0.0,0,0
2026-06-08 19:35:46.579,1568032,R_Shank,-0.1043,-2.8664,0.9158,0.39,-1.14,-1.38,0.0,0.0,0.0,-0.444014,-0.116764,0.160131,0.873806,0.0,0.0,0.0,0,0
2026-06-08 19:35:46.582,1567785,L_Shank,-0.1208,-0.1985,0.959,1.96,-0.95,0.41,-6.17,28.92,-12.28,0.973663,-0.102725,0.019379,0.20249,0.0,0.0,0.0,0,0
2026-06-08 19:35:46.583,1568042,R_Shank,-0.1068,1.8864,0.9153,0.38,-1.13,-1.34,17.64,-42.18,-1.77,-0.444075,-0.116733,0.160497,0.873714,0.0,0.0,0.0,0,0
2026-06-08 19:35:46.585,1567770,L_Hip,0.0871,-0.2301,0.959,0.38,0.28,1.33,-14.15,28.19,-11.38,0.978759,-0.074648,-0.080752,0.172918,0.0,0.0,0.0,0,0
2026-06-08 19:35:46.588,1568035,R_Shank,-0.1063,-0.684,0.922,0.38,-1.12,-1.26,16.99,-42.83,-2.37,-0.444197,-0.116733,0.160863,0.873592,0.0,0.0,0.0,0,0
2026-06-08 19:35:46.590,1567780,L_Hip,0.096,-0.2346,0.9764,0.42,0.26,1.5,-14.02,26.42,-11.23,0.97882,-0.073428,-0.080844,0.173132,0.0,0.0,0.0,0,0
2026-06-08 19:35:46.592,1568045,R_Shank,-0.0999,-0.684,0.9168,0.36,-1.11,-1.19,0.0,0.0,0.0,-0.444319,-0.116703,0.16126,0.87344,0.0,0.0,0.0,0,0
2026-06-08 19:35:46.594,1567790,L_Hip,0.0862,-0.2296,0.9711,0.48,0.24,1.77,-12.09,28.56,-12.87,0.97882,-0.07242,-0.080996,0.173315,0.0,0.0,0.0,0,0
2026-06-08 19:35:46.597,1568055,R_Shank,-0.0969,-0.8136,0.9091,0.36,-1.1,-1.16,17.48,-42.02,-2.82,-0.444533,-0.116703,0.161596,0.873287,0.0,0.0,0.0,0,0
2026-06-08 19:35:46.598,1567800,L_Hip,0.0901,-0.2174,0.9711,0.48,0.24,1.9,0.0,0.0,0.0,0.978881,-0.071535,-0.081301,0.173315,0.0,0.0,0.0,0,0
2026-06-08 19:35:46.601,1568065,R_Shank,-0.0891,-0.5544,0.9163,0.35,-1.07,-1.09,18.49,-42.03,-2.53,-0.444746,-0.116703,0.161992,0.873104,0.0,0.0,0.0,0,0
2026-06-08 19:35:46.603,1567782,L_Ankle,0.059,0.0105,0.9842,-0.7,-0.39,-0.84,-5.66,23.94,-27.8,0.917447,0.032197,-0.031434,0.395276,0.0,0.0,0.0,0,0
2026-06-08 19:35:46.607,1568036,R_Ankle,0.0238,-0.0156,0.9986,0.88,-1.86,-0.25,-1.09,27.47,-31.25,0.974914,0.05182,-0.080294,0.200903,0.0,0.0,0.0,0,0
2026-06-08 19:35:46.608,1567792,L_Ankle,0.0501,0.009,0.9976,-0.7,-0.4,-0.85,-3.73,22.67,-28.28,0.917447,0.032228,-0.031434,0.395276,0.0,0.0,0.0,0,0
2026-06-08 19:35:46.610,1568046,R_Ankle,0.0214,-0.0195,1.0024,0.89,-1.84,-0.25,0.0,0.0,0.0,0.974914,0.05182,-0.080294,0.200903,0.0,0.0,0.0,0,0
2026-06-08 19:35:46.611,1567802,L_Ankle,0.0575,0.0114,0.9976,-0.69,-0.41,-0.84,-6.19,22.71,-29.35,0.917417,0.032228,-0.031434,0.395276,0.0,0.0,0.0,0,0
2026-06-08 19:35:46.614,1568056,R_Ankle,0.0297,-0.0181,1.0115,0.9,-1.87,-0.25,-0.72,28.09,-29.1,0.974914,0.05182,-0.080264,0.200903,0.0,0.0,0.0,0,0
2026-06-08 19:35:46.615,1567812,L_Ankle,0.0521,0.0129,0.9909,-0.69,-0.41,-0.83,0.0,0.0,0.0,0.917417,0.032228,-0.031434,0.395276,0.0,0.0,0.0,0,0
2026-06-08 19:35:46.618,1568066,R_Ankle,0.0238,-0.021,1.0081,0.9,-1.87,-0.25,-1.59,27.94,-30.49,0.974914,0.05182,-0.080264,0.200903,0.0,0.0,0.0,0,0
2026-06-08 19:35:46.619,1567805,L_Shank,-0.1169,-0.1936,0.9628,1.96,-0.83,0.22,-6.53,29.94,-11.98,0.973693,-0.102664,0.01944,0.202429,0.0,0.0,0.0,0,0
2026-06-08 19:35:46.623,1567815,L_Shank,-0.1139,-0.1853,0.9652,1.97,-0.77,0.0,-7.4,28.75,-12.43,0.973663,-0.102664,0.019501,0.202551,0.0,0.0,0.0,0,0
2026-06-08 19:35:46.623,1568059,R_Ankle,0.0199,-0.0111,1.0019,0.9,-1.87,-0.26,-0.72,28.72,-29.41,0.974914,0.05182,-0.080233,0.200903,0.0,0.0,0.0,0,0
2026-06-08 19:35:46.626,1567825,L_Shank,-0.1217,-0.1932,0.9575,1.97,-0.74,-0.09,0.0,0.0,0.0,0.973601,-0.102603,0.019562,0.202857,0.0,0.0,0.0,0,0
2026-06-08 19:35:46.627,1568069,R_Ankle,0.0194,-0.023,0.9904,0.89,-1.85,-0.27,0.0,0.0,0.0,0.974914,0.05182,-0.080233,0.200903,0.0,0.0,0.0,0,0
2026-06-08 19:35:46.631,1567835,L_Shank,-0.1164,-0.1883,0.9599,1.92,-0.7,-0.27,-6.51,28.26,-13.52,0.97354,-0.102481,0.019684,0.203162,0.0,0.0,0.0,0,0
2026-06-08 19:35:46.631,1568079,R_Ankle,0.0253,-0.0181,1.0172,0.9,-1.86,-0.26,0.27,27.48,-30.62,0.974914,0.05182,-0.080233,0.200873,0.0,0.0,0.0,0,0
2026-06-08 19:35:46.634,1567827,L_Ankle,0.0487,0.0139,0.988,-0.7,-0.4,-0.83,-5.28,21.81,-27.8,0.917447,0.032197,-0.031404,0.395276,0.0,0.0,0.0,0,0
2026-06-08 19:35:46.635,1568089,R_Ankle,0.0248,-0.0181,1.0081,0.9,-1.84,-0.26,-1.6,28.26,-31.11,0.974944,0.05182,-0.080203,0.200873,0.0,0.0,0.0,0,0
2026-06-08 19:35:46.638,1567837,L_Ankle,0.0531,0.008,0.9894,-0.7,-0.4,-0.85,-5.6,21.82,-26.45,0.917417,0.032197,-0.031434,0.395306,0.0,0.0,0.0,0,0
2026-06-08 19:35:46.639,1568080,R_Shank,-0.0783,0.0864,0.9091,0.31,-1.08,-0.97,17.97,-41.85,-1.77,-0.445051,-0.116642,0.162358,0.87289,0.0,0.0,0.0,0,0
2026-06-08 19:35:46.642,1568090,R_Shank,-0.0999,2.2688,0.9168,0.29,-1.06,-0.89,0.0,0.0,0.0,-0.445387,-0.116581,0.162725,0.872646,0.0,0.0,0.0,0,0
2026-06-08 19:35:46.642,1567847,L_Ankle,0.0663,0.0065,0.9875,-0.69,-0.4,-0.84,-4.94,21.81,-28.48,0.917417,0.032197,-0.031434,0.395276,0.0,0.0,0.0,0,0
2026-06-08 19:35:46.646,1567857,L_Ankle,0.056,0.0168,0.9866,-0.7,-0.39,-0.86,0.0,0.0,0.0,0.917417,0.032167,-0.031465,0.395276,0.0,0.0,0.0,0,0
2026-06-08 19:35:46.647,1568100,R_Shank,-0.0945,-0.9432,0.9086,0.29,-1.07,-0.87,18.99,-42.2,-1.48,-0.445753,-0.11652,0.163091,0.872402,0.0,0.0,0.0,0,0
2026-06-08 19:35:46.650,1567850,L_Ankle,0.0492,0.0124,0.9918,-0.69,-0.4,-0.87,-6.53,22.72,-28.67,0.917417,0.032167,-0.031465,0.395306,0.0,0.0,0.0,0,0
2026-06-08 19:35:46.651,1568110,R_Shank,-0.094,-3.1256,0.9105,0.27,-1.06,-0.82,17.98,-42.18,-1.47,-0.44615,-0.116459,0.163427,0.872127,0.0,0.0,0.0,0,0
2026-06-08 19:35:46.655,1567860,L_Ankle,0.0614,0.008,0.9813,-0.7,-0.4,-0.84,-3.52,22.14,-27.09,0.917417,0.032167,-0.031465,0.395306,0.0,0.0,0.0,0,0
2026-06-08 19:35:46.656,1568081,R_Ankle,0.0277,-0.021,1.0134,0.92,-1.87,-0.26,-0.22,28.26,-30.17,0.974944,0.05179,-0.080203,0.200873,0.0,0.0,0.0,0,0
2026-06-08 19:35:46.659,1567870,L_Ankle,0.0477,0.0251,0.9923,-0.7,-0.41,-0.84,-5.46,22.35,-27.64,0.917417,0.032197,-0.031465,0.395306,0.0,0.0,0.0,0,0
2026-06-08 19:35:46.660,1568091,R_Ankle,0.0268,-0.022,1.0014,0.9,-1.86,-0.25,-1.75,28.41,-30.04,0.974944,0.05179,-0.080203,0.200873,0.0,0.0,0.0,0,0
2026-06-08 19:35:46.663,1567880,L_Ankle,0.0658,0.0163,0.976,-0.7,-0.4,-0.85,0.0,0.0,0.0,0.917417,0.032228,-0.031465,0.395276,0.0,0.0,0.0,0,0
2026-06-08 19:35:46.664,1568101,R_Ankle,0.0282,-0.021,1.0048,0.89,-1.85,-0.26,0.0,0.0,0.0,0.974944,0.05179,-0.080203,0.200873,0.0,0.0,0.0,0,0
2026-06-08 19:35:46.667,1567881,L_Shank,-0.1335,-0.1819,0.957,1.82,-0.67,-0.4,-7.06,28.74,-11.49,0.97351,-0.102329,0.019837,0.203467,0.0,0.0,0.0,0,0
2026-06-08 19:35:46.667,1568111,R_Ankle,0.0282,-0.0151,1.0,0.89,-1.86,-0.25,-0.4,27.46,-30.01,0.974944,0.05179,-0.080203,0.200873,0.0,0.0,0.0,0,0
2026-06-08 19:35:46.671,1567891,L_Shank,-0.1467,-0.1809,0.9513,1.78,-0.64,-0.42,-5.47,28.93,-12.6,0.973479,-0.102115,0.02002,0.203681,0.0,0.0,0.0,0,0
2026-06-08 19:35:46.671,1568089,R_Hip,-0.0011,-0.0877,0.9832,1.18,-1.66,3.54,11.44,-32.72,-23.01,0.229102,0.009003,-0.047823,0.972167,0.0,0.0,0.0,0,0
2026-06-08 19:35:46.675,1568099,R_Hip,-0.0125,-0.0765,0.9789,1.22,-1.62,3.43,0.0,0.0,0.0,0.22776,0.00943,-0.04709,0.972503,0.0,0.0,0.0,0,0
2026-06-08 19:35:46.675,1567901,L_Shank,-0.1462,-0.1785,0.9642,1.75,-0.65,-0.43,0.0,0.0,0.0,0.973479,-0.101932,0.020234,0.203772,0.0,0.0,0.0,0,0
2026-06-08 19:35:46.678,1568109,R_Hip,-0.0056,-0.0804,0.9958,1.16,-1.78,3.4,11.8,-31.98,-23.36,0.226447,0.009857,-0.046358,0.972839,0.0,0.0,0.0,0,0
2026-06-08 19:35:46.679,1567911,L_Shank,-0.1447,-0.1706,0.9618,1.74,-0.64,-0.48,-6.0,28.76,-12.75,0.97351,-0.101749,0.020447,0.203681,0.0,0.0,0.0,0,0
2026-06-08 19:35:46.682,1568119,R_Hip,0.0096,-0.0623,1.0054,1.17,-1.87,3.3,11.62,-29.98,-22.17,0.225257,0.010407,-0.045656,0.973144,0.0,0.0,0.0,0,0
2026-06-08 19:35:46.683,1567905,L_Shank,-0.1506,-0.1716,0.9498,1.68,-0.6,-0.54,-5.64,28.77,-13.38,0.97354,-0.101596,0.020661,0.203497,0.0,0.0,0.0,0,0
2026-06-08 19:35:46.686,1567915,L_Shank,-0.1437,-0.1618,0.97,1.64,-0.54,-0.62,-7.22,29.61,-12.91,0.973601,-0.101505,0.020905,0.203253,0.0,0.0,0.0,0,0
2026-06-08 19:35:46.689,1567925,L_Shank,-0.1545,-0.1692,0.9527,1.62,-0.54,-0.66,0.0,0.0,0.0,0.973663,-0.101444,0.02121,0.203009,0.0,0.0,0.0,0,0
2026-06-08 19:35:46.691,1568147,R_Shank,-0.0969,0.216,0.911,0.25,-1.05,-0.77,18.67,-41.88,-3.89,-0.446608,-0.116398,0.163732,0.871853,0.0,0.0,0.0,0,0
2026-06-08 19:35:46.694,1567935,L_Shank,-0.1457,-0.1687,0.9633,1.58,-0.51,-0.73,-7.03,30.48,-14.32,0.973693,-0.101413,0.021516,0.202734,0.0,0.0,0.0,0,0
2026-06-08 19:35:46.694,1568157,R_Shank,-0.0817,-0.9432,0.9168,0.23,-1.05,-0.76,0.0,0.0,0.0,-0.447066,-0.116306,0.164037,0.871578,0.0,0.0,0.0,0,0
2026-06-08 19:35:46.697,1567940,L_Ankle,0.057,0.0075,0.9851,-0.7,-0.41,-0.87,-4.24,23.21,-27.44,0.917417,0.032228,-0.031465,0.395306,0.0,0.0,0.0,0,0
2026-06-08 19:35:46.699,1568167,R_Shank,-0.0822,1.4984,0.9091,0.22,-1.06,-0.76,18.13,-41.35,-1.32,-0.447523,-0.116184,0.164373,0.871303,0.0,0.0,0.0,0,0
2026-06-08 19:35:46.701,1567950,L_Ankle,0.0545,0.0183,0.9794,-0.7,-0.41,-0.85,-4.23,22.51,-27.44,0.917417,0.032258,-0.031465,0.395306,0.0,0.0,0.0,0,0
2026-06-08 19:35:46.703,1568177,R_Shank,-0.096,2.6576,0.9355,0.24,-1.07,-0.76,17.64,-41.84,-1.77,-0.447981,-0.116092,0.164678,0.871029,0.0,0.0,0.0,0,0
2026-06-08 19:35:46.705,1567960,L_Ankle,0.0487,0.0163,0.9875,-0.69,-0.41,-0.85,0.0,0.0,0.0,0.917417,0.032258,-0.031465,0.395306,0.0,0.0,0.0,0,0
2026-06-08 19:35:46.706,1568149,R_Ankle,0.0322,-0.0176,1.0067,0.89,-1.86,-0.25,-1.42,27.46,-30.33,0.974944,0.05179,-0.080203,0.200873,0.0,0.0,0.0,0,0
2026-06-08 19:35:46.709,1567970,L_Ankle,0.0565,0.0041,0.9885,-0.7,-0.41,-0.85,-4.77,22.33,-28.3,0.917417,0.032258,-0.031465,0.395306,0.0,0.0,0.0,0,0
2026-06-08 19:35:46.710,1568159,R_Ankle,0.0312,-0.0255,1.0081,0.89,-1.87,-0.25,-1.76,27.77,-30.03,0.974914,0.05179,-0.080233,0.200873,0.0,0.0,0.0,0,0
2026-06-08 19:35:46.713,1567962,L_Ankle,0.0492,0.0046,0.9933,-0.7,-0.41,-0.86,-5.25,22.17,-25.76,0.917417,0.032258,-0.031434,0.395306,0.0,0.0,0.0,0,0
2026-06-08 19:35:46.714,1568169,R_Ankle,0.0277,-0.0205,1.0067,0.89,-1.87,-0.25,0.0,0.0,0.0,0.974914,0.051759,-0.080233,0.200903,0.0,0.0,0.0,0,0
2026-06-08 19:35:46.717,1567972,L_Ankle,0.0521,0.0061,0.9866,-0.7,-0.4,-0.85,0.0,0.0,0.0,0.917417,0.032289,-0.031434,0.395306,0.0,0.0,0.0,0,0
2026-06-08 19:35:46.718,1568179,R_Ankle,0.0268,-0.024,0.9904,0.9,-1.87,-0.25,0.95,28.12,-30.62,0.974914,0.051759,-0.080233,0.200903,0.0,0.0,0.0,0,0
2026-06-08 19:35:46.721,1567982,L_Ankle,0.0565,0.0124,0.9866,-0.7,-0.4,-0.85,-5.12,21.63,-28.99,0.917417,0.032289,-0.031434,0.395306,0.0,0.0,0.0,0,0
2026-06-08 19:35:46.722,1568170,R_Shank,-0.0876,2.2688,0.922,0.22,-1.09,-0.81,18.0,-42.52,-2.68,-0.448408,-0.116001,0.164983,0.870754,0.0,0.0,0.0,0,0
2026-06-08 19:35:46.725,1567992,L_Ankle,0.0555,0.0144,0.9818,-0.7,-0.39,-0.84,-4.75,21.98,-27.62,0.917417,0.032289,-0.031434,0.395306,0.0,0.0,0.0,0,0
2026-06-08 19:35:46.726,1568180,R_Shank,-0.0773,-0.9432,0.9307,0.19,-1.09,-0.86,0.0,0.0,0.0,-0.448836,-0.115909,0.165319,0.870479,0.0,0.0,0.0,0,0
2026-06-08 19:35:46.730,1567972,L_Hip,0.0803,-0.2257,0.9662,0.57,0.22,2.35,-12.09,27.59,-13.73,0.978942,-0.070711,-0.081698,0.173132,0.0,0.0,0.0,0,0
2026-06-08 19:35:46.731,1568190,R_Shank,-0.0807,-0.3024,0.9187,0.19,-1.11,-0.87,18.47,-41.36,-1.62,-0.449232,-0.115757,0.165624,0.870235,0.0,0.0,0.0,0,0
2026-06-08 19:35:46.734,1567982,L_Hip,0.0822,-0.2257,0.9696,0.61,0.18,2.38,-12.62,28.38,-11.84,0.978973,-0.069948,-0.082125,0.173009,0.0,0.0,0.0,0,0
2026-06-08 19:35:46.735,1568200,R_Shank,-0.0842,-2.3552,0.9182,0.18,-1.11,-0.91,17.47,-41.68,-1.91,-0.449599,-0.115604,0.165899,0.870022,0.0,0.0,0.0,0,0
2026-06-08 19:35:46.738,1567992,L_Hip,0.0901,-0.2105,0.9595,0.66,0.12,2.48,-12.26,28.07,-13.3,0.978973,-0.069277,-0.082583,0.173009,0.0,0.0,0.0,0,0
2026-06-08 19:35:46.739,1568192,R_Shank,-0.0886,-2.744,0.922,0.17,-1.13,-1.01,16.12,-41.98,-1.9,-0.449934,-0.115482,0.166204,0.869808,0.0,0.0,0.0,0,0
2026-06-08 19:35:46.741,1568002,L_Hip,0.0744,-0.2193,0.9638,0.67,0.09,2.48,0.0,0.0,0.0,0.979003,-0.068728,-0.08301,0.172979,0.0,0.0,0.0,0,0
2026-06-08 19:35:46.744,1568202,R_Shank,-0.0788,-0.432,0.9269,0.16,-1.14,-1.08,16.96,-41.18,-2.96,-0.450209,-0.11536,0.166509,0.869625,0.0,0.0,0.0,0,0
2026-06-08 19:35:46.745,1567985,L_Ankle,0.0604,0.009,0.9822,-0.7,-0.41,-0.84,-4.78,22.69,-28.3,0.917417,0.032258,-0.031434,0.395306,0.0,0.0,0.0,0,0
2026-06-08 19:35:46.748,1568212,R_Shank,-0.0812,1.4984,0.9144,0.14,-1.16,-1.11,17.79,-41.68,-1.01,-0.450484,-0.115207,0.166814,0.869442,0.0,0.0,0.0,0,0
2026-06-08 19:35:46.749,1567995,L_Ankle,0.0599,0.0236,0.9808,-0.7,-0.41,-0.85,0.0,0.0,0.0,0.917417,0.032258,-0.031434,0.395306,0.0,0.0,0.0,0,0
2026-06-08 19:35:46.751,1568222,R_Shank,-0.0758,-1.9728,0.9196,0.13,-1.18,-1.16,0.0,0.0,0.0,-0.450697,-0.115055,0.167089,0.869289,0.0,0.0,0.0,0,0
2026-06-08 19:35:46.752,1568005,L_Ankle,0.0624,0.0153,0.9856,-0.7,-0.4,-0.84,-4.76,22.34,-27.62,0.917417,0.032289,-0.031434,0.395306,0.0,0.0,0.0,0,0
2026-06-08 19:35:46.755,1568194,R_Ankle,0.0273,-0.0255,1.0187,0.89,-1.87,-0.25,-1.93,27.61,-30.19,0.974914,0.051759,-0.080233,0.200903,0.0,0.0,0.0,0,0
2026-06-08 19:35:46.756,1568015,L_Ankle,0.0541,0.0065,0.9914,-0.69,-0.41,-0.84,-5.86,24.12,-29.0,0.917417,0.032258,-0.031434,0.395306,0.0,0.0,0.0,0,0
2026-06-08 19:35:46.759,1568204,R_Ankle,0.0219,-0.021,0.9971,0.89,-1.86,-0.25,-1.76,28.41,-30.35,0.974914,0.051729,-0.080264,0.200903,0.0,0.0,0.0,0,0
2026-06-08 19:35:46.760,1568007,L_Ankle,0.056,0.0085,0.987,-0.7,-0.4,-0.85,-5.1,21.99,-27.29,0.917417,0.032228,-0.031465,0.395306,0.0,0.0,0.0,0,0
2026-06-08 19:35:46.762,1568214,R_Ankle,0.0341,-0.019,1.0101,0.89,-1.86,-0.25,0.0,0.0,0.0,0.974914,0.051729,-0.080233,0.200903,0.0,0.0,0.0,0,0
2026-06-08 19:35:46.763,1568017,L_Ankle,0.0501,0.0124,0.9789,-0.69,-0.4,-0.85,0.0,0.0,0.0,0.917417,0.032258,-0.031465,0.395306,0.0,0.0,0.0,0,0
2026-06-08 19:35:46.767,1568224,R_Ankle,0.0302,-0.019,1.0134,0.9,-1.86,-0.25,-1.76,27.45,-29.72,0.974914,0.051729,-0.080233,0.200903,0.0,0.0,0.0,0,0
2026-06-08 19:35:46.767,1568027,L_Ankle,0.0614,0.0188,0.9712,-0.7,-0.39,-0.85,-3.87,21.08,-27.78,0.917417,0.032228,-0.031465,0.395306,0.0,0.0,0.0,0,0
2026-06-08 19:35:46.770,1568216,R_Ankle,0.0317,-0.0225,0.999,0.9,-1.86,-0.25,0.46,28.26,-29.24,0.974914,0.051698,-0.080264,0.200903,0.0,0.0,0.0,0,0
2026-06-08 19:35:46.771,1568037,L_Ankle,0.0477,0.0114,0.9904,-0.7,-0.41,-0.85,-5.63,22.17,-27.81,0.917417,0.032197,-0.031495,0.395306,0.0,0.0,0.0,0,0
2026-06-08 19:35:46.773,1568226,R_Ankle,0.0312,-0.0225,1.0067,0.89,-1.85,-0.25,-1.08,27.14,-30.02,0.974914,0.051698,-0.080264,0.200903,0.0,0.0,0.0,0,0
2026-06-08 19:35:46.774,1568040,L_Hip,0.0945,-0.2041,0.9677,0.58,-0.03,2.45,-12.46,27.9,-11.7,0.979003,-0.068361,-0.083346,0.172857,0.0,0.0,0.0,0,0
2026-06-08 19:35:46.777,1568236,R_Ankle,0.0248,-0.019,1.0058,0.9,-1.85,-0.24,0.0,0.0,0.0,0.974914,0.051668,-0.080264,0.200934,0.0,0.0,0.0,0,0
2026-06-08 19:35:46.778,1568050,L_Hip,0.0979,-0.1972,0.9449,0.54,-0.07,2.41,-11.78,27.92,-12.29,0.979034,-0.068026,-0.083651,0.172765,0.0,0.0,0.0,0,0
2026-06-08 19:35:46.780,1568217,R_Ankle,0.0238,-0.0161,0.9904,0.88,-1.85,-0.26,-0.74,28.74,-30.96,0.974914,0.051698,-0.080264,0.200934,0.0,0.0,0.0,0,0
2026-06-08 19:35:46.781,1568060,L_Hip,0.0994,-0.1953,0.9701,0.51,-0.09,2.34,-10.12,27.3,-11.44,0.979034,-0.067782,-0.083895,0.172704,0.0,0.0,0.0,0,0
2026-06-08 19:35:46.784,1568237,R_Shank,-0.0753,-2.744,0.9182,0.12,-1.22,-1.28,16.97,-42.82,-0.86,-0.45088,-0.114872,0.167364,0.869167,0.0,0.0,0.0,0,0
2026-06-08 19:35:46.784,1568070,L_Hip,0.0935,-0.1943,0.9662,0.49,-0.1,2.29,0.0,0.0,0.0,0.979034,-0.067598,-0.084048,0.172643,0.0,0.0,0.0,0,0
2026-06-08 19:35:46.788,1568055,L_Shank,-0.1863,-0.2421,0.9412,1.48,-0.97,1.16,-5.66,29.09,-11.82,0.973998,-0.104099,0.025697,0.199408,0.0,0.0,0.0,0,0
2026-06-08 19:35:46.788,1568247,R_Shank,-0.0788,-2.744,0.9196,0.12,-1.22,-1.28,17.44,-40.68,-1.61,-0.451003,-0.114689,0.167638,0.869076,0.0,0.0,0.0,0,0
2026-06-08 19:35:46.791,1568065,L_Shank,-0.1711,-0.2343,0.9359,1.48,-1.03,1.29,-6.17,29.61,-12.92,0.973876,-0.104465,0.025941,0.199805,0.0,0.0,0.0,0,0
2026-06-08 19:35:46.792,1568257,R_Shank,-0.069,-0.0432,0.9211,0.12,-1.21,-1.32,17.67,-42.52,-3.88,-0.451125,-0.114505,0.167882,0.868984,0.0,0.0,0.0,0,0
2026-06-08 19:35:46.795,1568267,R_Shank,-0.0748,-2.4848,0.9129,0.11,-1.22,-1.32,0.0,0.0,0.0,-0.451247,-0.114292,0.168126,0.868892,0.0,0.0,0.0,0,0
2026-06-08 19:35:46.795,1568075,L_Shank,-0.1701,-0.2352,0.9474,1.48,-1.05,1.32,-6.69,28.42,-13.05,0.973754,-0.10477,0.026124,0.200262,0.0,0.0,0.0,0,0
2026-06-08 19:35:46.798,1568085,L_Shank,-0.1555,-0.2264,0.9436,1.52,-1.08,1.35,0.0,0.0,0.0,0.973601,-0.105045,0.026399,0.200842,0.0,0.0,0.0,0,0
2026-06-08 19:35:46.800,1568075,L_Ankle,0.0624,0.0075,0.9966,-0.7,-0.4,-0.84,-5.11,21.99,-28.31,0.917417,0.032197,-0.031465,0.395306,0.0,0.0,0.0,0,0
2026-06-08 19:35:46.803,1568085,L_Ankle,0.0506,0.0119,0.976,-0.69,-0.39,-0.84,0.0,0.0,0.0,0.917417,0.032167,-0.031465,0.395306,0.0,0.0,0.0,0,0
2026-06-08 19:35:46.804,1568261,R_Ankle,0.0194,-0.0195,1.0091,0.89,-1.87,-0.25,-1.06,29.69,-30.35,0.974914,0.051698,-0.080264,0.200934,0.0,0.0,0.0,0,0
2026-06-08 19:35:46.808,1568095,L_Ankle,0.0467,0.0183,1.0125,-0.7,-0.39,-0.86,-6.18,22.0,-29.01,0.917417,0.032197,-0.031495,0.395306,0.0,0.0,0.0,0,0
2026-06-08 19:35:46.809,1568271,R_Ankle,0.0331,-0.02,1.0019,0.89,-1.86,-0.25,-2.62,27.29,-30.19,0.974914,0.051698,-0.080233,0.200934,0.0,0.0,0.0,0,0
2026-06-08 19:35:46.812,1568281,R_Ankle,0.0268,-0.0181,1.0077,0.9,-1.87,-0.25,0.0,0.0,0.0,0.974914,0.051698,-0.080233,0.200934,0.0,0.0,0.0,0,0
2026-06-08 19:35:46.813,1568105,L_Ankle,0.0653,0.01,0.9822,-0.69,-0.41,-0.84,-6.14,22.72,-26.29,0.917417,0.032197,-0.031465,0.395337,0.0,0.0,0.0,0,0
2026-06-08 19:35:46.816,1568291,R_Ankle,0.0175,-0.0215,0.9947,0.88,-1.86,-0.25,-1.25,27.62,-30.18,0.974914,0.051698,-0.080233,0.200934,0.0,0.0,0.0,0,0
2026-06-08 19:35:46.817,1568097,L_Ankle,0.0663,0.0163,0.9774,-0.7,-0.39,-0.85,-4.57,21.8,-27.45,0.917417,0.032197,-0.031465,0.395337,0.0,0.0,0.0,0,0
2026-06-08 19:35:46.819,1568107,L_Ankle,0.0614,0.0163,0.9914,-0.7,-0.39,-0.84,-6.69,23.25,-27.48,0.917417,0.032197,-0.031465,0.395337,0.0,0.0,0.0,0,0
2026-06-08 19:35:46.823,1568117,L_Ankle,0.0653,0.0149,0.9798,-0.7,-0.4,-0.84,0.0,0.0,0.0,0.917417,0.032197,-0.031495,0.395337,0.0,0.0,0.0,0,0
2026-06-08 19:35:46.826,1568282,R_Shank,-0.0915,-0.1664,0.9326,0.12,-1.22,-1.28,18.14,-42.34,-1.02,-0.451369,-0.114109,0.16834,0.868831,0.0,0.0,0.0,0,0
2026-06-08 19:35:46.827,1568127,L_Ankle,0.057,0.0065,1.001,-0.7,-0.4,-0.86,-5.1,21.63,-27.63,0.917417,0.032197,-0.031465,0.395337,0.0,0.0,0.0,0,0
2026-06-08 19:35:46.830,1568292,R_Shank,-0.0793,0.4752,0.9288,0.12,-1.21,-1.24,17.99,-42.84,-1.18,-0.451521,-0.113895,0.168523,0.86874,0.0,0.0,0.0,0,0
2026-06-08 19:35:46.831,1568107,L_Hip,0.0955,-0.1904,0.9633,0.41,-0.05,2.03,-13.14,28.21,-10.82,0.979034,-0.067507,-0.084109,0.172643,0.0,0.0,0.0,0,0
2026-06-08 19:35:46.833,1568302,R_Shank,-0.0807,3.0456,0.9004,0.14,-1.16,-1.15,0.0,0.0,0.0,-0.451704,-0.113742,0.168706,0.868618,0.0,0.0,0.0,0,0
2026-06-08 19:35:46.834,1568117,L_Hip,0.0974,-0.1889,0.9822,0.38,-0.06,1.98,-12.42,28.55,-13.15,0.979034,-0.067446,-0.084109,0.172674,0.0,0.0,0.0,0,0
2026-06-08 19:35:46.839,1568312,R_Shank,-0.0739,0.6048,0.9105,0.16,-1.12,-1.06,17.47,-42.99,-0.42,-0.451979,-0.113559,0.16892,0.868465,0.0,0.0,0.0,0,0
2026-06-08 19:35:46.839,1568127,L_Hip,0.092,-0.1884,0.9808,0.35,-0.05,1.93,-11.58,30.33,-10.99,0.979034,-0.067446,-0.084017,0.172704,0.0,0.0,0.0,0,0
2026-06-08 19:35:46.843,1568284,R_Ankle,0.0238,-0.0166,1.0134,0.9,-1.87,-0.25,-1.74,29.99,-30.06,0.974914,0.051698,-0.080203,0.200934,0.0,0.0,0.0,0,0
2026-06-08 19:35:46.843,1568137,L_Hip,0.1028,-0.1967,0.9672,0.32,-0.06,1.84,-10.94,27.77,-12.15,0.979034,-0.067446,-0.083956,0.172704,0.0,0.0,0.0,0,0
2026-06-08 19:35:46.847,1568294,R_Ankle,0.0238,-0.022,1.0014,0.89,-1.85,-0.26,-1.61,27.63,-31.41,0.974914,0.051698,-0.080203,0.200934,0.0,0.0,0.0,0,0
2026-06-08 19:35:46.847,1568130,L_Shank,-0.1701,-0.2191,0.9383,1.55,-1.06,0.87,-5.31,28.06,-11.5,0.972503,-0.106388,0.027284,0.205237,0.0,0.0,0.0,0,0
2026-06-08 19:35:46.850,1568304,R_Ankle,0.0375,-0.02,1.0029,0.88,-1.87,-0.25,0.0,0.0,0.0,0.974914,0.051698,-0.080203,0.200934,0.0,0.0,0.0,0,0
2026-06-08 19:35:46.851,1568140,L_Shank,-0.1696,-0.2103,0.9585,1.57,-1.04,0.82,-6.53,28.24,-11.96,0.972289,-0.106571,0.027375,0.206153,0.0,0.0,0.0,0,0
2026-06-08 19:35:46.853,1568314,R_Ankle,0.0292,-0.0265,1.0105,0.88,-1.87,-0.25,-1.06,29.36,-29.43,0.974914,0.051698,-0.080233,0.200934,0.0,0.0,0.0,0,0
2026-06-08 19:35:46.854,1568150,L_Shank,-0.1662,-0.2142,0.9441,1.57,-1.03,0.79,-5.3,29.09,-12.45,0.972076,-0.106693,0.027467,0.207038,0.0,0.0,0.0,0,0
2026-06-08 19:35:46.857,1568289,R_Hip,-0.0056,-0.075,0.9919,1.11,-1.74,2.93,11.07,-32.35,-22.67,0.224189,0.010865,-0.044984,0.973418,0.0,0.0,0.0,0,0
2026-06-08 19:35:46.858,1568160,L_Shank,-0.155,-0.201,0.9474,1.58,-1.03,0.7,-7.23,29.59,-11.35,0.971892,-0.106815,0.027558,0.207862,0.0,0.0,0.0,0,0
2026-06-08 19:35:46.861,1568299,R_Hip,-0.0125,-0.0799,1.001,1.09,-1.74,2.8,0.0,0.0,0.0,0.223243,0.011322,-0.044313,0.973663,0.0,0.0,0.0,0,0
2026-06-08 19:35:46.862,1568142,L_Ankle,0.0624,0.0119,0.9885,-0.7,-0.4,-0.84,-6.33,22.9,-27.14,0.917417,0.032197,-0.031465,0.395337,0.0,0.0,0.0,0,0
2026-06-08 19:35:46.864,1568309,R_Hip,0.0032,-0.0931,0.9861,1.09,-1.66,2.56,11.07,-30.16,-22.68,0.22248,0.011719,-0.043703,0.973876,0.0,0.0,0.0,0,0
2026-06-08 19:35:46.866,1568152,L_Ankle,0.0653,0.0153,1.0019,-0.7,-0.41,-0.84,-5.08,21.99,-26.61,0.917417,0.032228,-0.031465,0.395337,0.0,0.0,0.0,0,0
2026-06-08 19:35:46.868,1568319,R_Hip,-0.0016,-0.0955,1.0087,1.08,-1.58,2.45,10.52,-31.8,-22.51,0.22187,0.012055,-0.043123,0.974029,0.0,0.0,0.0,0,0
2026-06-08 19:35:46.869,1568162,L_Ankle,0.0555,0.007,0.9914,-0.7,-0.41,-0.85,0.0,0.0,0.0,0.917417,0.032258,-0.031495,0.395337,0.0,0.0,0.0,0,0
2026-06-08 19:35:46.873,1568305,R_Shank,-0.0822,-1.196,0.924,0.19,-1.11,-0.95,17.48,-42.34,-1.62,-0.452284,-0.113437,0.169134,0.868282,0.0,0.0,0.0,0,0
2026-06-08 19:35:46.873,1568172,L_Ankle,0.0545,0.0129,0.9918,-0.7,-0.41,-0.85,-6.18,23.42,-27.98,0.917417,0.032228,-0.031526,0.395306,0.0,0.0,0.0,0,0
2026-06-08 19:35:46.876,1568315,R_Shank,-0.0773,-3.1256,0.9283,0.17,-1.09,-0.88,16.12,-41.32,-2.2,-0.45262,-0.113315,0.169347,0.868068,0.0,0.0,0.0,0,0
2026-06-08 19:35:46.877,1568153,L_Hip,0.1014,-0.1756,0.9599,0.24,0.0,1.57,-11.72,29.86,-13.46,0.979064,-0.067446,-0.083926,0.172643,0.0,0.0,0.0,0,0
2026-06-08 19:35:46.880,1568163,L_Hip,0.1087,-0.1717,0.9691,0.21,-0.01,1.5,0.0,0.0,0.0,0.979095,-0.067476,-0.083926,0.172491,0.0,0.0,0.0,0,0
2026-06-08 19:35:46.880,1568325,R_Shank,-0.0827,2.3984,0.9245,0.19,-1.08,-0.85,0.0,0.0,0.0,-0.453017,-0.113193,0.169561,0.867855,0.0,0.0,0.0,0,0
2026-06-08 19:35:46.884,1568173,L_Hip,0.1082,-0.1766,0.9798,0.18,0.0,1.42,-11.08,28.25,-12.88,0.979125,-0.067537,-0.083926,0.172216,0.0,0.0,0.0,0,0
2026-06-08 19:35:46.885,1568335,R_Shank,-0.0753,0.9864,0.9086,0.21,-1.06,-0.81,15.96,-42.47,-1.45,-0.453444,-0.113071,0.169836,0.86758,0.0,0.0,0.0,0,0
2026-06-08 19:35:46.888,1568183,L_Hip,0.0974,-0.1741,0.9725,0.13,0.0,1.27,-11.25,28.09,-13.02,0.979186,-0.067598,-0.083926,0.171819,0.0,0.0,0.0,0,0
2026-06-08 19:35:46.889,1568314,R_Hip,-0.0145,-0.1097,0.9876,0.75,-1.38,1.43,8.7,-32.17,-22.51,0.220832,0.012787,-0.040895,0.974364,0.0,0.0,0.0,0,0
2026-06-08 19:35:46.892,1568155,L_Shank,-0.1633,-0.1985,0.9599,1.56,-0.99,0.45,-4.95,28.08,-12.44,0.971709,-0.106967,0.02765,0.208594,0.0,0.0,0.0,0,0
2026-06-08 19:35:46.893,1568324,R_Hip,-0.008,-0.1092,0.9986,0.74,-1.4,1.42,0.0,0.0,0.0,0.220893,0.012909,-0.04059,0.974364,0.0,0.0,0.0,0,0
2026-06-08 19:35:46.896,1568165,L_Shank,-0.1672,-0.198,0.959,1.57,-0.97,0.4,0.0,0.0,0.0,0.971557,-0.107089,0.027802,0.209265,0.0,0.0,0.0,0,0
2026-06-08 19:35:46.896,1568334,R_Hip,-0.0159,-0.098,0.99,0.7,-1.43,1.46,9.61,-31.62,-21.99,0.220923,0.013062,-0.040254,0.974364,0.0,0.0,0.0,0,0
2026-06-08 19:35:46.899,1568175,L_Shank,-0.1545,-0.201,0.9594,1.54,-0.96,0.35,-5.48,30.28,-12.0,0.971404,-0.107212,0.027924,0.209876,0.0,0.0,0.0,0,0
2026-06-08 19:35:46.899,1568344,R_Hip,-0.0061,-0.1028,0.9967,0.68,-1.43,1.51,11.25,-31.44,-22.16,0.220923,0.013245,-0.039979,0.974364,0.0,0.0,0.0,0,0
2026-06-08 19:35:46.903,1568351,R_Ankle,0.0312,-0.0245,1.0263,0.89,-1.86,-0.25,-1.25,28.26,-30.8,0.974914,0.051668,-0.080264,0.200934,0.0,0.0,0.0,0,0
2026-06-08 19:35:46.904,1568185,L_Shank,-0.1594,-0.2069,0.9546,1.54,-0.95,0.22,-4.08,31.29,-11.71,0.971252,-0.107334,0.028047,0.210456,0.0,0.0,0.0,0,0
2026-06-08 19:35:46.907,1568361,R_Ankle,0.0199,-0.019,0.9986,0.9,-1.87,-0.25,-0.23,27.31,-30.16,0.974914,0.051637,-0.080233,0.200934,0.0,0.0,0.0,0,0
2026-06-08 19:35:46.908,1568175,L_Hip,0.1117,-0.1658,0.974,0.06,-0.02,1.03,-12.46,28.22,-11.41,0.979278,-0.067782,-0.083804,0.171361,0.0,0.0,0.0,0,0
2026-06-08 19:35:46.911,1568371,R_Ankle,0.0297,-0.0086,0.9933,0.9,-1.87,-0.25,0.0,0.0,0.0,0.974914,0.051637,-0.080233,0.200934,0.0,0.0,0.0,0,0
2026-06-08 19:35:46.912,1568185,L_Hip,0.0974,-0.1751,0.9725,0.02,0.0,0.98,0.0,0.0,0.0,0.979369,-0.067965,-0.083712,0.170843,0.0,0.0,0.0,0,0
2026-06-08 19:35:46.915,1568381,R_Ankle,0.0297,-0.0299,0.9995,0.88,-1.86,-0.26,-1.4,29.04,-29.43,0.974914,0.051668,-0.080233,0.200934,0.0,0.0,0.0,0,0
2026-06-08 19:35:46.917,1568195,L_Hip,0.1048,-0.1918,0.9769,0.0,0.0,0.93,-11.57,29.05,-13.02,0.979461,-0.068148,-0.08356,0.170232,0.0,0.0,0.0,0,0
2026-06-08 19:35:46.919,1568364,R_Hip,-0.0076,-0.098,1.0112,0.67,-1.45,1.72,9.8,-30.71,-22.17,0.220832,0.013459,-0.039705,0.974395,0.0,0.0,0.0,0,0
2026-06-08 19:35:46.921,1568205,L_Hip,0.1004,-0.1977,0.9735,0.0,0.06,0.96,-10.72,29.87,-12.6,0.979583,-0.068361,-0.083316,0.169561,0.0,0.0,0.0,0,0
2026-06-08 19:35:46.923,1568374,R_Hip,-0.0145,-0.0965,0.9924,0.67,-1.46,1.78,0.0,0.0,0.0,0.220649,0.013642,-0.03943,0.974425,0.0,0.0,0.0,0,0
2026-06-08 19:35:46.925,1568180,L_Shank,-0.1623,-0.2054,0.9479,1.41,-0.91,0.34,-5.3,29.43,-12.14,0.970824,-0.1077,0.028565,0.212256,0.0,0.0,0.0,0,0
2026-06-08 19:35:46.927,1568384,R_Hip,-0.0071,-0.0882,0.9958,0.69,-1.48,1.9,10.89,-31.07,-21.48,0.220405,0.013825,-0.039094,0.974517,0.0,0.0,0.0,0,0
2026-06-08 19:35:46.929,1568190,L_Shank,-0.1667,-0.2088,0.9556,1.39,-0.91,0.38,0.0,0.0,0.0,0.970763,-0.107852,0.028687,0.212378,0.0,0.0,0.0,0,0
2026-06-08 19:35:46.931,1568394,R_Hip,-0.0105,-0.0882,0.9832,0.68,-1.48,1.94,10.34,-30.89,-22.68,0.220099,0.014039,-0.038789,0.974578,0.0,0.0,0.0,0,0
2026-06-08 19:35:46.934,1568200,L_Shank,-0.1599,-0.2147,0.9522,1.39,-0.9,0.41,-5.66,28.75,-11.82,0.970702,-0.108005,0.028809,0.212531,0.0,0.0,0.0,0,0
2026-06-08 19:35:46.936,1568374,R_Ankle,0.0307,-0.021,1.0058,0.89,-1.87,-0.25,-1.59,27.29,-29.87,0.974914,0.051637,-0.080233,0.200934,0.0,0.0,0.0,0,0
2026-06-08 19:35:46.938,1568210,L_Shank,-0.1569,-0.222,0.9426,1.41,-0.89,0.51,-4.96,28.07,-11.82,0.970641,-0.108219,0.028932,0.212714,0.0,0.0,0.0,0,0
2026-06-08 19:35:46.941,1568384,R_Ankle,0.0336,-0.0166,1.0058,0.9,-1.85,-0.26,-0.92,26.99,-30.78,0.974914,0.051637,-0.080233,0.200934,0.0,0.0,0.0,0,0
2026-06-08 19:35:46.942,1568187,L_Ankle,0.0511,0.0149,0.9741,-0.67,-0.4,-0.84,-5.97,22.18,-27.14,0.917417,0.032258,-0.031495,0.395306,0.0,0.0,0.0,0,0
2026-06-08 19:35:46.945,1568394,R_Ankle,0.0243,-0.0176,1.0139,0.89,-1.87,-0.25,0.0,0.0,0.0,0.974914,0.051637,-0.080264,0.200934,0.0,0.0,0.0,0,0
2026-06-08 19:35:46.947,1568197,L_Ankle,0.0678,0.0168,0.9962,-0.69,-0.4,-0.87,-5.63,22.17,-27.47,0.917417,0.032258,-0.031495,0.395306,0.0,0.0,0.0,0,0
2026-06-08 19:35:46.949,1568404,R_Ankle,0.0297,-0.0215,1.0034,0.9,-1.87,-0.26,-0.59,26.68,-31.08,0.974914,0.051668,-0.080233,0.200934,0.0,0.0,0.0,0,0
2026-06-08 19:35:46.950,1568207,L_Ankle,0.0521,0.0139,0.988,-0.7,-0.4,-0.86,0.0,0.0,0.0,0.917417,0.032228,-0.031495,0.395306,0.0,0.0,0.0,0,0
2026-06-08 19:35:46.953,1568217,L_Ankle,0.0565,0.0139,0.9918,-0.68,-0.4,-0.85,-5.1,21.99,-27.29,0.917417,0.032228,-0.031495,0.395306,0.0,0.0,0.0,0,0
2026-06-08 19:35:46.956,1568210,L_Ankle,0.055,0.0124,1.0,-0.68,-0.41,-0.86,-5.08,21.28,-26.95,0.917417,0.032197,-0.031495,0.395306,0.0,0.0,0.0,0,0
2026-06-08 19:35:46.959,1568220,L_Ankle,0.058,0.0085,0.9774,-0.7,-0.41,-0.86,-6.0,22.18,-28.84,0.917417,0.032197,-0.031495,0.395306,0.0,0.0,0.0,0,0
2026-06-08 19:35:46.962,1568419,R_Ankle,0.0292,-0.0176,1.0077,0.9,-1.87,-0.25,-0.75,27.8,-31.56,0.974914,0.051637,-0.080264,0.200934,0.0,0.0,0.0,0,0
2026-06-08 19:35:46.962,1568230,L_Ankle,0.0501,0.0109,0.9866,-0.7,-0.4,-0.85,0.0,0.0,0.0,0.917417,0.032197,-0.031495,0.395306,0.0,0.0,0.0,0,0
2026-06-08 19:35:46.966,1568429,R_Ankle,0.0258,-0.0235,0.9981,0.9,-1.87,-0.25,-1.93,28.25,-30.81,0.974914,0.051668,-0.080264,0.200934,0.0,0.0,0.0,0,0
2026-06-08 19:35:46.967,1568240,L_Ankle,0.0575,0.0119,0.977,-0.68,-0.39,-0.86,-5.99,23.24,-27.13,0.917417,0.032228,-0.031495,0.395306,0.0,0.0,0.0,0,0
2026-06-08 19:35:46.969,1568439,R_Ankle,0.0277,-0.02,0.9928,0.9,-1.86,-0.25,0.0,0.0,0.0,0.974914,0.051637,-0.080264,0.200934,0.0,0.0,0.0,0,0
2026-06-08 19:35:46.970,1568231,L_Shank,-0.1672,-0.221,0.9431,1.51,-0.96,0.69,-6.19,29.24,-11.04,0.97058,-0.108432,0.029054,0.212928,0.0,0.0,0.0,0,0
2026-06-08 19:35:46.972,1568449,R_Ankle,0.0346,-0.0072,1.0038,0.9,-1.86,-0.25,-0.72,28.73,-29.72,0.974914,0.051637,-0.080264,0.200934,0.0,0.0,0.0,0,0
2026-06-08 19:35:46.973,1568241,L_Shank,-0.1638,-0.2357,0.9556,1.54,-0.96,0.74,0.0,0.0,0.0,0.970489,-0.108646,0.029176,0.213172,0.0,0.0,0.0,0,0
2026-06-08 19:35:46.975,1568251,L_Shank,-0.1618,-0.2343,0.9503,1.52,-0.93,0.76,-5.13,28.92,-12.29,0.970397,-0.10886,0.029298,0.213477,0.0,0.0,0.0,0,0
2026-06-08 19:35:46.978,1568261,L_Shank,-0.1677,-0.2313,0.9422,1.51,-0.9,0.77,-4.95,30.79,-12.48,0.970305,-0.109104,0.02942,0.213813,0.0,0.0,0.0,0,0
2026-06-08 19:35:46.980,1568242,L_Hip,0.0999,-0.2238,0.9725,0.18,0.12,1.36,-10.91,29.7,-11.58,0.980102,-0.07181,-0.07886,0.167241,0.0,0.0,0.0,0,0
2026-06-08 19:35:46.983,1568252,L_Hip,0.0965,-0.2085,0.9648,0.21,0.1,1.38,-11.6,28.4,-12.15,0.97998,-0.071963,-0.078494,0.168188,0.0,0.0,0.0,0,0
2026-06-08 19:35:46.984,1568441,R_Ankle,0.0317,-0.0185,1.0072,0.9,-1.86,-0.25,-1.42,28.09,-30.03,0.974914,0.051668,-0.080264,0.200934,0.0,0.0,0.0,0,0
2026-06-08 19:35:46.986,1568262,L_Hip,0.0979,-0.2149,0.9585,0.24,0.07,1.39,0.0,0.0,0.0,0.979797,-0.072085,-0.078097,0.169256,0.0,0.0,0.0,0,0
2026-06-08 19:35:46.987,1568451,R_Ankle,0.0224,-0.0176,1.0014,0.89,-1.88,-0.25,-0.74,28.74,-30.65,0.974914,0.051668,-0.080294,0.200934,0.0,0.0,0.0,0,0
2026-06-08 19:35:46.989,1568272,L_Hip,0.0974,-0.2071,0.973,0.23,0.03,1.37,-10.77,27.61,-12.3,0.979614,-0.072207,-0.077761,0.170385,0.0,0.0,0.0,0,0
2026-06-08 19:35:46.990,1568461,R_Ankle,0.0302,-0.0185,0.9981,0.9,-1.87,-0.26,0.0,0.0,0.0,0.974914,0.051668,-0.080294,0.200934,0.0,0.0,0.0,0,0
2026-06-08 19:35:46.992,1568255,L_Shank,-0.1838,-0.2127,0.9374,1.68,-0.75,0.39,-3.39,30.61,-11.71,0.968688,-0.111545,0.031892,0.219398,0.0,0.0,0.0,0,0
2026-06-08 19:35:46.994,1568471,R_Ankle,0.0282,-0.022,1.0153,0.89,-1.86,-0.25,-0.22,27.62,-29.86,0.974914,0.051668,-0.080264,0.200934,0.0,0.0,0.0,0,0
2026-06-08 19:35:46.995,1568265,L_Shank,-0.1799,-0.2161,0.9268,1.69,-0.75,0.4,-5.3,29.77,-12.15,0.968596,-0.111698,0.032167,0.219672,0.0,0.0,0.0,0,0
2026-06-08 19:35:46.998,1568275,L_Shank,-0.1843,-0.2181,0.9422,1.7,-0.77,0.37,0.0,0.0,0.0,0.968505,-0.11182,0.032472,0.219947,0.0,0.0,0.0,0,0
2026-06-08 19:35:47.000,1568285,L_Shank,-0.1804,-0.2225,0.9455,1.69,-0.76,0.35,-4.96,28.4,-11.2,0.968413,-0.111942,0.032807,0.220222,0.0,0.0,0.0,0,0
2026-06-08 19:35:47.004,1568277,L_Ankle,0.0516,0.01,1.0019,-0.7,-0.39,-0.85,-5.63,22.17,-27.81,0.917417,0.032228,-0.031495,0.395306,0.0,0.0,0.0,0,0
2026-06-08 19:35:47.006,1568462,R_Shank,-0.0744,2.6576,0.9269,0.22,-1.07,-0.78,18.32,-42.52,-1.48,-0.453871,-0.11298,0.17011,0.867336,0.0,0.0,0.0,0,0
2026-06-08 19:35:47.007,1568287,L_Ankle,0.0428,0.0075,0.976,-0.7,-0.41,-0.86,-4.72,21.28,-26.61,0.917417,0.032258,-0.031495,0.395306,0.0,0.0,0.0,0,0
2026-06-08 19:35:47.010,1568472,R_Shank,-0.0753,-2.3552,0.9067,0.23,-1.08,-0.76,17.31,-42.17,-1.77,-0.454329,-0.112827,0.170354,0.867061,0.0,0.0,0.0,0,0
2026-06-08 19:35:47.012,1568297,L_Ankle,0.0648,0.0163,1.001,-0.7,-0.41,-0.85,-3.86,22.5,-26.42,0.917417,0.032258,-0.031495,0.395306,0.0,0.0,0.0,0,0
2026-06-08 19:35:47.014,1568482,R_Shank,-0.0793,1.6272,0.9317,0.23,-1.1,-0.75,0.0,0.0,0.0,-0.454787,-0.112705,0.17066,0.866787,0.0,0.0,0.0,0,0
2026-06-08 19:35:47.015,1568307,L_Ankle,0.0501,0.0041,0.9803,-0.7,-0.4,-0.85,0.0,0.0,0.0,0.917417,0.032258,-0.031495,0.395306,0.0,0.0,0.0,0,0
2026-06-08 19:35:47.018,1568492,R_Shank,-0.0734,1.8864,0.9196,0.25,-1.1,-0.76,16.46,-42.32,-1.31,-0.455245,-0.112583,0.170934,0.866512,0.0,0.0,0.0,0,0
2026-06-08 19:35:47.019,1568287,L_Hip,0.1028,-0.2051,0.9711,0.16,0.16,1.32,-11.75,28.89,-12.58,0.979431,-0.072237,-0.077456,0.171545,0.0,0.0,0.0,0,0
2026-06-08 19:35:47.021,1568464,R_Hip,0.0106,-0.074,0.9982,0.51,-1.53,2.64,8.89,-32.72,-20.97,0.214148,0.016205,-0.036287,0.975982,0.0,0.0,0.0,0,0
2026-06-08 19:35:47.023,1568297,L_Hip,0.0989,-0.2115,0.9716,0.13,0.21,1.29,-11.73,30.18,-12.3,0.979247,-0.072268,-0.077242,0.172674,0.0,0.0,0.0,0,0
2026-06-08 19:35:47.025,1568474,R_Hip,-0.0002,-0.0804,1.001,0.52,-1.53,2.58,10.16,-31.8,-21.82,0.213385,0.016449,-0.036073,0.976135,0.0,0.0,0.0,0,0
2026-06-08 19:35:47.026,1568307,L_Hip,0.0925,-0.2169,0.9682,0.1,0.27,1.3,0.0,0.0,0.0,0.979064,-0.072329,-0.07709,0.173803,0.0,0.0,0.0,0,0
2026-06-08 19:35:47.029,1568484,R_Hip,-0.0026,-0.0648,1.0087,0.48,-1.56,2.47,9.43,-32.9,-23.19,0.212714,0.016663,-0.03589,0.976287,0.0,0.0,0.0,0,0
2026-06-08 19:35:47.030,1568317,L_Hip,0.0847,-0.2233,0.9725,0.08,0.28,1.3,-11.24,29.7,-11.87,0.978881,-0.072329,-0.076968,0.174871,0.0,0.0,0.0,0,0
2026-06-08 19:35:47.032,1568494,R_Hip,0.0007,-0.0653,1.003,0.48,-1.57,2.4,9.07,-31.44,-22.51,0.212134,0.016907,-0.035676,0.97644,0.0,0.0,0.0,0,0
2026-06-08 19:35:47.033,1568300,L_Ankle,0.0506,0.0114,0.9851,-0.69,-0.4,-0.84,-4.76,22.69,-27.62,0.917417,0.032258,-0.031495,0.395306,0.0,0.0,0.0,0,0
2026-06-08 19:35:47.036,1568485,R_Shank,-0.0665,-2.996,0.9168,0.26,-1.09,-0.72,16.46,-41.33,-2.81,-0.455702,-0.11243,0.171209,0.866207,0.0,0.0,0.0,0,0
2026-06-08 19:35:47.037,1568310,L_Ankle,0.0594,0.0114,0.9894,-0.7,-0.41,-0.86,-6.13,22.01,-26.63,0.917417,0.032258,-0.031495,0.395306,0.0,0.0,0.0,0,0
2026-06-08 19:35:47.040,1568495,R_Shank,-0.0729,-1.4552,0.9259,0.29,-1.07,-0.67,16.62,-42.15,-0.85,-0.456191,-0.112278,0.171514,0.865932,0.0,0.0,0.0,0,0
2026-06-08 19:35:47.040,1568320,L_Ankle,0.057,0.0119,0.988,-0.7,-0.38,-0.85,-4.59,23.58,-26.77,0.917417,0.032258,-0.031495,0.395306,0.0,0.0,0.0,0,0
2026-06-08 19:35:47.044,1568330,L_Ankle,0.0487,0.0109,0.9909,-0.7,-0.39,-0.84,0.0,0.0,0.0,0.917417,0.032258,-0.031495,0.395306,0.0,0.0,0.0,0,0
2026-06-08 19:35:47.045,1568505,R_Shank,-0.0709,2.3984,0.9288,0.28,-1.06,-0.64,0.0,0.0,0.0,-0.456709,-0.112186,0.171819,0.865596,0.0,0.0,0.0,0,0
2026-06-08 19:35:47.048,1568305,L_Shank,-0.1863,-0.2284,0.9369,1.78,-0.72,0.27,-5.48,29.6,-12.3,0.967986,-0.112369,0.034272,0.221686,0.0,0.0,0.0,0,0
2026-06-08 19:35:47.048,1568515,R_Shank,-0.0758,-1.7136,0.9187,0.32,-1.06,-0.6,15.95,-41.48,-2.05,-0.457259,-0.112064,0.172155,0.865261,0.0,0.0,0.0,0,0
2026-06-08 19:35:47.051,1568315,L_Shank,-0.1946,-0.2289,0.9465,1.77,-0.73,0.29,-4.95,29.43,-12.46,0.967925,-0.112491,0.034547,0.221931,0.0,0.0,0.0,0,0
2026-06-08 19:35:47.052,1568486,R_Ankle,0.0228,-0.0339,0.9986,0.89,-1.87,-0.25,-1.24,28.56,-29.57,0.974914,0.051637,-0.080264,0.200934,0.0,0.0,0.0,0,0
2026-06-08 19:35:47.054,1568325,L_Shank,-0.1911,-0.2357,0.9455,1.77,-0.75,0.34,0.0,0.0,0.0,0.967833,-0.112613,0.034883,0.222175,0.0,0.0,0.0,0,0
2026-06-08 19:35:47.055,1568496,R_Ankle,0.0228,-0.0265,1.0058,0.9,-1.87,-0.25,-1.76,28.42,-30.96,0.974914,0.051607,-0.080264,0.200934,0.0,0.0,0.0,0,0
2026-06-08 19:35:47.058,1568335,L_Shank,-0.1926,-0.2382,0.9412,1.78,-0.8,0.51,-4.95,30.11,-12.16,0.967742,-0.112735,0.035188,0.222419,0.0,0.0,0.0,0,0
2026-06-08 19:35:47.059,1568506,R_Ankle,0.0248,-0.02,1.0077,0.89,-1.87,-0.26,0.0,0.0,0.0,0.974914,0.051607,-0.080264,0.200934,0.0,0.0,0.0,0,0
2026-06-08 19:35:47.061,1568310,L_Hip,0.0837,-0.2351,0.9633,0.22,0.24,1.14,-9.88,29.41,-12.76,0.977844,-0.073153,-0.076144,0.180639,0.0,0.0,0.0,0,0
2026-06-08 19:35:47.062,1568516,R_Ankle,0.0268,-0.019,1.0153,0.9,-1.85,-0.25,-1.26,26.67,-30.48,0.974914,0.051576,-0.080264,0.200934,0.0,0.0,0.0,0,0
2026-06-08 19:35:47.065,1568320,L_Hip,0.0808,-0.2331,0.9682,0.22,0.26,1.17,-10.06,29.88,-11.74,0.977813,-0.073305,-0.076083,0.180822,0.0,0.0,0.0,0,0
2026-06-08 19:35:47.067,1568507,R_Shank,-0.0675,1.116,0.9072,0.32,-1.06,-0.51,15.63,-43.45,-0.85,-0.457808,-0.111942,0.17246,0.864925,0.0,0.0,0.0,0,0
2026-06-08 19:35:47.069,1568330,L_Hip,0.0798,-0.2301,0.9667,0.27,0.3,1.25,-10.93,28.41,-11.58,0.977783,-0.073489,-0.076052,0.180914,0.0,0.0,0.0,0,0
2026-06-08 19:35:47.070,1568517,R_Shank,-0.066,-2.096,0.9134,0.33,-1.0,-0.35,0.0,0.0,0.0,-0.458449,-0.11182,0.172796,0.864528,0.0,0.0,0.0,0,0
2026-06-08 19:35:47.073,1568340,L_Hip,0.071,-0.2351,0.9798,0.28,0.29,1.25,0.0,0.0,0.0,0.977752,-0.073733,-0.076022,0.180975,0.0,0.0,0.0,0,0
2026-06-08 19:35:47.074,1568527,R_Shank,-0.068,1.5048,0.9393,0.34,-1.0,-0.31,14.77,-42.28,-0.99,-0.459181,-0.111698,0.173101,0.864101,0.0,0.0,0.0,0,0
2026-06-08 19:35:47.077,1568330,L_Shank,-0.1853,-0.2352,0.957,1.84,-0.8,0.69,-5.31,30.09,-11.22,0.967681,-0.112766,0.035463,0.222633,0.0,0.0,0.0,0,0
2026-06-08 19:35:47.077,1568537,R_Shank,-0.069,-0.8072,0.9369,0.47,-1.03,-0.26,16.96,-42.49,-0.86,-0.459914,-0.111545,0.173437,0.863643,0.0,0.0,0.0,0,0
2026-06-08 19:35:47.080,1568340,L_Shank,-0.1863,-0.2166,0.9388,1.83,-0.83,0.7,-5.83,29.26,-11.98,0.96762,-0.112857,0.035798,0.222816,0.0,0.0,0.0,0,0
2026-06-08 19:35:47.080,1568514,R_Hip,-0.0011,-0.0902,1.0039,0.27,-1.35,1.7,9.62,-33.45,-21.99,0.209876,0.018769,-0.034577,0.976928,0.0,0.0,0.0,0,0
2026-06-08 19:35:47.083,1568350,L_Shank,-0.1907,-0.2201,0.9369,1.85,-0.83,0.73,0.0,0.0,0.0,0.967559,-0.112949,0.036103,0.22306,0.0,0.0,0.0,0,0
2026-06-08 19:35:47.084,1568524,R_Hip,-0.0011,-0.0775,0.9823,0.27,-1.37,1.73,9.62,-32.72,-20.97,0.209754,0.01883,-0.034547,0.976959,0.0,0.0,0.0,0,0
2026-06-08 19:35:47.086,1568360,L_Shank,-0.1921,-0.2171,0.9551,1.85,-0.82,0.74,-5.13,27.9,-11.97,0.967467,-0.11301,0.036439,0.223334,0.0,0.0,0.0,0,0
2026-06-08 19:35:47.087,1568534,R_Hip,0.0047,-0.095,0.99,0.24,-1.4,1.77,10.71,-30.52,-22.0,0.209571,0.018921,-0.034547,0.976989,0.0,0.0,0.0,0,0
2026-06-08 19:35:47.090,1568544,R_Hip,-0.0026,-0.0921,0.9982,0.23,-1.42,1.8,0.0,0.0,0.0,0.209357,0.018983,-0.034577,0.97702,0.0,0.0,0.0,0,0
2026-06-08 19:35:47.091,1568355,L_Shank,-0.2058,-0.2196,0.9503,1.82,-0.84,0.84,-5.13,29.26,-11.99,0.967345,-0.113102,0.036714,0.223731,0.0,0.0,0.0,0,0
2026-06-08 19:35:47.094,1568531,R_Ankle,0.0312,-0.0185,0.9995,0.9,-1.87,-0.25,-1.76,28.09,-30.03,0.974914,0.051607,-0.080264,0.200934,0.0,0.0,0.0,0,0
2026-06-08 19:35:47.094,1568365,L_Shank,-0.2009,-0.2073,0.9498,1.8,-0.84,0.89,-3.73,29.95,-12.63,0.967223,-0.113102,0.036988,0.224189,0.0,0.0,0.0,0,0
2026-06-08 19:35:47.098,1568375,L_Shank,-0.1907,-0.2073,0.9484,1.8,-0.84,0.92,0.0,0.0,0.0,0.967101,-0.113102,0.037263,0.224708,0.0,0.0,0.0,0,0
2026-06-08 19:35:47.098,1568541,R_Ankle,0.0204,-0.0081,1.0077,0.89,-1.87,-0.25,0.09,28.6,-31.72,0.974914,0.051576,-0.080264,0.200934,0.0,0.0,0.0,0,0
2026-06-08 19:35:47.101,1568532,R_Ankle,0.0302,-0.0156,1.001,0.88,-1.88,-0.25,0.0,0.0,0.0,0.974914,0.051607,-0.080264,0.200934,0.0,0.0,0.0,0,0
2026-06-08 19:35:47.101,1568385,L_Shank,-0.195,-0.2015,0.9455,1.8,-0.87,0.96,-5.14,28.91,-11.36,0.966979,-0.113041,0.037568,0.225227,0.0,0.0,0.0,0,0
2026-06-08 19:35:47.105,1568542,R_Ankle,0.0258,-0.0131,1.0115,0.89,-1.86,-0.25,-0.56,29.21,-30.5,0.974914,0.051607,-0.080264,0.200934,0.0,0.0,0.0,0,0
2026-06-08 19:35:47.105,1568367,L_Ankle,0.0555,0.0197,0.9822,-0.7,-0.39,-0.84,-4.41,21.26,-28.64,0.917417,0.032258,-0.031465,0.395306,0.0,0.0,0.0,0,0
2026-06-08 19:35:47.108,1568539,R_Hip,0.0042,-0.1297,1.0025,0.37,-1.29,3.25,9.98,-33.45,-21.31,0.199011,0.022034,-0.036317,0.979064,0.0,0.0,0.0,0,0
2026-06-08 19:35:47.108,1568377,L_Ankle,0.0575,-0.0007,0.9923,-0.7,-0.41,-0.85,-5.27,21.82,-27.12,0.917417,0.032258,-0.031465,0.395306,0.0,0.0,0.0,0,0
2026-06-08 19:35:47.111,1568549,R_Hip,0.0772,0.0167,0.9298,0.25,-1.49,3.47,7.61,-32.9,-22.85,0.197729,0.022095,-0.036348,0.979308,0.0,0.0,0.0,0,0
2026-06-08 19:35:47.112,1568387,L_Ankle,0.0541,0.0139,0.9803,-0.7,-0.41,-0.85,-4.89,20.39,-27.12,0.917417,0.032228,-0.031434,0.395306,0.0,0.0,0.0,0,0
2026-06-08 19:35:47.114,1568559,R_Hip,0.0047,0.0381,0.951,-0.21,-1.51,3.06,7.97,-31.44,-22.51,0.196631,0.02234,-0.036195,0.979522,0.0,0.0,0.0,0,0
2026-06-08 19:35:47.115,1568397,L_Ankle,0.057,0.0134,0.987,-0.68,-0.4,-0.84,0.0,0.0,0.0,0.917417,0.032228,-0.031465,0.395306,0.0,0.0,0.0,0,0
2026-06-08 19:35:47.117,1568569,R_Hip,-0.0105,-0.0247,1.0275,-0.17,-1.7,2.87,0.0,0.0,0.0,0.195715,0.022584,-0.036348,0.979705,0.0,0.0,0.0,0,0
2026-06-08 19:35:47.118,1568390,L_Ankle,0.0624,0.0031,1.0038,-0.7,-0.38,-0.85,-4.61,23.57,-28.13,0.917417,0.032258,-0.031465,0.395306,0.0,0.0,0.0,0,0
2026-06-08 19:35:47.121,1568552,R_Shank,-0.0596,-1.5848,0.9028,0.4,-0.89,-0.18,15.29,-42.79,-1.45,-0.460707,-0.111454,0.173803,0.863186,0.0,0.0,0.0,0,0
2026-06-08 19:35:47.121,1568400,L_Ankle,0.0521,0.0134,0.9909,-0.69,-0.41,-0.86,-4.59,22.87,-27.45,0.917417,0.032228,-0.031495,0.395306,0.0,0.0,0.0,0,0
2026-06-08 19:35:47.123,1568562,R_Shank,-0.0685,0.9864,0.9033,0.38,-0.93,-0.36,0.0,0.0,0.0,-0.461531,-0.111393,0.174169,0.862667,0.0,0.0,0.0,0,0
2026-06-08 19:35:47.125,1568572,R_Shank,-0.0783,-1.4616,0.9043,0.41,-1.0,-0.45,17.29,-41.83,-1.16,-0.462172,-0.111362,0.174535,0.862239,0.0,0.0,0.0,0,0
2026-06-08 19:35:47.127,1568582,R_Shank,-0.066,0.08,0.911,0.4,-1.09,-0.66,15.79,-42.31,-1.6,-0.462691,-0.111332,0.174993,0.861873,0.0,0.0,0.0,0,0
2026-06-08 19:35:47.128,1568576,R_Ankle,0.0224,-0.0181,1.0019,0.9,-1.86,-0.25,-1.44,26.51,-30.63,0.974914,0.051637,-0.080233,0.200934,0.0,0.0,0.0,0,0
2026-06-08 19:35:47.130,1568586,R_Ankle,0.0282,-0.029,0.9914,0.9,-1.86,-0.25,-0.39,27.46,-29.4,0.974914,0.051668,-0.080233,0.200934,0.0,0.0,0.0,0,0
2026-06-08 19:35:47.132,1568596,R_Ankle,0.0385,-0.0205,0.9995,0.89,-1.86,-0.25,0.0,0.0,0.0,0.974914,0.051607,-0.080264,0.200934,0.0,0.0,0.0,0,0
2026-06-08 19:35:47.133,1568606,R_Ankle,0.0253,-0.02,0.989,0.9,-1.86,-0.26,-0.39,29.38,-30.96,0.974914,0.051637,-0.080294,0.200934,0.0,0.0,0.0,0,0
2026-06-08 19:35:47.138,1568597,R_Shank,-0.0601,1.88,0.9273,0.35,-1.17,-0.75,16.29,-42.47,-0.85,-0.463149,-0.11127,0.175451,0.861568,0.0,0.0,0.0,0,0
2026-06-08 19:35:47.140,1568607,R_Shank,-0.0611,1.1096,0.9153,0.39,-1.2,-0.69,0.0,0.0,0.0,-0.463576,-0.111148,0.175878,0.861263,0.0,0.0,0.0,0,0
2026-06-08 19:35:47.141,1568617,R_Shank,-0.0523,1.3688,0.9302,0.43,-1.17,-0.66,15.12,-42.62,-1.59,-0.464064,-0.110996,0.176336,0.860927,0.0,0.0,0.0,0,0
2026-06-08 19:35:47.143,1568627,R_Shank,-0.0528,0.2096,0.9206,0.44,-1.05,-0.61,16.65,-43.47,-0.86,-0.464583,-0.110904,0.176794,0.860561,0.0,0.0,0.0,0,0
2026-06-08 19:35:47.146,1568410,L_Ankle,0.0541,0.0041,0.9899,-0.7,-0.39,-0.85,-4.94,22.87,-27.79,0.917417,0.032258,-0.031495,0.395337,0.0,0.0,0.0,0,0
2026-06-08 19:35:47.148,1568420,L_Ankle,0.0511,0.0153,0.977,-0.69,-0.4,-0.85,0.0,0.0,0.0,0.917417,0.032228,-0.031495,0.395337,0.0,0.0,0.0,0,0
2026-06-08 19:35:47.150,1568412,L_Ankle,0.057,0.0085,0.9957,-0.7,-0.4,-0.85,-5.45,21.99,-27.3,0.917417,0.032258,-0.031526,0.395337,0.0,0.0,0.0,0,0
2026-06-08 19:35:47.153,1568422,L_Ankle,0.0531,0.0158,0.9981,-0.7,-0.41,-0.85,-4.58,22.16,-27.79,0.917417,0.032258,-0.031556,0.395337,0.0,0.0,0.0,0,0
2026-06-08 19:35:47.158,1568432,L_Ankle,0.0536,0.0061,0.9933,-0.7,-0.42,-0.84,-4.38,21.98,-26.6,0.917417,0.032258,-0.031556,0.395337,0.0,0.0,0.0,0,0
2026-06-08 19:35:47.160,1568442,L_Ankle,0.055,0.0051,0.9933,-0.69,-0.4,-0.87,-6.01,23.24,-28.15,0.917417,0.032258,-0.031556,0.395337,0.0,0.0,0.0,0,0
2026-06-08 19:35:47.164,1568430,L_Shank,-0.1975,-0.1858,0.9484,1.8,-0.83,0.79,-3.03,29.95,-12.64,0.966826,-0.11301,0.037873,0.225776,0.0,0.0,0.0,0,0
2026-06-08 19:35:47.164,1568621,R_Ankle,0.0346,-0.0116,0.9957,0.9,-1.85,-0.26,-0.39,28.42,-30.02,0.974914,0.051607,-0.080294,0.200934,0.0,0.0,0.0,0,0
2026-06-08 19:35:47.167,1568440,L_Shank,-0.1804,-0.1868,0.947,1.8,-0.82,0.75,-3.91,29.08,-11.53,0.966704,-0.112949,0.038148,0.226356,0.0,0.0,0.0,0,0
2026-06-08 19:35:47.167,1568631,R_Ankle,0.0356,-0.0235,0.9986,0.88,-1.87,-0.26,-1.76,28.73,-30.66,0.974914,0.051637,-0.080294,0.200903,0.0,0.0,0.0,0,0
2026-06-08 19:35:47.171,1568450,L_Shank,-0.2024,-0.1951,0.9618,1.79,-0.83,0.7,-3.9,29.78,-13.09,0.966552,-0.112918,0.038453,0.226997,0.0,0.0,0.0,0,0
2026-06-08 19:35:47.171,1568622,R_Ankle,0.0302,-0.0185,0.988,0.9,-1.87,-0.25,-1.26,27.63,-31.1,0.974914,0.051637,-0.080325,0.200903,0.0,0.0,0.0,0,0
2026-06-08 19:35:47.174,1568460,L_Shank,-0.1926,-0.1995,0.9465,1.77,-0.8,0.55,0.0,0.0,0.0,0.966369,-0.112857,0.038759,0.227668,0.0,0.0,0.0,0,0
2026-06-08 19:35:47.174,1568632,R_Ankle,0.0312,-0.0225,0.9986,0.9,-1.87,-0.25,0.0,0.0,0.0,0.974914,0.051637,-0.080325,0.200903,0.0,0.0,0.0,0,0
2026-06-08 19:35:47.177,1568457,L_Ankle,0.0541,-0.0007,0.9784,-0.7,-0.41,-0.84,-4.24,23.93,-26.76,0.917417,0.032289,-0.031556,0.395337,0.0,0.0,0.0,0,0
2026-06-08 19:35:47.179,1568467,L_Ankle,0.057,0.0134,0.9918,-0.7,-0.41,-0.85,0.0,0.0,0.0,0.917417,0.032289,-0.031556,0.395337,0.0,0.0,0.0,0,0
2026-06-08 19:35:47.182,1568477,L_Ankle,0.0585,0.01,0.977,-0.7,-0.4,-0.85,-3.37,22.67,-27.94,0.917386,0.032319,-0.031556,0.395337,0.0,0.0,0.0,0,0
2026-06-08 19:35:47.182,1568640,R_Hip,0.016,-0.136,0.9702,-0.2,-2.19,2.64,8.16,-34.54,-22.33,0.1948,0.022736,-0.036714,0.979858,0.0,0.0,0.0,0,0
2026-06-08 19:35:47.185,1568487,L_Ankle,0.0555,0.0149,0.9755,-0.69,-0.39,-0.84,-5.65,23.95,-27.12,0.917386,0.03235,-0.031526,0.395337,0.0,0.0,0.0,0,0
2026-06-08 19:35:47.186,1568650,R_Hip,0.054,-0.1351,0.9779,-0.08,-2.13,2.49,7.97,-32.53,-23.19,0.194067,0.023225,-0.037202,0.97998,0.0,0.0,0.0,0,0
2026-06-08 19:35:47.189,1568467,L_Hip,0.0886,-0.237,0.9725,0.43,0.17,1.35,-10.21,30.04,-12.46,0.977721,-0.074038,-0.075991,0.181036,0.0,0.0,0.0,0,0
2026-06-08 19:35:47.189,1568660,R_Hip,0.0708,-0.1458,0.9982,0.08,-1.54,2.39,7.98,-33.99,-22.16,0.193457,0.023621,-0.037629,0.980071,0.0,0.0,0.0,0,0
2026-06-08 19:35:47.192,1568670,R_Hip,0.0362,-0.0955,1.0001,0.03,-1.35,2.54,0.0,0.0,0.0,0.192724,0.023713,-0.037873,0.980224,0.0,0.0,0.0,0,0
2026-06-08 19:35:47.193,1568477,L_Hip,0.0901,-0.2252,0.9759,0.46,0.19,1.41,-10.75,29.22,-11.44,0.977691,-0.074343,-0.07593,0.181158,0.0,0.0,0.0,0,0
2026-06-08 19:35:47.195,1568644,R_Ankle,0.0224,-0.0166,0.9909,0.9,-1.86,-0.25,-1.26,28.26,-31.11,0.974914,0.051637,-0.080355,0.200934,0.0,0.0,0.0,0,0
2026-06-08 19:35:47.196,1568654,R_Ankle,0.0322,-0.0146,1.0,0.89,-1.87,-0.26,-1.43,28.42,-31.27,0.974914,0.051637,-0.080325,0.200934,0.0,0.0,0.0,0,0
2026-06-08 19:35:47.198,1568664,R_Ankle,0.0268,-0.0195,1.012,0.9,-1.88,-0.25,0.0,0.0,0.0,0.974914,0.051637,-0.080325,0.200934,0.0,0.0,0.0,0,0
2026-06-08 19:35:47.199,1568674,R_Ankle,0.0253,-0.0176,1.0077,0.9,-1.87,-0.25,-0.4,28.1,-30.33,0.974914,0.051637,-0.080325,0.200934,0.0,0.0,0.0,0,0
2026-06-08 19:35:47.203,1568487,L_Hip,0.0759,-0.2282,0.9682,0.45,0.22,1.48,-11.26,29.05,-11.57,0.97763,-0.074709,-0.075991,0.181219,0.0,0.0,0.0,0,0
2026-06-08 19:35:47.206,1568497,L_Hip,0.069,-0.211,0.9832,0.45,0.23,1.53,0.0,0.0,0.0,0.977569,-0.075106,-0.076113,0.181341,0.0,0.0,0.0,0,0
2026-06-08 19:35:47.207,1568665,R_Hip,0.0358,-0.0618,0.9799,0.28,-1.76,2.6,6.7,-34.18,-22.68,0.19187,0.023988,-0.037996,0.980377,0.0,0.0,0.0,0,0
2026-06-08 19:35:47.209,1568502,L_Ankle,0.0575,0.0061,0.9717,-0.69,-0.4,-0.85,-4.79,23.04,-28.64,0.917417,0.03238,-0.031526,0.395337,0.0,0.0,0.0,0,0
2026-06-08 19:35:47.211,1568675,R_Hip,0.0249,-0.0628,0.9991,0.34,-1.73,2.47,7.61,-31.8,-23.2,0.191168,0.024384,-0.037935,0.980499,0.0,0.0,0.0,0,0
2026-06-08 19:35:47.212,1568512,L_Ankle,0.0501,0.0173,0.9861,-0.7,-0.39,-0.85,0.0,0.0,0.0,0.917417,0.03238,-0.031495,0.395337,0.0,0.0,0.0,0,0
2026-06-08 19:35:47.214,1568685,R_Hip,0.0175,-0.056,0.9861,0.32,-1.66,2.4,7.97,-32.53,-22.17,0.190558,0.024689,-0.037812,0.980621,0.0,0.0,0.0,0,0
2026-06-08 19:35:47.216,1568522,L_Ankle,0.0594,0.009,0.9822,-0.7,-0.39,-0.85,-6.53,22.72,-28.33,0.917417,0.03238,-0.031495,0.395337,0.0,0.0,0.0,0,0
2026-06-08 19:35:47.217,1568695,R_Hip,0.0121,-0.0692,1.0049,0.29,-1.67,2.46,0.0,0.0,0.0,0.189886,0.024934,-0.037751,0.980743,0.0,0.0,0.0,0,0
2026-06-08 19:35:47.219,1568532,L_Ankle,0.0575,0.0124,0.9914,-0.7,-0.41,-0.85,-4.39,23.76,-25.57,0.917417,0.03235,-0.031526,0.395337,0.0,0.0,0.0,0,0
2026-06-08 19:35:47.222,1568505,L_Shank,-0.1955,-0.198,0.9489,1.74,-0.78,0.38,-3.21,29.43,-11.85,0.966216,-0.112796,0.039064,0.228339,0.0,0.0,0.0,0,0
2026-06-08 19:35:47.224,1568515,L_Shank,-0.2024,-0.2103,0.9566,1.73,-0.77,0.35,-4.08,29.94,-12.32,0.966063,-0.112674,0.039338,0.22898,0.0,0.0,0.0,0,0
2026-06-08 19:35:47.227,1568525,L_Shank,-0.2009,-0.2196,0.9403,1.7,-0.77,0.36,-4.26,29.43,-12.15,0.965941,-0.112552,0.039644,0.22956,0.0,0.0,0.0,0,0
2026-06-08 19:35:47.229,1568535,L_Shank,-0.2063,-0.2298,0.9422,1.7,-0.79,0.4,0.0,0.0,0.0,0.965819,-0.112461,0.039918,0.230049,0.0,0.0,0.0,0,0
2026-06-08 19:35:47.232,1568689,R_Hip,0.02,-0.0677,0.9832,0.59,-1.63,2.65,8.7,-32.9,-21.48,0.183325,0.027863,-0.036531,0.981964,0.0,0.0,0.0,0,0
2026-06-08 19:35:47.233,1568512,L_Hip,0.0695,-0.2144,0.9638,0.46,0.19,1.73,-11.75,29.53,-12.0,0.977508,-0.075442,-0.0759,0.181677,0.0,0.0,0.0,0,0
2026-06-08 19:35:47.235,1568699,R_Hip,0.0293,-0.0745,1.001,0.59,-1.64,2.65,0.0,0.0,0.0,0.182531,0.028138,-0.036256,0.982116,0.0,0.0,0.0,0,0
2026-06-08 19:35:47.236,1568522,L_Hip,0.0714,-0.2129,0.9924,0.47,0.19,1.76,-9.91,29.08,-11.59,0.977416,-0.075655,-0.075747,0.182165,0.0,0.0,0.0,0,0
2026-06-08 19:35:47.238,1568709,R_Hip,0.0328,-0.0687,0.9876,0.59,-1.63,2.66,9.43,-32.16,-23.53,0.181738,0.028443,-0.036012,0.982269,0.0,0.0,0.0,0,0
2026-06-08 19:35:47.239,1568532,L_Hip,0.0744,-0.2125,0.972,0.51,0.19,1.8,-9.89,29.4,-12.18,0.977294,-0.075808,-0.075655,0.182684,0.0,0.0,0.0,0,0
2026-06-08 19:35:47.241,1568719,R_Hip,0.0431,-0.0838,0.9885,0.58,-1.64,2.66,0.0,0.0,0.0,0.180944,0.028779,-0.035798,0.982391,0.0,0.0,0.0,0,0
2026-06-08 19:35:47.242,1568542,L_Hip,0.0744,-0.2129,0.9643,0.52,0.17,1.8,-9.21,30.06,-12.19,0.977172,-0.075961,-0.075594,0.183294,0.0,0.0,0.0,0,0
2026-06-08 19:35:47.245,1568535,L_Hip,0.0842,-0.1928,0.9745,0.55,0.19,1.77,-10.36,30.85,-12.61,0.97705,-0.076144,-0.075503,0.183966,0.0,0.0,0.0,0,0
2026-06-08 19:35:47.247,1568545,L_Hip,0.0911,-0.2031,0.9808,0.54,0.2,1.78,0.0,0.0,0.0,0.976897,-0.076296,-0.075472,0.184698,0.0,0.0,0.0,0,0
2026-06-08 19:35:47.249,1568555,L_Hip,0.071,-0.1889,0.9696,0.54,0.24,1.74,-9.57,29.41,-11.6,0.976775,-0.07651,-0.075472,0.185339,0.0,0.0,0.0,0,0
2026-06-08 19:35:47.252,1568565,L_Hip,0.0759,-0.1751,0.9701,0.52,0.28,1.7,-10.71,30.2,-12.6,0.976653,-0.076785,-0.07535,0.185858,0.0,0.0,0.0,0,0
2026-06-08 19:35:47.252,1568710,R_Shank,-0.0483,-2.1096,0.9062,0.18,-0.96,-0.52,13.93,-42.76,-0.23,-0.469893,-0.110385,0.180456,0.85696,0.0,0.0,0.0,0,0
2026-06-08 19:35:47.255,1568546,L_Ankle,0.0501,0.0119,0.9914,-0.69,-0.41,-0.85,-4.39,21.27,-27.62,0.917417,0.03235,-0.031495,0.395306,0.0,0.0,0.0,0,0
2026-06-08 19:35:47.256,1568720,R_Shank,-0.041,-2.88,0.9076,0.17,-0.97,-0.5,15.79,-42.3,-1.3,-0.470504,-0.110324,0.180792,0.856563,0.0,0.0,0.0,0,0
2026-06-08 19:35:47.259,1568556,L_Ankle,0.0565,0.0119,0.9731,-0.7,-0.41,-0.85,0.0,0.0,0.0,0.917417,0.03235,-0.031495,0.395337,0.0,0.0,0.0,0,0
2026-06-08 19:35:47.262,1568730,R_Shank,-0.0508,-3.132,0.9062,0.17,-0.94,-0.48,15.77,-41.64,-0.99,-0.471145,-0.110233,0.181097,0.856166,0.0,0.0,0.0,0,0
2026-06-08 19:35:47.264,1568566,L_Ankle,0.057,0.0051,0.977,-0.7,-0.41,-0.83,-5.64,22.88,-27.47,0.917417,0.03235,-0.031495,0.395337,0.0,0.0,0.0,0,0
2026-06-08 19:35:47.266,1568740,R_Shank,-0.0532,2.5208,0.9043,0.16,-0.96,-0.48,15.97,-42.8,-1.45,-0.471755,-0.110141,0.181372,0.85577,0.0,0.0,0.0,0,0
2026-06-08 19:35:47.269,1568576,L_Ankle,0.056,0.0134,1.0038,-0.69,-0.41,-0.84,-5.81,21.64,-28.32,0.917417,0.032319,-0.031495,0.395337,0.0,0.0,0.0,0,0
2026-06-08 19:35:47.270,1568711,R_Ankle,0.0302,-0.0156,0.9952,0.9,-1.86,-0.25,-0.58,26.68,-30.78,0.974914,0.051668,-0.080325,0.200934,0.0,0.0,0.0,0,0
2026-06-08 19:35:47.272,1568557,L_Hip,0.0656,-0.1938,0.9832,0.51,0.35,1.48,-10.03,30.21,-13.19,0.976562,-0.07712,-0.075137,0.186346,0.0,0.0,0.0,0,0
2026-06-08 19:35:47.273,1568721,R_Ankle,0.039,-0.0215,1.0163,0.9,-1.87,-0.25,-0.06,27.47,-30.63,0.974914,0.051668,-0.080325,0.200934,0.0,0.0,0.0,0,0
2026-06-08 19:35:47.276,1568567,L_Hip,0.071,-0.1894,0.9725,0.52,0.35,1.44,0.0,0.0,0.0,0.97647,-0.077395,-0.074923,0.186743,0.0,0.0,0.0,0,0
2026-06-08 19:35:47.277,1568731,R_Ankle,0.0268,-0.0185,1.0077,0.9,-1.86,-0.25,-1.61,27.63,-31.72,0.974914,0.051668,-0.080386,0.200934,0.0,0.0,0.0,0,0
2026-06-08 19:35:47.279,1568577,L_Hip,0.0661,-0.1987,0.9716,0.54,0.36,1.35,-10.24,29.72,-11.3,0.976379,-0.07767,-0.074801,0.187078,0.0,0.0,0.0,0,0
2026-06-08 19:35:47.280,1568741,R_Ankle,0.0179,-0.0205,1.0058,0.89,-1.87,-0.25,0.0,0.0,0.0,0.974914,0.051668,-0.080386,0.200934,0.0,0.0,0.0,0,0
2026-06-08 19:35:47.282,1568587,L_Hip,0.0661,-0.2085,0.973,0.52,0.36,1.36,-9.53,30.38,-12.77,0.976318,-0.077853,-0.074648,0.187475,0.0,0.0,0.0,0,0
2026-06-08 19:35:47.284,1568714,R_Hip,0.0229,-0.0755,0.9871,0.61,-1.63,2.54,8.88,-32.71,-22.68,0.180212,0.029054,-0.035554,0.982543,0.0,0.0,0.0,0,0
2026-06-08 19:35:47.286,1568570,L_Ankle,0.0545,0.0139,0.9904,-0.7,-0.41,-0.85,-5.09,20.92,-27.97,0.917417,0.03235,-0.031495,0.395337,0.0,0.0,0.0,0,0
2026-06-08 19:35:47.287,1568724,R_Hip,0.0288,-0.0677,0.9958,0.61,-1.64,2.51,5.42,-32.9,-22.51,0.179479,0.029359,-0.03531,0.982665,0.0,0.0,0.0,0,0
2026-06-08 19:35:47.288,1568580,L_Ankle,0.0624,0.0056,0.9928,-0.7,-0.41,-0.83,0.0,0.0,0.0,0.917417,0.03235,-0.031495,0.395337,0.0,0.0,0.0,0,0
2026-06-08 19:35:47.289,1568734,R_Hip,0.0269,-0.0731,0.9953,0.6,-1.69,2.46,0.0,0.0,0.0,0.178808,0.029664,-0.035066,0.982788,0.0,0.0,0.0,0,0
2026-06-08 19:35:47.292,1568744,R_Hip,0.0244,-0.0755,0.9929,0.61,-1.71,2.45,7.61,-32.9,-22.51,0.178167,0.03003,-0.034852,0.98291,0.0,0.0,0.0,0,0
2026-06-08 19:35:47.293,1568734,R_Ankle,0.0228,-0.0176,0.9943,0.9,-1.86,-0.25,-0.91,28.58,-30.49,0.974914,0.051637,-0.080355,0.200934,0.0,0.0,0.0,0,0
2026-06-08 19:35:47.295,1568744,R_Ankle,0.0277,-0.0245,1.0058,0.89,-1.86,-0.25,-1.06,28.4,-28.8,0.974914,0.051637,-0.080386,0.200964,0.0,0.0,0.0,0,0
2026-06-08 19:35:47.296,1568754,R_Ankle,0.0292,-0.021,0.9928,0.9,-1.85,-0.26,0.0,0.0,0.0,0.974914,0.051637,-0.080386,0.200964,0.0,0.0,0.0,0,0
2026-06-08 19:35:47.298,1568764,R_Ankle,0.0214,-0.0275,0.9919,0.89,-1.86,-0.26,-0.73,29.37,-30.35,0.974914,0.051607,-0.080386,0.200964,0.0,0.0,0.0,0,0
2026-06-08 19:35:47.314,1568590,L_Ankle,0.0648,0.007,0.9899,-0.7,-0.41,-0.85,-3.72,22.67,-27.94,0.917417,0.03235,-0.031495,0.395337,0.0,0.0,0.0,0,0
2026-06-08 19:35:47.316,1568600,L_Ankle,0.0487,0.008,1.0024,-0.7,-0.39,-0.84,-5.64,23.24,-27.47,0.917417,0.03238,-0.031465,0.395337,0.0,0.0,0.0,0,0
2026-06-08 19:35:47.319,1568580,L_Shank,-0.1921,-0.2196,0.9398,1.71,-0.81,0.47,-3.37,29.61,-13.25,0.965728,-0.1124,0.040193,0.230445,0.0,0.0,0.0,0,0
2026-06-08 19:35:47.321,1568590,L_Shank,-0.1872,-0.2132,0.9518,1.74,-0.84,0.47,-4.62,29.75,-10.6,0.965636,-0.1124,0.040529,0.23075,0.0,0.0,0.0,0,0
2026-06-08 19:35:47.323,1568600,L_Shank,-0.1931,-0.2113,0.9446,1.74,-0.83,0.48,-3.05,29.92,-10.46,0.965545,-0.11243,0.040803,0.231025,0.0,0.0,0.0,0,0
2026-06-08 19:35:47.325,1568610,L_Shank,-0.2019,-0.2201,0.9527,1.77,-0.82,0.48,0.0,0.0,0.0,0.965453,-0.112491,0.041078,0.23133,0.0,0.0,0.0,0,0
2026-06-08 19:35:47.328,1568603,L_Hip,0.0665,-0.2203,0.9595,0.51,0.27,1.35,-10.02,31.5,-12.04,0.976226,-0.078036,-0.074557,0.187811,0.0,0.0,0.0,0,0
2026-06-08 19:35:47.330,1568613,L_Hip,0.0656,-0.2341,0.9701,0.51,0.25,1.38,0.0,0.0,0.0,0.976165,-0.078219,-0.074404,0.188147,0.0,0.0,0.0,0,0
2026-06-08 19:35:47.331,1568789,R_Hip,0.0264,-0.0653,0.9958,0.55,-1.67,2.38,7.06,-34.54,-23.02,0.177557,0.030335,-0.034639,0.983001,0.0,0.0,0.0,0,0
2026-06-08 19:35:47.334,1568623,L_Hip,0.071,-0.2238,0.9754,0.53,0.19,1.4,-10.08,27.95,-12.6,0.976104,-0.078433,-0.074221,0.188452,0.0,0.0,0.0,0,0
2026-06-08 19:35:47.335,1568799,R_Hip,0.021,-0.0653,1.0044,0.55,-1.65,2.37,6.52,-33.99,-22.85,0.176946,0.030641,-0.034394,0.983123,0.0,0.0,0.0,0,0
2026-06-08 19:35:47.337,1568633,L_Hip,0.0714,-0.2213,0.9716,0.56,0.19,1.42,-9.36,30.87,-12.33,0.976043,-0.078707,-0.074007,0.188757,0.0,0.0,0.0,0,0
2026-06-08 19:35:47.338,1568809,R_Hip,0.0264,-0.0574,1.003,0.59,-1.66,2.33,7.24,-33.26,-22.85,0.176366,0.030915,-0.03415,0.983215,0.0,0.0,0.0,0,0
2026-06-08 19:35:47.341,1568615,L_Ankle,0.0457,0.0046,0.9856,-0.69,-0.39,-0.86,-3.72,21.96,-28.63,0.917417,0.03235,-0.031495,0.395337,0.0,0.0,0.0,0,0
2026-06-08 19:35:47.342,1568819,R_Hip,0.02,-0.0516,0.9861,0.59,-1.67,2.29,0.0,0.0,0.0,0.175848,0.03122,-0.033845,0.983337,0.0,0.0,0.0,0,0
2026-06-08 19:35:47.344,1568625,L_Ankle,0.0536,0.0114,0.9717,-0.69,-0.41,-0.85,-3.69,21.61,-27.27,0.917417,0.03235,-0.031495,0.395337,0.0,0.0,0.0,0,0
2026-06-08 19:35:47.345,1568800,R_Shank,-0.0493,-1.8504,0.912,0.15,-0.96,-0.54,13.94,-43.09,-0.23,-0.472396,-0.11008,0.181585,0.855403,0.0,0.0,0.0,0,0
2026-06-08 19:35:47.347,1568810,R_Shank,-0.039,0.2096,0.9264,0.15,-0.96,-0.54,0.0,0.0,0.0,-0.473006,-0.109958,0.181829,0.855037,0.0,0.0,0.0,0,0
2026-06-08 19:35:47.349,1568820,R_Shank,-0.0395,-1.5912,0.9115,0.13,-0.95,-0.54,14.46,-43.6,-0.99,-0.473617,-0.109867,0.182043,0.854671,0.0,0.0,0.0,0,0
2026-06-08 19:35:47.350,1568830,R_Shank,-0.0503,-0.6912,0.9038,0.14,-0.97,-0.57,0.0,0.0,0.0,-0.474197,-0.109745,0.182287,0.854305,0.0,0.0,0.0,0,0
2026-06-08 19:35:47.352,1568801,R_Ankle,0.0277,-0.0176,1.012,0.9,-1.87,-0.25,-1.42,27.77,-30.03,0.974914,0.051576,-0.080386,0.200964,0.0,0.0,0.0,0,0
2026-06-08 19:35:47.354,1568811,R_Ankle,0.0238,-0.0255,0.988,0.88,-1.86,-0.25,0.27,27.47,-30.01,0.974914,0.051576,-0.080386,0.200964,0.0,0.0,0.0,0,0
2026-06-08 19:35:47.355,1568821,R_Ankle,0.0268,-0.0176,0.9895,0.89,-1.86,-0.24,-1.93,27.93,-30.19,0.974914,0.051576,-0.080355,0.200964,0.0,0.0,0.0,0,0
2026-06-08 19:35:47.357,1568831,R_Ankle,0.0326,-0.0181,1.0129,0.9,-1.86,-0.25,-0.72,27.76,-28.79,0.974914,0.051576,-0.080386,0.200964,0.0,0.0,0.0,0,0
2026-06-08 19:35:47.360,1568635,L_Ankle,0.059,0.007,0.9808,-0.7,-0.4,-0.84,0.0,0.0,0.0,0.917417,0.03235,-0.031495,0.395337,0.0,0.0,0.0,0,0
2026-06-08 19:35:47.362,1568645,L_Ankle,0.058,0.008,1.0024,-0.69,-0.38,-0.85,-4.76,22.34,-27.62,0.917417,0.032319,-0.031526,0.395337,0.0,0.0,0.0,0,0
2026-06-08 19:35:47.365,1568625,L_Hip,0.0405,-0.2164,0.9735,1.19,0.3,2.59,-8.85,30.07,-13.36,0.975616,-0.080966,-0.071688,0.190832,0.0,0.0,0.0,0,0
2026-06-08 19:35:47.366,1568824,R_Ankle,0.0297,-0.0185,1.0,0.89,-1.86,-0.25,0.12,28.57,-28.94,0.974914,0.051576,-0.080386,0.200964,0.0,0.0,0.0,0,0
2026-06-08 19:35:47.368,1568635,L_Hip,0.0538,-0.2125,0.9851,1.19,0.18,2.54,-8.2,29.44,-12.78,0.975585,-0.08121,-0.071474,0.191015,0.0,0.0,0.0,0,0
2026-06-08 19:35:47.369,1568834,R_Ankle,0.0199,-0.0136,1.0105,0.9,-1.87,-0.25,0.0,0.0,0.0,0.974914,0.051576,-0.080355,0.200964,0.0,0.0,0.0,0,0
2026-06-08 19:35:47.371,1568645,L_Hip,0.0562,-0.1766,0.9909,1.14,0.07,2.41,0.0,0.0,0.0,0.975555,-0.081484,-0.07123,0.191229,0.0,0.0,0.0,0,0
2026-06-08 19:35:47.373,1568844,R_Ankle,0.0243,-0.0225,1.0115,0.9,-1.86,-0.25,-0.56,28.26,-30.18,0.974914,0.051607,-0.080355,0.200964,0.0,0.0,0.0,0,0
2026-06-08 19:35:47.374,1568655,L_Hip,0.0675,-0.1884,0.9856,1.06,0.11,2.51,-9.0,30.88,-13.5,0.975494,-0.081729,-0.070925,0.191473,0.0,0.0,0.0,0,0
2026-06-08 19:35:47.376,1568854,R_Ankle,0.0253,-0.0141,1.0072,0.89,-1.86,-0.25,-0.57,28.26,-30.79,0.974914,0.051576,-0.080325,0.200964,0.0,0.0,0.0,0,0
2026-06-08 19:35:47.377,1568655,L_Shank,-0.199,-0.224,0.9398,1.79,-0.83,0.61,-4.61,30.1,-11.54,0.965361,-0.112583,0.041383,0.231635,0.0,0.0,0.0,0,0
2026-06-08 19:35:47.380,1568665,L_Shank,-0.2107,-0.2274,0.9426,1.81,-0.85,0.73,-3.39,30.27,-11.71,0.965239,-0.112674,0.041627,0.231971,0.0,0.0,0.0,0,0
2026-06-08 19:35:47.386,1568845,R_Shank,-0.0483,2.78,0.9086,0.16,-1.0,-0.61,14.29,-43.43,-1.44,-0.474746,-0.109653,0.182501,0.853938,0.0,0.0,0.0,0,0
2026-06-08 19:35:47.387,1568855,R_Shank,-0.0508,-2.4912,0.9062,0.15,-1.05,-0.67,14.79,-42.95,-1.29,-0.475295,-0.109531,0.182745,0.853603,0.0,0.0,0.0,0,0
2026-06-08 19:35:47.389,1568865,R_Shank,-0.0582,0.2096,0.9033,0.17,-1.04,-0.68,0.0,0.0,0.0,-0.475814,-0.109409,0.182989,0.853298,0.0,0.0,0.0,0,0
2026-06-08 19:35:47.390,1568875,R_Shank,-0.0469,0.8504,0.8923,0.16,-1.09,-0.74,14.78,-42.94,-0.99,-0.476272,-0.109317,0.183233,0.852992,0.0,0.0,0.0,0,0
2026-06-08 19:35:47.393,1568846,R_Ankle,0.0238,-0.022,1.0072,0.89,-1.86,-0.25,-1.6,28.27,-31.73,0.974914,0.051576,-0.080355,0.200964,0.0,0.0,0.0,0,0
2026-06-08 19:35:47.393,1568675,L_Shank,-0.1911,-0.2347,0.9422,1.81,-0.88,0.78,-3.91,29.43,-11.84,0.965148,-0.112735,0.041841,0.232337,0.0,0.0,0.0,0,0
2026-06-08 19:35:47.396,1568856,R_Ankle,0.0331,-0.023,1.0158,0.9,-1.87,-0.25,-0.39,29.06,-30.34,0.974914,0.051576,-0.080355,0.200964,0.0,0.0,0.0,0,0
2026-06-08 19:35:47.396,1568685,L_Shank,-0.2097,-0.2264,0.9383,1.8,-0.9,0.91,-3.56,29.77,-12.16,0.965056,-0.112735,0.042055,0.232704,0.0,0.0,0.0,0,0
2026-06-08 19:35:47.399,1568866,R_Ankle,0.0361,-0.0161,1.0019,0.89,-1.87,-0.25,-0.04,29.37,-30.03,0.974914,0.051576,-0.080355,0.200964,0.0,0.0,0.0,0,0
2026-06-08 19:35:47.400,1568660,L_Ankle,0.0506,0.0149,0.9995,-0.7,-0.41,-0.85,-5.28,22.52,-27.12,0.917417,0.032319,-0.031495,0.395337,0.0,0.0,0.0,0,0
2026-06-08 19:35:47.402,1568876,R_Ankle,0.0258,-0.022,0.9952,0.9,-1.87,-0.25,0.0,0.0,0.0,0.974914,0.051607,-0.080386,0.200964,0.0,0.0,0.0,0,0
2026-06-08 19:35:47.403,1568670,L_Ankle,0.0555,0.0129,0.9909,-0.69,-0.39,-0.84,-5.28,21.46,-28.49,0.917417,0.032289,-0.031495,0.395337,0.0,0.0,0.0,0,0
2026-06-08 19:35:47.406,1568680,L_Ankle,0.056,0.0129,0.9856,-0.7,-0.39,-0.86,0.0,0.0,0.0,0.917417,0.032289,-0.031495,0.395337,0.0,0.0,0.0,0,0
2026-06-08 19:35:47.407,1568865,R_Hip,0.0422,-0.056,1.001,0.49,-1.6,1.76,6.7,-33.08,-21.65,0.174352,0.032746,-0.032197,0.983581,0.0,0.0,0.0,0,0
2026-06-08 19:35:47.409,1568690,L_Ankle,0.0541,0.0041,1.0029,-0.7,-0.39,-0.84,-5.63,22.17,-27.81,0.917417,0.032289,-0.031465,0.395337,0.0,0.0,0.0,0,0
2026-06-08 19:35:47.410,1568875,R_Hip,0.0466,-0.0526,1.0087,0.45,-1.59,1.71,6.88,-32.89,-23.19,0.1742,0.033052,-0.031983,0.983612,0.0,0.0,0.0,0,0
2026-06-08 19:35:47.412,1568670,L_Hip,0.0494,-0.1967,0.9885,1.03,0.25,2.58,-8.68,30.24,-13.21,0.975433,-0.081973,-0.07062,0.191748,0.0,0.0,0.0,0,0
2026-06-08 19:35:47.413,1568885,R_Hip,0.051,-0.0457,1.0112,0.41,-1.57,1.61,6.52,-33.26,-22.17,0.174108,0.033357,-0.0318,0.983642,0.0,0.0,0.0,0,0
2026-06-08 19:35:47.415,1568680,L_Hip,0.0455,-0.1982,0.9754,1.04,0.24,2.53,-10.22,30.04,-12.17,0.975372,-0.082095,-0.070376,0.192053,0.0,0.0,0.0,0,0
2026-06-08 19:35:47.416,1568895,R_Hip,0.0535,-0.0609,0.9967,0.39,-1.53,1.6,0.0,0.0,0.0,0.174078,0.033631,-0.031648,0.983642,0.0,0.0,0.0,0,0
2026-06-08 19:35:47.418,1568690,L_Hip,0.0469,-0.2012,0.9759,1.03,0.22,2.54,0.0,0.0,0.0,0.975311,-0.082186,-0.070162,0.192419,0.0,0.0,0.0,0,0
2026-06-08 19:35:47.420,1568867,R_Shank,-0.0449,-0.4384,0.9048,0.15,-1.09,-0.8,14.8,-43.61,-1.0,-0.476699,-0.109195,0.183508,0.852718,0.0,0.0,0.0,0,0
2026-06-08 19:35:47.421,1568700,L_Hip,0.043,-0.2071,0.9575,1.02,0.22,2.55,-8.37,29.59,-12.35,0.975249,-0.082278,-0.069918,0.192846,0.0,0.0,0.0,0,0
2026-06-08 19:35:47.423,1568877,R_Shank,-0.0498,-1.8504,0.9,0.13,-1.11,-0.78,14.97,-44.1,-0.25,-0.477126,-0.109073,0.183782,0.852412,0.0,0.0,0.0,0,0
2026-06-08 19:35:47.424,1568681,L_Shank,-0.2038,-0.2171,0.9431,1.77,-0.95,1.21,-4.07,29.27,-12.93,0.964934,-0.112796,0.042329,0.23307,0.0,0.0,0.0,0,0
2026-06-08 19:35:47.427,1568887,R_Shank,-0.0518,-2.3688,0.8961,0.12,-1.13,-0.8,0.0,0.0,0.0,-0.477523,-0.108951,0.184088,0.852138,0.0,0.0,0.0,0,0
2026-06-08 19:35:47.427,1568691,L_Shank,-0.2087,-0.224,0.9489,1.8,-0.96,1.29,0.0,0.0,0.0,0.964843,-0.112796,0.042604,0.233497,0.0,0.0,0.0,0,0
2026-06-08 19:35:47.430,1568897,R_Shank,-0.0464,0.4616,0.9124,0.09,-1.16,-0.8,15.47,-43.94,-0.1,-0.47795,-0.108829,0.184362,0.851863,0.0,0.0,0.0,0,0
2026-06-08 19:35:47.431,1568701,L_Shank,-0.195,-0.2147,0.9249,1.82,-0.99,1.34,-2.51,29.43,-12.17,0.96469,-0.112827,0.042848,0.233985,0.0,0.0,0.0,0,0
2026-06-08 19:35:47.433,1568711,L_Shank,-0.2019,-0.2103,0.9388,1.87,-1.02,1.4,-4.25,29.77,-12.47,0.964537,-0.112857,0.043092,0.234596,0.0,0.0,0.0,0,0
2026-06-08 19:35:47.435,1568737,L_Hip,0.0464,-0.2031,0.9657,1.06,-0.01,2.63,-8.7,29.59,-12.63,0.975158,-0.082369,-0.069613,0.193335,0.0,0.0,0.0,0,0
2026-06-08 19:35:47.437,1568747,L_Hip,0.041,-0.2021,0.9711,1.09,0.01,2.64,-7.51,29.77,-12.79,0.975066,-0.08243,-0.069338,0.193884,0.0,0.0,0.0,0,0
2026-06-08 19:35:47.439,1568757,L_Hip,0.067,-0.2017,0.9624,1.12,0.13,2.68,0.0,0.0,0.0,0.974975,-0.082492,-0.069033,0.194494,0.0,0.0,0.0,0,0
2026-06-08 19:35:47.441,1568767,L_Hip,0.0695,-0.1933,0.9599,1.12,0.23,2.66,-8.19,29.44,-13.36,0.974853,-0.082522,-0.068728,0.195166,0.0,0.0,0.0,0,0
2026-06-08 19:35:47.444,1568750,L_Ankle,0.0545,0.0036,1.0115,-0.7,-0.4,-0.84,-4.25,22.15,-28.8,0.917417,0.032319,-0.031495,0.395337,0.0,0.0,0.0,0,0
2026-06-08 19:35:47.446,1568760,L_Ankle,0.0604,0.0109,0.9851,-0.7,-0.41,-0.85,-5.79,22.36,-26.62,0.917417,0.032289,-0.031495,0.395337,0.0,0.0,0.0,0,0
2026-06-08 19:35:47.453,1568912,R_Shank,-0.0532,-1.3384,0.9,0.07,-1.16,-0.88,14.27,-42.77,-0.83,-0.478347,-0.108646,0.184668,0.851619,0.0,0.0,0.0,0,0
2026-06-08 19:35:47.455,1568922,R_Shank,-0.0503,-0.4384,0.9028,0.03,-1.19,-0.97,15.29,-42.79,-1.15,-0.478683,-0.108493,0.184912,0.851375,0.0,0.0,0.0,0,0
2026-06-08 19:35:47.457,1568932,R_Shank,-0.042,-2.88,0.9105,0.02,-1.22,-1.02,0.0,0.0,0.0,-0.478988,-0.10831,0.185125,0.851192,0.0,0.0,0.0,0,0
2026-06-08 19:35:47.458,1568942,R_Shank,-0.0361,0.2024,0.9105,0.0,-1.25,-1.08,13.76,-42.59,-0.37,-0.479232,-0.108097,0.185369,0.851039,0.0,0.0,0.0,0,0
2026-06-08 19:35:47.463,1568770,L_Ankle,0.0521,0.0065,0.976,-0.7,-0.41,-0.86,0.0,0.0,0.0,0.917417,0.032289,-0.031526,0.395337,0.0,0.0,0.0,0,0
2026-06-08 19:35:47.465,1568780,L_Ankle,0.0516,0.0173,0.9765,-0.7,-0.41,-0.85,-5.97,21.83,-27.48,0.917417,0.032289,-0.031526,0.395337,0.0,0.0,0.0,0,0
2026-06-08 19:35:47.468,1568755,L_Shank,-0.2019,-0.1976,0.9489,1.9,-1.03,1.43,-2.34,29.25,-11.7,0.964354,-0.112888,0.043336,0.235267,0.0,0.0,0.0,0,0
2026-06-08 19:35:47.470,1568765,L_Shank,-0.2146,-0.202,0.9388,1.9,-1.03,1.41,0.0,0.0,0.0,0.964171,-0.112918,0.043611,0.23603,0.0,0.0,0.0,0,0
2026-06-08 19:35:47.473,1568775,L_Shank,-0.2097,-0.2088,0.9331,1.88,-1.03,1.41,-4.61,28.74,-11.52,0.963927,-0.112888,0.043825,0.236915,0.0,0.0,0.0,0,0
2026-06-08 19:35:47.475,1568785,L_Shank,-0.2107,-0.2108,0.9575,1.87,-1.03,1.4,-2.34,30.95,-11.72,0.963683,-0.112827,0.044038,0.237892,0.0,0.0,0.0,0,0
2026-06-08 19:35:47.478,1568935,R_Shank,-0.0267,-2.7504,0.9052,-0.08,-1.26,-1.32,14.96,-43.11,-1.14,-0.480087,-0.106693,0.186407,0.85049,0.0,0.0,0.0,0,0
2026-06-08 19:35:47.479,1568772,L_Ankle,0.0555,0.0124,0.9856,-0.7,-0.41,-0.84,-5.81,21.64,-28.32,0.917417,0.032289,-0.031526,0.395337,0.0,0.0,0.0,0,0
2026-06-08 19:35:47.481,1568945,R_Shank,-0.0218,-1.98,0.9163,-0.11,-1.23,-1.32,0.0,0.0,0.0,-0.480209,-0.106449,0.18659,0.850429,0.0,0.0,0.0,0,0
2026-06-08 19:35:47.482,1568782,L_Ankle,0.0565,0.0144,0.9909,-0.7,-0.41,-0.86,-5.63,23.95,-26.1,0.917417,0.032289,-0.031526,0.395337,0.0,0.0,0.0,0,0
2026-06-08 19:35:47.485,1568955,R_Shank,-0.014,0.4616,0.9148,-0.12,-1.22,-1.32,14.12,-43.92,-0.69,-0.480331,-0.106143,0.186712,0.850337,0.0,0.0,0.0,0,0
2026-06-08 19:35:47.485,1568792,L_Ankle,0.0599,-0.0002,0.9851,-0.7,-0.4,-0.84,0.0,0.0,0.0,0.917417,0.032289,-0.031495,0.395337,0.0,0.0,0.0,0,0
2026-06-08 19:35:47.488,1568965,R_Shank,-0.0233,-3.2616,0.9288,-0.12,-1.17,-1.3,14.1,-42.93,-0.38,-0.480483,-0.105869,0.186834,0.850276,0.0,0.0,0.0,0,0
2026-06-08 19:35:47.489,1568802,L_Ankle,0.0614,0.009,0.9885,-0.71,-0.4,-0.84,-5.83,22.7,-28.66,0.917417,0.032289,-0.031495,0.395337,0.0,0.0,0.0,0,0
2026-06-08 19:35:47.491,1568937,R_Ankle,0.0277,-0.0181,0.9971,0.89,-1.86,-0.26,0.11,27.94,-29.86,0.974914,0.051576,-0.080386,0.200964,0.0,0.0,0.0,0,0
2026-06-08 19:35:47.492,1568795,L_Ankle,0.0624,0.0075,0.999,-0.7,-0.41,-0.86,-4.6,22.51,-28.13,0.917417,0.032289,-0.031495,0.395337,0.0,0.0,0.0,0,0
2026-06-08 19:35:47.494,1568805,L_Ankle,0.059,0.0227,0.9918,-0.71,-0.4,-0.83,-4.02,21.62,-26.25,0.917417,0.032289,-0.031495,0.395337,0.0,0.0,0.0,0,0
2026-06-08 19:35:47.495,1568947,R_Ankle,0.0282,-0.0121,1.0216,0.9,-1.87,-0.24,-0.9,28.89,-30.19,0.974914,0.051607,-0.080355,0.200964,0.0,0.0,0.0,0,0
2026-06-08 19:35:47.498,1568815,L_Ankle,0.0492,0.0119,0.9837,-0.7,-0.41,-0.84,-6.67,21.84,-27.49,0.917386,0.032319,-0.031495,0.395337,0.0,0.0,0.0,0,0
2026-06-08 19:35:47.498,1568957,R_Ankle,0.0317,-0.0156,0.9976,0.9,-1.87,-0.25,-0.92,28.59,-32.03,0.974914,0.051607,-0.080355,0.200964,0.0,0.0,0.0,0,0
2026-06-08 19:35:47.501,1568825,L_Ankle,0.0707,0.0149,0.9822,-0.71,-0.41,-0.84,0.0,0.0,0.0,0.917386,0.032319,-0.031495,0.395337,0.0,0.0,0.0,0,0
2026-06-08 19:35:47.501,1568967,R_Ankle,0.0258,-0.0096,0.9919,0.9,-1.87,-0.25,0.09,27.64,-31.09,0.974914,0.051607,-0.080386,0.200964,0.0,0.0,0.0,0,0
2026-06-08 19:35:47.504,1568959,R_Ankle,0.0277,-0.0255,0.989,0.9,-1.87,-0.25,-0.74,28.1,-30.64,0.974914,0.051637,-0.080386,0.200964,0.0,0.0,0.0,0,0
2026-06-08 19:35:47.505,1568805,L_Shank,-0.2092,-0.2117,0.9417,1.81,-1.04,1.52,-2.68,28.58,-12.31,0.963439,-0.112705,0.044252,0.238868,0.0,0.0,0.0,0,0
2026-06-08 19:35:47.507,1568815,L_Shank,-0.2151,-0.202,0.9292,1.81,-1.04,1.53,0.0,0.0,0.0,0.963195,-0.112522,0.044496,0.239906,0.0,0.0,0.0,0,0
2026-06-08 19:35:47.507,1568969,R_Ankle,0.0307,-0.0086,0.9986,0.89,-1.87,-0.25,-0.4,27.78,-30.33,0.974914,0.051637,-0.080386,0.200964,0.0,0.0,0.0,0,0
2026-06-08 19:35:47.510,1568979,R_Ankle,0.0228,-0.0195,1.0077,0.89,-1.87,-0.24,-0.24,27.31,-30.78,0.974914,0.051698,-0.080386,0.200964,0.0,0.0,0.0,0,0
2026-06-08 19:35:47.511,1568989,R_Ankle,0.0312,-0.0146,1.0024,0.9,-1.85,-0.24,-0.91,28.26,-30.8,0.974914,0.051698,-0.080386,0.200995,0.0,0.0,0.0,0,0
2026-06-08 19:35:47.513,1568825,L_Shank,-0.2166,-0.2015,0.9513,1.79,-1.04,1.52,-3.22,29.42,-11.23,0.962981,-0.112308,0.044679,0.240913,0.0,0.0,0.0,0,0
2026-06-08 19:35:47.516,1568835,L_Shank,-0.2078,-0.2137,0.9431,1.8,-1.06,1.54,-3.56,30.1,-11.55,0.962706,-0.112186,0.044923,0.24192,0.0,0.0,0.0,0,0
2026-06-08 19:35:47.518,1568817,L_Ankle,0.0594,0.0158,0.9822,-0.7,-0.39,-0.84,-4.21,20.38,-28.13,0.917386,0.032319,-0.031526,0.395337,0.0,0.0,0.0,0,0
2026-06-08 19:35:47.521,1568827,L_Ankle,0.0511,0.0056,0.9755,-0.69,-0.41,-0.85,-5.95,21.47,-26.46,0.917386,0.032289,-0.031526,0.395337,0.0,0.0,0.0,0,0
2026-06-08 19:35:47.522,1568980,R_Shank,-0.0105,3.1688,0.9201,-0.1,-0.99,-1.12,13.26,-42.75,-0.82,-0.481429,-0.104678,0.187109,0.849818,0.0,0.0,0.0,0,0
2026-06-08 19:35:47.524,1568990,R_Shank,-0.0169,3.0392,0.9158,-0.06,-0.94,-1.09,0.0,0.0,0.0,-0.481735,-0.104465,0.187109,0.849666,0.0,0.0,0.0,0,0
2026-06-08 19:35:47.526,1569000,R_Shank,-0.015,-2.4848,0.9086,-0.05,-0.93,-1.06,15.49,-44.28,-1.31,-0.48204,-0.104282,0.187109,0.849513,0.0,0.0,0.0,0,0
2026-06-08 19:35:47.528,1569010,R_Shank,-0.0272,-0.9432,0.9225,-0.02,-0.9,-1.05,14.97,-43.45,-1.45,-0.482376,-0.10416,0.187109,0.849361,0.0,0.0,0.0,0,0
2026-06-08 19:35:47.528,1568837,L_Ankle,0.0506,0.0105,0.9957,-0.7,-0.41,-0.85,-5.12,23.41,-27.63,0.917386,0.032289,-0.031526,0.395337,0.0,0.0,0.0,0,0
2026-06-08 19:35:47.530,1568847,L_Ankle,0.0452,0.0246,0.9861,-0.7,-0.39,-0.85,0.0,0.0,0.0,0.917386,0.032289,-0.031495,0.395337,0.0,0.0,0.0,0,0
2026-06-08 19:35:47.533,1568828,L_Hip,0.0533,-0.183,0.9716,1.02,0.27,2.54,-8.19,29.76,-12.49,0.974731,-0.082522,-0.068453,0.195807,0.0,0.0,0.0,0,0
2026-06-08 19:35:47.535,1568838,L_Hip,0.0484,-0.2017,0.9808,1.01,0.28,2.53,0.0,0.0,0.0,0.974639,-0.082461,-0.068178,0.196478,0.0,0.0,0.0,0,0
2026-06-08 19:35:47.540,1568848,L_Hip,0.0504,-0.1938,0.9711,0.97,0.28,2.54,-8.49,31.69,-12.5,0.974517,-0.0824,-0.067904,0.197089,0.0,0.0,0.0,0,0
2026-06-08 19:35:47.542,1568858,L_Hip,0.044,-0.1913,0.9725,0.93,0.23,2.54,0.0,0.0,0.0,0.974425,-0.082339,-0.067598,0.197729,0.0,0.0,0.0,0,0
2026-06-08 19:35:47.546,1568830,L_Shank,-0.2122,-0.2054,0.9331,1.86,-1.04,1.63,-1.65,29.92,-10.47,0.961394,-0.111698,0.045991,0.24723,0.0,0.0,0.0,0,0
2026-06-08 19:35:47.547,1569004,R_Ankle,0.0297,-0.029,0.9971,0.9,-1.86,-0.24,-0.57,29.22,-31.11,0.974914,0.051698,-0.080355,0.200995,0.0,0.0,0.0,0,0
2026-06-08 19:35:47.549,1568840,L_Shank,-0.2239,-0.2083,0.9393,1.84,-1.03,1.63,0.0,0.0,0.0,0.961089,-0.111606,0.046175,0.248329,0.0,0.0,0.0,0,0
2026-06-08 19:35:47.551,1569014,R_Ankle,0.0258,-0.02,1.0029,0.9,-1.87,-0.24,-0.91,27.62,-30.17,0.974914,0.051698,-0.080355,0.200995,0.0,0.0,0.0,0,0
2026-06-08 19:35:47.554,1568850,L_Shank,-0.2058,-0.2083,0.9436,1.83,-1.04,1.63,-3.75,29.58,-10.76,0.960814,-0.111484,0.046358,0.249489,0.0,0.0,0.0,0,0
2026-06-08 19:35:47.555,1569024,R_Ankle,0.0317,-0.0215,0.9852,0.89,-1.87,-0.23,-1.09,28.11,-31.26,0.974914,0.051698,-0.080355,0.200995,0.0,0.0,0.0,0,0
2026-06-08 19:35:47.557,1568860,L_Shank,-0.2097,-0.2015,0.9546,1.83,-1.04,1.61,-3.38,30.62,-12.33,0.960509,-0.111362,0.046571,0.250649,0.0,0.0,0.0,0,0
2026-06-08 19:35:47.558,1569034,R_Ankle,0.0292,-0.02,1.011,0.89,-1.87,-0.25,-1.08,27.78,-30.64,0.974883,0.051698,-0.080386,0.200995,0.0,0.0,0.0,0,0
2026-06-08 19:35:47.561,1568850,L_Hip,0.0587,-0.1825,0.9662,0.8,0.16,2.45,-6.98,30.27,-13.82,0.974364,-0.082217,-0.067202,0.198279,0.0,0.0,0.0,0,0
2026-06-08 19:35:47.563,1568860,L_Hip,0.0499,-0.181,0.9696,0.72,0.1,2.36,-8.19,30.08,-12.2,0.974303,-0.082125,-0.066836,0.198767,0.0,0.0,0.0,0,0
2026-06-08 19:35:47.566,1568870,L_Hip,0.0513,-0.18,0.973,0.68,0.09,2.33,-8.15,30.73,-13.95,0.974242,-0.082064,-0.066408,0.199164,0.0,0.0,0.0,0,0
2026-06-08 19:35:47.568,1569025,R_Shank,-0.0184,-2.6208,0.9124,0.12,-0.8,-1.09,14.28,-42.77,-1.44,-0.483963,-0.103763,0.187384,0.848445,0.0,0.0,0.0,0,0
2026-06-08 19:35:47.569,1568880,L_Hip,0.0548,-0.1761,0.9783,0.58,0.09,2.22,0.0,0.0,0.0,0.974212,-0.082003,-0.066012,0.19953,0.0,0.0,0.0,0,0
2026-06-08 19:35:47.571,1569035,R_Shank,-0.0204,0.4616,0.9168,0.13,-0.79,-1.12,0.0,0.0,0.0,-0.484237,-0.103793,0.187506,0.848231,0.0,0.0,0.0,0,0
2026-06-08 19:35:47.573,1568862,L_Ankle,0.058,0.009,0.988,-0.7,-0.41,-0.86,-4.95,23.94,-27.11,0.917386,0.032289,-0.031526,0.395337,0.0,0.0,0.0,0,0
2026-06-08 19:35:47.574,1569045,R_Shank,-0.0056,-1.7208,0.924,0.13,-0.78,-1.18,14.11,-42.93,-0.98,-0.484512,-0.103854,0.187658,0.848048,0.0,0.0,0.0,0,0
2026-06-08 19:35:47.577,1568872,L_Ankle,0.0526,0.007,0.9952,-0.69,-0.41,-0.84,-4.6,22.86,-28.13,0.917386,0.032289,-0.031556,0.395367,0.0,0.0,0.0,0,0
2026-06-08 19:35:47.578,1569055,R_Shank,-0.012,1.232,0.9124,0.11,-0.78,-1.25,12.6,-43.4,-0.82,-0.484725,-0.103885,0.18778,0.847896,0.0,0.0,0.0,0,0
