python_time,esp32_hw_time,sensor_name,ax,ay,az,gx,gy,gz,mx,my,mz,q0,q1,q2,q3,quat_roll,quat_pitch,quat_yaw,is_paused_flag,t_pose_flag
2026-06-08 19:10:38.785,60552,L_Ankle,0.0604,0.0085,0.9914,-0.7,-0.39,-0.84,-17.76,14.51,-47.44,0.968963,0.026582,-0.0347,0.243202,0.0,0.0,0.0,0,0
2026-06-08 19:10:38.787,60562,L_Ankle,0.0541,0.008,1.0096,-0.7,-0.39,-0.85,0.0,0.0,0.0,0.968963,0.026612,-0.03473,0.243202,0.0,0.0,0.0,0,0
2026-06-08 19:10:38.789,60572,L_Ankle,0.058,0.009,0.9875,-0.71,-0.38,-0.86,-20.39,15.08,-47.65,0.968963,0.026582,-0.0347,0.243202,0.0,0.0,0.0,0,0
2026-06-08 19:10:38.792,60582,L_Ankle,0.0604,0.0168,0.9808,-0.7,-0.4,-0.84,-20.54,14.55,-46.47,0.968963,0.026612,-0.03473,0.243202,0.0,0.0,0.0,0,0
2026-06-08 19:10:38.794,60555,L_Shank,0.0521,-0.0077,0.9772,1.74,-1.09,-0.07,6.64,27.24,-37.59,0.998016,-0.000763,-0.046968,0.041383,0.0,0.0,0.0,0,0
2026-06-08 19:10:38.797,60565,L_Shank,0.0541,-0.0107,0.9902,1.73,-1.09,-0.08,6.47,27.76,-38.06,0.998016,-0.000763,-0.046968,0.041383,0.0,0.0,0.0,0,0
2026-06-08 19:10:38.799,60575,L_Shank,0.0487,-0.0014,0.9858,1.73,-1.1,-0.08,5.58,26.55,-36.63,0.998016,-0.000793,-0.046968,0.041383,0.0,0.0,0.0,0,0
2026-06-08 19:10:38.801,60585,L_Shank,0.0458,-0.0077,0.9974,1.73,-1.12,-0.09,0.0,0.0,0.0,0.998016,-0.000793,-0.046968,0.041383,0.0,0.0,0.0,0,0
2026-06-08 19:10:38.807,60575,L_Ankle,0.0492,0.0061,0.988,-0.7,-0.38,-0.85,-20.04,14.72,-47.99,0.968963,0.026582,-0.03473,0.243202,0.0,0.0,0.0,0,0
2026-06-08 19:10:38.809,60585,L_Ankle,0.057,0.0144,0.9866,-0.7,-0.38,-0.84,0.0,0.0,0.0,0.968963,0.026582,-0.034761,0.243202,0.0,0.0,0.0,0,0
2026-06-08 19:10:38.812,60595,L_Ankle,0.0585,0.0163,0.9918,-0.7,-0.4,-0.83,-20.91,15.62,-46.47,0.968963,0.026612,-0.034761,0.243202,0.0,0.0,0.0,0,0
2026-06-08 19:10:38.814,60605,L_Ankle,0.0506,0.01,0.9818,-0.7,-0.39,-0.86,-20.38,15.08,-46.97,0.968963,0.026582,-0.034761,0.243202,0.0,0.0,0.0,0,0
2026-06-08 19:10:38.817,60446,R_Ankle,0.0307,-0.0141,1.0163,0.9,-1.86,-0.25,-1.24,29.53,-30.82,0.989166,0.044862,-0.084719,0.111087,0.0,0.0,0.0,0,0
2026-06-08 19:10:38.819,60456,R_Ankle,0.0277,-0.0111,1.0067,0.9,-1.87,-0.25,-1.75,29.68,-30.36,0.989166,0.044862,-0.084719,0.111118,0.0,0.0,0.0,0,0
2026-06-08 19:10:38.821,60466,R_Ankle,0.0219,-0.0245,1.0081,0.9,-1.86,-0.25,0.0,0.0,0.0,0.989166,0.044893,-0.084719,0.111118,0.0,0.0,0.0,0,0
2026-06-08 19:10:38.824,60476,R_Ankle,0.0263,-0.0096,1.0048,0.9,-1.85,-0.27,-2.27,28.89,-31.13,0.989166,0.044862,-0.084689,0.111087,0.0,0.0,0.0,0,0
2026-06-08 19:10:38.829,60597,L_Ankle,0.0536,0.0114,0.9856,-0.7,-0.4,-0.83,-18.96,13.99,-46.95,0.968963,0.026612,-0.034761,0.243202,0.0,0.0,0.0,0,0
2026-06-08 19:10:38.831,60607,L_Ankle,0.0545,0.0119,0.988,-0.7,-0.38,-0.85,0.0,0.0,0.0,0.968963,0.026612,-0.034761,0.243202,0.0,0.0,0.0,0,0
2026-06-08 19:10:38.833,60617,L_Ankle,0.059,0.0153,0.975,-0.71,-0.4,-0.85,-18.83,14.87,-48.47,0.968963,0.026612,-0.034761,0.243202,0.0,0.0,0.0,0,0
2026-06-08 19:10:38.835,60465,R_Hip,-0.0189,0.0162,0.9914,0.21,-1.22,1.51,-16.12,24.13,-27.16,0.989441,0.007172,-0.012238,-0.144108,0.0,0.0,0.0,0,0
2026-06-08 19:10:38.836,60627,L_Ankle,0.0565,0.0041,0.9726,-0.7,-0.4,-0.83,-21.79,14.75,-47.68,0.968963,0.026612,-0.034791,0.243202,0.0,0.0,0.0,0,0
2026-06-08 19:10:38.838,60475,R_Hip,-0.015,0.0093,1.0063,0.19,-1.22,1.52,0.0,0.0,0.0,0.989441,0.007202,-0.012238,-0.144108,0.0,0.0,0.0,0,0
2026-06-08 19:10:38.840,60607,L_Hip,0.092,-0.0744,1.0006,0.38,-0.12,0.81,14.65,32.11,-54.55,0.992981,-0.036195,-0.053926,-0.098666,0.0,0.0,0.0,0,0
2026-06-08 19:10:38.841,60485,R_Hip,-0.0268,0.003,0.9958,0.18,-1.22,1.53,-16.49,24.87,-27.5,0.989441,0.007202,-0.012238,-0.144108,0.0,0.0,0.0,0,0
2026-06-08 19:10:38.843,60617,L_Hip,0.092,-0.0833,0.9895,0.35,-0.15,0.8,0.0,0.0,0.0,0.992981,-0.036195,-0.053957,-0.098636,0.0,0.0,0.0,0,0
2026-06-08 19:10:38.844,60495,R_Hip,-0.0189,-0.0008,1.0208,0.19,-1.2,1.51,-17.21,24.5,-26.82,0.989441,0.007172,-0.012238,-0.144108,0.0,0.0,0.0,0,0
2026-06-08 19:10:38.846,60627,L_Hip,0.0881,-0.0828,0.9967,0.35,-0.14,0.82,14.69,34.05,-54.84,0.992981,-0.036195,-0.053957,-0.098636,0.0,0.0,0.0,0,0
2026-06-08 19:10:38.847,60467,R_Shank,0.0335,0.1864,1.0176,-0.05,-0.87,-1.58,-8.38,19.5,-23.18,0.974029,0.029695,-0.022889,0.223212,0.0,0.0,0.0,0,0
2026-06-08 19:10:38.848,60637,L_Hip,0.0867,-0.0867,0.9933,0.37,-0.12,0.83,14.69,33.41,-55.71,0.992981,-0.036195,-0.053957,-0.098636,0.0,0.0,0.0,0,0
2026-06-08 19:10:38.849,60477,R_Shank,0.036,3.2692,1.0109,-0.06,-0.89,-1.58,-9.53,18.69,-23.62,0.974029,0.029695,-0.022889,0.223243,0.0,0.0,0.0,0,0
2026-06-08 19:10:38.851,60487,R_Shank,0.0316,0.8276,1.0047,-0.05,-0.88,-1.58,0.0,0.0,0.0,0.974029,0.029695,-0.022889,0.223243,0.0,0.0,0.0,0,0
2026-06-08 19:10:38.853,60497,R_Shank,0.0321,0.1864,1.0114,-0.05,-0.89,-1.58,-8.67,18.5,-24.99,0.974029,0.029695,-0.022889,0.223243,0.0,0.0,0.0,0,0
2026-06-08 19:10:38.861,60630,L_Shank,0.0394,-0.0058,0.9748,1.74,-1.09,-0.08,5.24,27.57,-36.96,0.998016,-0.000763,-0.046937,0.041383,0.0,0.0,0.0,0,0
2026-06-08 19:10:38.864,60640,L_Shank,0.0497,-0.0156,0.9892,1.74,-1.09,-0.08,6.64,27.24,-37.59,0.998016,-0.000763,-0.046937,0.041383,0.0,0.0,0.0,0,0
2026-06-08 19:10:38.865,60650,L_Shank,0.0453,-0.0102,0.9806,1.73,-1.09,-0.07,0.0,0.0,0.0,0.998016,-0.000763,-0.046937,0.041383,0.0,0.0,0.0,0,0
2026-06-08 19:10:38.867,60660,L_Shank,0.057,-0.0058,0.9825,1.72,-1.1,-0.07,6.47,26.4,-38.04,0.998016,-0.000763,-0.046937,0.041383,0.0,0.0,0.0,0,0
2026-06-08 19:10:38.882,60512,R_Shank,0.0394,-0.9728,1.0104,-0.06,-0.88,-1.58,-8.2,19.32,-23.63,0.974029,0.029695,-0.022858,0.223243,0.0,0.0,0.0,0,0
2026-06-08 19:10:38.887,60522,R_Shank,0.035,-0.8432,1.0176,-0.07,-0.87,-1.58,0.0,0.0,0.0,0.974029,0.029695,-0.022858,0.223243,0.0,0.0,0.0,0,0
2026-06-08 19:10:38.888,60653,L_Hip,0.0793,-0.0852,1.0083,0.38,-0.14,0.8,13.79,32.25,-53.22,0.992981,-0.036195,-0.053987,-0.098636,0.0,0.0,0.0,0,0
2026-06-08 19:10:38.890,60532,R_Shank,0.0291,2.8804,1.0191,-0.05,-0.88,-1.58,-9.7,18.85,-24.37,0.974029,0.029664,-0.022858,0.223243,0.0,0.0,0.0,0,0
2026-06-08 19:10:38.890,60663,L_Hip,0.0803,-0.0843,0.9788,0.37,-0.14,0.82,0.0,0.0,0.0,0.992981,-0.036195,-0.053987,-0.098636,0.0,0.0,0.0,0,0
2026-06-08 19:10:38.893,60542,R_Shank,0.0394,-0.0724,1.0023,-0.06,-0.88,-1.58,-9.51,17.69,-24.23,0.974029,0.029695,-0.022858,0.223243,0.0,0.0,0.0,0,0
2026-06-08 19:10:38.893,60673,L_Hip,0.095,-0.0685,0.9914,0.36,-0.14,0.81,14.01,34.68,-53.96,0.992981,-0.036195,-0.053957,-0.098636,0.0,0.0,0.0,0,0
2026-06-08 19:10:38.896,60683,L_Hip,0.0916,-0.0793,1.0059,0.36,-0.12,0.82,14.68,33.73,-54.55,0.992981,-0.036195,-0.053957,-0.098636,0.0,0.0,0.0,0,0
2026-06-08 19:10:38.896,60514,R_Hip,-0.0258,0.004,1.001,0.19,-1.22,1.51,-16.12,23.4,-26.13,0.989441,0.007202,-0.012238,-0.144108,0.0,0.0,0.0,0,0
2026-06-08 19:10:38.899,60655,L_Shank,0.0428,-0.0048,0.9854,1.74,-1.09,-0.07,5.59,27.58,-37.27,0.998016,-0.000763,-0.046937,0.041383,0.0,0.0,0.0,0,0
2026-06-08 19:10:38.899,60524,R_Hip,-0.0312,0.002,0.9996,0.2,-1.2,1.53,0.0,0.0,0.0,0.989441,0.007202,-0.012238,-0.144108,0.0,0.0,0.0,0,0
2026-06-08 19:10:38.902,60665,L_Shank,0.0472,-0.0126,0.9921,1.72,-1.11,-0.08,6.64,26.91,-37.89,0.998016,-0.000763,-0.046907,0.041383,0.0,0.0,0.0,0,0
2026-06-08 19:10:38.902,60534,R_Hip,-0.0317,0.004,0.9953,0.2,-1.22,1.54,-15.75,23.77,-26.13,0.989441,0.007202,-0.012207,-0.144108,0.0,0.0,0.0,0,0
2026-06-08 19:10:38.905,60675,L_Shank,0.0453,-0.0048,0.9897,1.74,-1.09,-0.08,8.04,27.25,-37.91,0.998016,-0.000763,-0.046907,0.041383,0.0,0.0,0.0,0,0
2026-06-08 19:10:38.906,60544,R_Hip,-0.0219,-0.0018,1.0189,0.2,-1.22,1.52,-15.21,26.14,-26.31,0.989441,0.007233,-0.012207,-0.144078,0.0,0.0,0.0,0,0
2026-06-08 19:10:38.908,60685,L_Shank,0.0472,-0.0058,0.9954,1.74,-1.12,-0.07,0.0,0.0,0.0,0.998016,-0.000763,-0.046876,0.041414,0.0,0.0,0.0,0,0
2026-06-08 19:10:38.909,60537,R_Ankle,0.0297,-0.0151,0.9947,0.89,-1.87,-0.25,-1.94,28.26,-31.43,0.989166,0.044893,-0.084689,0.111087,0.0,0.0,0.0,0,0
2026-06-08 19:10:38.911,60665,L_Ankle,0.0575,0.0124,0.9909,-0.7,-0.38,-0.83,-19.16,14.53,-47.46,0.968963,0.026612,-0.034761,0.243202,0.0,0.0,0.0,0,0
2026-06-08 19:10:38.912,60547,R_Ankle,0.0312,-0.0275,0.9986,0.88,-1.85,-0.25,-2.29,27.3,-31.42,0.989166,0.044862,-0.084689,0.111087,0.0,0.0,0.0,0,0
2026-06-08 19:10:38.913,60675,L_Ankle,0.0565,0.0183,1.0053,-0.7,-0.38,-0.85,0.0,0.0,0.0,0.968963,0.026612,-0.034791,0.243202,0.0,0.0,0.0,0,0
2026-06-08 19:10:38.915,60557,R_Ankle,0.0292,-0.0205,1.0024,0.9,-1.87,-0.25,-2.12,27.79,-31.88,0.989166,0.044862,-0.084689,0.111118,0.0,0.0,0.0,0,0
2026-06-08 19:10:38.916,60685,L_Ankle,0.0506,0.01,0.9794,-0.72,-0.41,-0.85,-20.53,14.55,-46.13,0.968963,0.026643,-0.034791,0.243202,0.0,0.0,0.0,0,0
2026-06-08 19:10:38.918,60567,R_Ankle,0.0238,-0.0161,0.9952,0.9,-1.87,-0.28,0.0,0.0,0.0,0.989166,0.044862,-0.084689,0.111087,0.0,0.0,0.0,0,0
2026-06-08 19:10:38.919,60695,L_Ankle,0.0599,0.0129,0.9822,-0.7,-0.4,-0.84,-19.3,14.0,-46.28,0.968963,0.026643,-0.034761,0.243202,0.0,0.0,0.0,0,0
2026-06-08 19:10:38.921,60539,R_Hip,-0.0238,0.0054,0.9909,0.21,-1.22,1.51,-17.04,24.69,-28.7,0.989441,0.007263,-0.012207,-0.144078,0.0,0.0,0.0,0,0
2026-06-08 19:10:38.923,60675,L_Hip,0.0901,-0.0862,0.9846,0.37,-0.13,0.82,13.15,32.89,-54.96,0.992981,-0.036225,-0.053957,-0.098636,0.0,0.0,0.0,0,0
2026-06-08 19:10:38.924,60549,R_Hip,-0.0258,0.0045,0.9799,0.18,-1.21,1.53,-16.67,24.68,-27.33,0.989441,0.007263,-0.012207,-0.144078,0.0,0.0,0.0,0,0
2026-06-08 19:10:38.926,60685,L_Hip,0.0901,-0.0843,1.0006,0.36,-0.14,0.81,13.97,32.42,-53.66,0.992981,-0.036225,-0.053957,-0.098636,0.0,0.0,0.0,0,0
2026-06-08 19:10:38.927,60559,R_Hip,-0.0145,0.003,0.9938,0.19,-1.21,1.52,0.0,0.0,0.0,0.989441,0.007263,-0.012207,-0.144078,0.0,0.0,0.0,0,0
2026-06-08 19:10:38.929,60695,L_Hip,0.092,-0.0813,0.9924,0.38,-0.13,0.82,0.0,0.0,0.0,0.992981,-0.036225,-0.053957,-0.098636,0.0,0.0,0.0,0,0
2026-06-08 19:10:38.930,60569,R_Hip,-0.0332,0.002,1.0131,0.19,-1.2,1.51,-17.04,25.42,-27.68,0.989441,0.007263,-0.012207,-0.144078,0.0,0.0,0.0,0,0
2026-06-08 19:10:38.931,60705,L_Hip,0.0984,-0.0862,0.9846,0.36,-0.14,0.82,13.83,33.23,-54.97,0.992981,-0.036225,-0.053926,-0.098636,0.0,0.0,0.0,0,0
2026-06-08 19:10:38.934,60559,R_Ankle,0.0199,-0.0285,0.9986,0.9,-1.87,-0.25,-1.94,28.26,-31.12,0.989166,0.044862,-0.084689,0.111087,0.0,0.0,0.0,0,0
2026-06-08 19:10:38.934,60697,L_Hip,0.0891,-0.0764,0.9958,0.36,-0.13,0.8,15.16,32.61,-54.41,0.992981,-0.036225,-0.053926,-0.098636,0.0,0.0,0.0,0,0
2026-06-08 19:10:38.937,60569,R_Ankle,0.0258,-0.0166,1.0048,0.9,-1.87,-0.25,-1.94,28.58,-31.74,0.989166,0.044893,-0.084689,0.111087,0.0,0.0,0.0,0,0
2026-06-08 19:10:38.937,60707,L_Hip,0.0867,-0.0877,0.9846,0.35,-0.13,0.81,13.67,33.71,-54.54,0.992981,-0.036195,-0.053926,-0.098636,0.0,0.0,0.0,0,0
2026-06-08 19:10:38.940,60717,L_Hip,0.0906,-0.0813,0.9987,0.36,-0.15,0.83,0.0,0.0,0.0,0.992981,-0.036225,-0.053926,-0.098636,0.0,0.0,0.0,0,0
2026-06-08 19:10:38.940,60579,R_Ankle,0.0204,-0.029,0.9971,0.89,-1.87,-0.25,-2.29,28.27,-32.35,0.989166,0.044862,-0.084689,0.111118,0.0,0.0,0.0,0,0
2026-06-08 19:10:38.942,60727,L_Hip,0.0862,-0.0744,1.0054,0.36,-0.13,0.81,13.47,32.9,-53.51,0.992981,-0.036225,-0.053926,-0.098636,0.0,0.0,0.0,0,0
2026-06-08 19:10:38.943,60589,R_Ankle,0.0302,-0.0141,0.9909,0.9,-1.87,-0.25,0.0,0.0,0.0,0.989166,0.044832,-0.084689,0.111118,0.0,0.0,0.0,0,0
2026-06-08 19:10:38.945,60704,L_Shank,0.0585,-0.0121,0.9945,1.74,-1.1,-0.06,7.34,26.57,-37.59,0.998016,-0.000793,-0.046876,0.041414,0.0,0.0,0.0,0,0
2026-06-08 19:10:38.946,60564,R_Hip,-0.0159,0.0035,1.0073,0.2,-1.22,1.53,-15.94,26.14,-26.65,0.989441,0.007294,-0.012207,-0.144078,0.0,0.0,0.0,0,0
2026-06-08 19:10:38.948,60714,L_Shank,0.0463,0.0005,0.9935,1.74,-1.11,-0.09,5.95,27.93,-37.9,0.998016,-0.000763,-0.046907,0.041414,0.0,0.0,0.0,0,0
2026-06-08 19:10:38.949,60574,R_Hip,-0.0209,0.0074,1.0054,0.19,-1.21,1.52,0.0,0.0,0.0,0.989441,0.007294,-0.012238,-0.144078,0.0,0.0,0.0,0,0
2026-06-08 19:10:38.951,60724,L_Shank,0.0487,-0.0107,0.9815,1.74,-1.09,-0.08,6.3,26.57,-38.2,0.998016,-0.000763,-0.046907,0.041414,0.0,0.0,0.0,0,0
2026-06-08 19:10:38.952,60584,R_Hip,-0.0219,0.001,0.9876,0.19,-1.22,1.51,-15.03,24.5,-27.16,0.989441,0.007294,-0.012238,-0.144078,0.0,0.0,0.0,0,0
2026-06-08 19:10:38.954,60734,L_Shank,0.0423,-0.0048,0.9748,1.74,-1.09,-0.06,7.0,25.89,-38.2,0.998016,-0.000793,-0.046876,0.041414,0.0,0.0,0.0,0,0
2026-06-08 19:10:38.955,60594,R_Hip,-0.0268,-0.0018,1.0044,0.18,-1.2,1.51,-15.58,23.96,-29.04,0.989441,0.007263,-0.012207,-0.144078,0.0,0.0,0.0,0,0
2026-06-08 19:10:38.957,60709,L_Ankle,0.0541,0.0124,0.9803,-0.69,-0.4,-0.84,-20.22,15.61,-47.14,0.968963,0.026643,-0.034761,0.243202,0.0,0.0,0.0,0,0
2026-06-08 19:10:38.958,60580,R_Shank,0.0321,-1.4844,0.9893,-0.07,-0.88,-1.59,-8.68,18.17,-23.79,0.974029,0.029725,-0.022858,0.223243,0.0,0.0,0.0,0,0
2026-06-08 19:10:38.959,60719,L_Ankle,0.0585,0.0163,0.9904,-0.69,-0.39,-0.85,0.0,0.0,0.0,0.968963,0.026643,-0.034791,0.243202,0.0,0.0,0.0,0,0
2026-06-08 19:10:38.961,60590,R_Shank,0.0394,-1.7432,1.0032,-0.06,-0.87,-1.6,0.0,0.0,0.0,0.974029,0.029695,-0.022828,0.223243,0.0,0.0,0.0,0,0
2026-06-08 19:10:38.962,60729,L_Ankle,0.0541,0.0144,0.9981,-0.7,-0.4,-0.84,-20.2,14.55,-47.14,0.968963,0.026612,-0.034791,0.243202,0.0,0.0,0.0,0,0
2026-06-08 19:10:38.964,60600,R_Shank,0.0311,-1.7432,1.0176,-0.06,-0.9,-1.59,-8.65,17.18,-24.4,0.974029,0.029695,-0.022828,0.223243,0.0,0.0,0.0,0,0
2026-06-08 19:10:38.965,60739,L_Ankle,0.0516,0.0173,0.9842,-0.69,-0.4,-0.84,-20.56,15.26,-46.8,0.968963,0.026643,-0.034822,0.243202,0.0,0.0,0.0,0,0
2026-06-08 19:10:38.967,60610,R_Shank,0.0232,-0.8432,1.0114,-0.06,-0.87,-1.59,-9.53,18.03,-23.33,0.974029,0.029695,-0.022858,0.223243,0.0,0.0,0.0,0,0
2026-06-08 19:10:38.969,60720,L_Hip,0.097,-0.0838,0.9958,0.36,-0.12,0.8,14.99,32.77,-54.26,0.992981,-0.036225,-0.053926,-0.098636,0.0,0.0,0.0,0,0
2026-06-08 19:10:38.970,60581,R_Ankle,0.0346,-0.0156,0.9876,0.9,-1.87,-0.26,-2.81,28.11,-32.51,0.989166,0.044832,-0.084689,0.111118,0.0,0.0,0.0,0,0
2026-06-08 19:10:38.971,60730,L_Hip,0.0911,-0.0857,1.0088,0.36,-0.12,0.83,13.82,32.91,-54.68,0.992981,-0.036256,-0.053957,-0.098605,0.0,0.0,0.0,0,0
2026-06-08 19:10:38.973,60591,R_Ankle,0.0253,-0.0225,1.0115,0.89,-1.87,-0.27,-2.11,29.06,-31.9,0.989166,0.044832,-0.084658,0.111118,0.0,0.0,0.0,0,0
2026-06-08 19:10:38.974,60740,L_Hip,0.0945,-0.0759,0.9982,0.36,-0.14,0.81,0.0,0.0,0.0,0.992981,-0.036225,-0.053957,-0.098636,0.0,0.0,0.0,0,0
2026-06-08 19:10:38.976,60601,R_Ankle,0.0297,-0.0156,1.0034,0.9,-1.86,-0.24,-1.59,27.93,-29.88,0.989166,0.044801,-0.084658,0.111118,0.0,0.0,0.0,0,0
2026-06-08 19:10:38.977,60750,L_Hip,0.0965,-0.0769,0.9943,0.38,-0.13,0.83,14.0,33.71,-53.96,0.992981,-0.036256,-0.053957,-0.098636,0.0,0.0,0.0,0,0
2026-06-08 19:10:38.979,60611,R_Ankle,0.0263,-0.021,1.0101,0.9,-1.86,-0.25,0.0,0.0,0.0,0.989166,0.044832,-0.084658,0.111118,0.0,0.0,0.0,0,0
2026-06-08 19:10:38.980,60730,L_Shank,0.0516,-0.0038,0.9902,1.73,-1.1,-0.09,5.07,27.08,-37.73,0.998016,-0.000763,-0.046876,0.041414,0.0,0.0,0.0,0,0
2026-06-08 19:10:38.982,60589,R_Hip,-0.0204,0.0054,0.9919,0.18,-1.21,1.51,-17.4,23.96,-28.36,0.989441,0.007263,-0.012207,-0.144078,0.0,0.0,0.0,0,0
2026-06-08 19:10:38.983,60740,L_Shank,0.0458,-0.0082,0.995,1.74,-1.1,-0.07,0.0,0.0,0.0,0.998016,-0.000763,-0.046876,0.041414,0.0,0.0,0.0,0,0
2026-06-08 19:10:38.985,60750,L_Shank,0.0507,-0.0014,0.9916,1.73,-1.09,-0.08,5.59,27.24,-37.27,0.998016,-0.000793,-0.046876,0.041414,0.0,0.0,0.0,0,0
2026-06-08 19:10:38.985,60599,R_Hip,-0.0199,0.0045,1.0044,0.19,-1.2,1.51,-16.85,23.04,-26.13,0.989441,0.007263,-0.012207,-0.144078,0.0,0.0,0.0,0,0
2026-06-08 19:10:38.988,60760,L_Shank,0.0497,-0.0082,0.9849,1.72,-1.11,-0.08,6.45,27.06,-36.49,0.998016,-0.000763,-0.046876,0.041414,0.0,0.0,0.0,0,0
2026-06-08 19:10:38.988,60609,R_Hip,-0.0278,0.0069,1.015,0.19,-1.22,1.51,-15.57,22.85,-26.3,0.989441,0.007263,-0.012238,-0.144078,0.0,0.0,0.0,0,0
2026-06-08 19:10:38.991,60732,L_Ankle,0.058,0.0163,0.9818,-0.68,-0.39,-0.84,-20.05,16.14,-46.96,0.968963,0.026673,-0.034822,0.243202,0.0,0.0,0.0,0,0
2026-06-08 19:10:38.991,60619,R_Hip,-0.0233,0.0059,1.0198,0.17,-1.21,1.52,-14.11,24.31,-25.96,0.989441,0.007294,-0.012238,-0.144078,0.0,0.0,0.0,0,0
2026-06-08 19:10:38.993,60742,L_Ankle,0.0526,0.0163,1.001,-0.69,-0.4,-0.84,0.0,0.0,0.0,0.968963,0.026673,-0.034822,0.243202,0.0,0.0,0.0,0,0
2026-06-08 19:10:38.994,60602,R_Shank,0.0345,0.9572,1.0018,-0.06,-0.87,-1.6,-8.35,18.5,-23.79,0.974029,0.029695,-0.022828,0.223243,0.0,0.0,0.0,0,0
2026-06-08 19:10:38.996,60752,L_Ankle,0.057,0.0109,0.988,-0.7,-0.4,-0.83,-20.57,14.9,-47.83,0.968963,0.026704,-0.034791,0.243202,0.0,0.0,0.0,0,0
2026-06-08 19:10:38.997,60612,R_Shank,0.0321,-1.6136,1.0277,-0.06,-0.89,-1.58,0.0,0.0,0.0,0.974029,0.029695,-0.022828,0.223212,0.0,0.0,0.0,0,0
2026-06-08 19:10:38.999,60762,L_Ankle,0.0644,0.0036,0.9851,-0.7,-0.39,-0.84,-22.3,14.58,-47.18,0.968963,0.026734,-0.034822,0.243202,0.0,0.0,0.0,0,0
2026-06-08 19:10:39.000,60622,R_Shank,0.0267,1.4688,1.0128,-0.06,-0.9,-1.58,-8.17,18.33,-24.24,0.974029,0.029664,-0.022828,0.223212,0.0,0.0,0.0,0,0
2026-06-08 19:10:39.002,60742,L_Hip,0.0901,-0.0725,0.9929,0.36,-0.12,0.81,14.83,32.6,-54.4,0.992981,-0.036287,-0.053957,-0.098636,0.0,0.0,0.0,0,0
2026-06-08 19:10:39.003,60632,R_Shank,0.0316,-1.8728,1.0191,-0.06,-0.9,-1.58,-9.18,18.34,-24.83,0.974029,0.029664,-0.022797,0.223212,0.0,0.0,0.0,0,0
2026-06-08 19:10:39.005,60752,L_Hip,0.0935,-0.0798,0.9904,0.38,-0.12,0.82,13.84,33.87,-54.68,0.992981,-0.036287,-0.053957,-0.098636,0.0,0.0,0.0,0,0
2026-06-08 19:10:39.006,60604,R_Ankle,0.0336,-0.0047,1.0038,0.9,-1.86,-0.25,-0.75,28.11,-31.26,0.989166,0.044862,-0.084628,0.111118,0.0,0.0,0.0,0,0
2026-06-08 19:10:39.008,60762,L_Hip,0.0935,-0.0769,1.0103,0.37,-0.12,0.83,0.0,0.0,0.0,0.992981,-0.036287,-0.053957,-0.098636,0.0,0.0,0.0,0,0
2026-06-08 19:10:39.009,60614,R_Ankle,0.0273,-0.0181,1.0014,0.87,-1.87,-0.25,-1.94,28.26,-31.43,0.989166,0.044832,-0.084628,0.111118,0.0,0.0,0.0,0,0
2026-06-08 19:10:39.011,60772,L_Hip,0.094,-0.0739,1.004,0.38,-0.12,0.83,13.68,33.39,-55.41,0.992981,-0.036317,-0.053957,-0.098636,0.0,0.0,0.0,0,0
2026-06-08 19:10:39.012,60624,R_Ankle,0.0248,-0.0185,1.0019,0.89,-1.86,-0.25,-2.79,28.09,-30.66,0.989166,0.044862,-0.084628,0.111118,0.0,0.0,0.0,0,0
2026-06-08 19:10:39.014,60755,L_Shank,0.0487,-0.0126,0.9892,1.74,-1.1,-0.07,5.59,27.58,-37.27,0.998016,-0.000763,-0.046876,0.041414,0.0,0.0,0.0,0,0
2026-06-08 19:10:39.015,60634,R_Ankle,0.0322,-0.0181,0.988,0.9,-1.87,-0.26,0.0,0.0,0.0,0.989166,0.044862,-0.084628,0.111118,0.0,0.0,0.0,0,0
2026-06-08 19:10:39.016,60765,L_Shank,0.0516,-0.0014,0.9873,1.73,-1.11,-0.08,0.0,0.0,0.0,0.998016,-0.000763,-0.046876,0.041414,0.0,0.0,0.0,0,0
2026-06-08 19:10:39.018,60625,R_Shank,0.0291,-0.7136,1.0114,-0.05,-0.89,-1.58,-8.68,18.18,-23.48,0.974029,0.029695,-0.022797,0.223212,0.0,0.0,0.0,0,0
2026-06-08 19:10:39.019,60775,L_Shank,0.058,-0.0087,0.9978,1.74,-1.09,-0.08,6.12,27.08,-38.36,0.998016,-0.000793,-0.046876,0.041414,0.0,0.0,0.0,0,0
2026-06-08 19:10:39.020,60635,R_Shank,0.0306,2.3688,1.034,-0.04,-0.9,-1.58,0.0,0.0,0.0,0.974029,0.029725,-0.022797,0.223243,0.0,0.0,0.0,0,0
2026-06-08 19:10:39.022,60785,L_Shank,0.0492,-0.0028,0.982,1.73,-1.09,-0.08,6.29,25.89,-37.57,0.998016,-0.000763,-0.046876,0.041414,0.0,0.0,0.0,0,0
2026-06-08 19:10:39.023,60645,R_Shank,0.038,0.5684,1.0013,-0.06,-0.88,-1.58,-10.86,17.72,-23.92,0.974029,0.029725,-0.022797,0.223243,0.0,0.0,0.0,0,0
2026-06-08 19:10:39.024,60777,L_Ankle,0.0575,0.0192,1.0067,-0.7,-0.39,-0.83,-19.86,15.25,-47.13,0.968963,0.026734,-0.034822,0.243202,0.0,0.0,0.0,0,0
2026-06-08 19:10:39.026,60655,R_Shank,0.035,0.698,1.0258,-0.06,-0.9,-1.57,-10.05,18.87,-23.16,0.974029,0.029725,-0.022797,0.223243,0.0,0.0,0.0,0,0
2026-06-08 19:10:39.028,60787,L_Ankle,0.0545,0.0114,0.9846,-0.69,-0.38,-0.84,-20.37,14.73,-46.63,0.968963,0.026734,-0.034852,0.243202,0.0,0.0,0.0,0,0
2026-06-08 19:10:39.029,60639,R_Hip,-0.0243,0.0054,0.9832,0.2,-1.22,1.51,-15.57,24.68,-26.99,0.989441,0.007294,-0.012238,-0.144078,0.0,0.0,0.0,0,0
2026-06-08 19:10:39.030,60797,L_Ankle,0.059,0.0202,0.9866,-0.71,-0.39,-0.84,0.0,0.0,0.0,0.968963,0.026734,-0.034822,0.243202,0.0,0.0,0.0,0,0
2026-06-08 19:10:39.032,60649,R_Hip,-0.0169,0.0006,1.0049,0.19,-1.21,1.51,-15.58,24.32,-27.67,0.989441,0.007294,-0.012238,-0.144078,0.0,0.0,0.0,0,0
2026-06-08 19:10:39.033,60807,L_Ankle,0.0501,0.009,0.9981,-0.7,-0.39,-0.85,-19.49,14.89,-46.45,0.968963,0.026765,-0.034822,0.243202,0.0,0.0,0.0,0,0
2026-06-08 19:10:39.035,60659,R_Hip,-0.0204,0.0074,0.9929,0.18,-1.2,1.51,-17.95,24.14,-28.53,0.989441,0.007294,-0.012238,-0.144078,0.0,0.0,0.0,0,0
2026-06-08 19:10:39.036,60800,L_Ankle,0.0526,0.0153,0.9808,-0.7,-0.38,-0.86,-20.38,15.08,-46.63,0.968963,0.026765,-0.034822,0.243202,0.0,0.0,0.0,0,0
2026-06-08 19:10:39.038,60669,R_Hip,-0.0293,-0.0042,1.0136,0.19,-1.21,1.52,-16.85,24.5,-26.82,0.989441,0.007294,-0.012207,-0.144078,0.0,0.0,0.0,0,0
2026-06-08 19:10:39.039,60810,L_Ankle,0.0501,0.0144,0.9851,-0.71,-0.39,-0.84,-20.0,15.08,-45.26,0.968963,0.026765,-0.034822,0.243202,0.0,0.0,0.0,0,0
2026-06-08 19:10:39.041,60649,R_Ankle,0.0214,-0.0161,1.0091,0.9,-1.88,-0.25,-1.62,27.33,-32.95,0.989166,0.044862,-0.084658,0.111118,0.0,0.0,0.0,0,0
2026-06-08 19:10:39.042,60820,L_Ankle,0.059,0.0056,0.9851,-0.71,-0.39,-0.83,0.0,0.0,0.0,0.968963,0.026765,-0.034852,0.243202,0.0,0.0,0.0,0,0
2026-06-08 19:10:39.044,60659,R_Ankle,0.0189,-0.02,1.0081,0.9,-1.85,-0.25,-2.63,27.94,-31.74,0.989166,0.044862,-0.084658,0.111087,0.0,0.0,0.0,0,0
2026-06-08 19:10:39.045,60830,L_Ankle,0.0501,0.0178,0.9923,-0.7,-0.38,-0.85,-20.55,14.55,-47.15,0.968963,0.026765,-0.034852,0.243202,0.0,0.0,0.0,0,0
2026-06-08 19:10:39.048,60669,R_Ankle,0.0307,-0.021,0.9995,0.9,-1.86,-0.25,-1.78,27.47,-31.26,0.989166,0.044862,-0.084628,0.111087,0.0,0.0,0.0,0,0
2026-06-08 19:10:39.048,60805,L_Shank,0.0423,-0.0092,0.9878,1.74,-1.09,-0.08,5.41,26.38,-36.79,0.998016,-0.000763,-0.046876,0.041414,0.0,0.0,0.0,0,0
2026-06-08 19:10:39.050,60815,L_Shank,0.0477,-0.0048,0.9724,1.74,-1.09,-0.08,0.0,0.0,0.0,0.998016,-0.000763,-0.046846,0.041414,0.0,0.0,0.0,0,0
2026-06-08 19:10:39.051,60679,R_Ankle,0.0243,-0.0176,0.9952,0.9,-1.87,-0.26,-2.43,28.39,-29.43,0.989166,0.044862,-0.084628,0.111118,0.0,0.0,0.0,0,0
2026-06-08 19:10:39.053,60825,L_Shank,0.0433,-0.0082,0.9935,1.73,-1.12,-0.09,5.94,27.58,-37.27,0.998016,-0.000763,-0.046846,0.041414,0.0,0.0,0.0,0,0
2026-06-08 19:10:39.054,60670,R_Shank,0.0384,-0.3316,1.0128,-0.05,-0.89,-1.58,-9.36,18.19,-23.48,0.974029,0.029725,-0.022797,0.223243,0.0,0.0,0.0,0,0
2026-06-08 19:10:39.056,60680,R_Shank,0.0355,0.8276,1.0138,-0.04,-0.89,-1.58,0.0,0.0,0.0,0.974029,0.029725,-0.022797,0.223273,0.0,0.0,0.0,0,0
2026-06-08 19:10:39.057,60835,L_Shank,0.0555,-0.0019,0.994,1.74,-1.12,-0.07,6.64,26.9,-37.58,0.998016,-0.000763,-0.046846,0.041414,0.0,0.0,0.0,0,0
2026-06-08 19:10:39.059,60690,R_Shank,0.0394,0.9572,1.0061,-0.04,-0.88,-1.59,-9.2,19.66,-24.82,0.974029,0.029725,-0.022797,0.223273,0.0,0.0,0.0,0,0
2026-06-08 19:10:39.060,60810,L_Hip,0.0906,-0.0857,0.9841,0.36,-0.13,0.81,14.81,32.28,-53.82,0.992981,-0.036317,-0.053987,-0.098636,0.0,0.0,0.0,0,0
2026-06-08 19:10:39.062,60700,R_Shank,0.0286,-0.7136,1.0196,-0.04,-0.87,-1.58,-8.34,18.17,-24.09,0.974029,0.029725,-0.022797,0.223273,0.0,0.0,0.0,0,0
2026-06-08 19:10:39.063,60820,L_Hip,0.094,-0.0877,0.9938,0.35,-0.12,0.8,14.98,32.12,-53.97,0.992981,-0.036317,-0.053987,-0.098636,0.0,0.0,0.0,0,0
2026-06-08 19:10:39.065,60830,L_Hip,0.0896,-0.0715,0.9866,0.36,-0.12,0.81,14.33,33.4,-54.25,0.992981,-0.036317,-0.053987,-0.098636,0.0,0.0,0.0,0,0
2026-06-08 19:10:39.066,60689,R_Hip,-0.0204,0.0049,1.0001,0.19,-1.21,1.52,-16.67,23.95,-27.33,0.989441,0.007294,-0.012207,-0.144078,0.0,0.0,0.0,0,0
2026-06-08 19:10:39.068,60840,L_Hip,0.0891,-0.071,1.0079,0.37,-0.14,0.82,0.0,0.0,0.0,0.992981,-0.036287,-0.053987,-0.098605,0.0,0.0,0.0,0,0
2026-06-08 19:10:39.069,60699,R_Hip,-0.0293,0.0045,0.9924,0.19,-1.2,1.53,-16.67,25.78,-28.02,0.989441,0.007294,-0.012207,-0.144047,0.0,0.0,0.0,0,0
2026-06-08 19:10:39.071,60832,L_Hip,0.092,-0.0793,0.9919,0.35,-0.12,0.8,13.82,32.9,-54.39,0.992981,-0.036317,-0.053987,-0.098605,0.0,0.0,0.0,0,0
2026-06-08 19:10:39.072,60709,R_Hip,-0.0253,0.0103,1.001,0.18,-1.21,1.52,-16.13,25.23,-28.53,0.989441,0.007294,-0.012207,-0.144047,0.0,0.0,0.0,0,0
2026-06-08 19:10:39.074,60842,L_Hip,0.0965,-0.0852,0.9933,0.37,-0.12,0.82,14.66,33.08,-53.97,0.992981,-0.036287,-0.053987,-0.098605,0.0,0.0,0.0,0,0
2026-06-08 19:10:39.075,60719,R_Hip,-0.0214,0.0079,1.0087,0.19,-1.22,1.51,-17.03,23.58,-24.94,0.989441,0.007324,-0.012207,-0.144047,0.0,0.0,0.0,0,0
2026-06-08 19:10:39.077,60852,L_Hip,0.0906,-0.0779,0.9924,0.36,-0.14,0.82,14.65,32.44,-53.97,0.992981,-0.036287,-0.053987,-0.098605,0.0,0.0,0.0,0,0
2026-06-08 19:10:39.078,60692,R_Shank,0.0335,2.3688,0.9893,-0.05,-0.87,-1.58,-9.88,19.35,-23.92,0.974029,0.029725,-0.022828,0.223273,0.0,0.0,0.0,0,0
2026-06-08 19:10:39.080,60862,L_Hip,0.0847,-0.0784,1.0074,0.36,-0.12,0.81,0.0,0.0,0.0,0.992981,-0.036317,-0.053987,-0.098605,0.0,0.0,0.0,0,0
2026-06-08 19:10:39.081,60702,R_Shank,0.0247,-2.3844,1.0172,-0.07,-0.88,-1.58,0.0,0.0,0.0,0.974029,0.029725,-0.022828,0.223273,0.0,0.0,0.0,0,0
2026-06-08 19:10:39.083,60845,L_Ankle,0.0545,0.0197,1.0038,-0.68,-0.4,-0.83,-20.22,14.9,-47.82,0.968963,0.026765,-0.034822,0.243202,0.0,0.0,0.0,0,0
2026-06-08 19:10:39.084,60712,R_Shank,0.0311,2.628,1.0047,-0.03,-0.87,-1.58,-9.53,18.35,-23.93,0.974029,0.029695,-0.022828,0.223273,0.0,0.0,0.0,0,0
2026-06-08 19:10:39.086,60855,L_Ankle,0.0487,0.0168,1.0024,-0.7,-0.4,-0.84,-19.86,13.83,-48.5,0.968963,0.026765,-0.034822,0.243202,0.0,0.0,0.0,0,0
2026-06-08 19:10:39.087,60722,R_Shank,0.0414,-0.7136,1.0138,-0.05,-0.87,-1.58,0.0,0.0,0.0,0.974029,0.029695,-0.022797,0.223273,0.0,0.0,0.0,0,0
2026-06-08 19:10:39.089,60865,L_Ankle,0.055,0.0149,0.9712,-0.7,-0.39,-0.85,0.0,0.0,0.0,0.968963,0.026765,-0.034852,0.243202,0.0,0.0,0.0,0,0
2026-06-08 19:10:39.090,60693,R_Ankle,0.0253,-0.0106,1.0019,0.88,-1.87,-0.26,-3.12,29.04,-31.29,0.989166,0.044862,-0.084628,0.111087,0.0,0.0,0.0,0,0
2026-06-08 19:10:39.092,60875,L_Ankle,0.0536,0.0163,0.9784,-0.7,-0.4,-0.85,-20.37,14.37,-46.97,0.968963,0.026795,-0.034852,0.243202,0.0,0.0,0.0,0,0
2026-06-08 19:10:39.093,60703,R_Ankle,0.0248,-0.0141,1.0029,0.9,-1.87,-0.25,-2.95,28.88,-30.83,0.989166,0.044893,-0.084658,0.111087,0.0,0.0,0.0,0,0
2026-06-08 19:10:39.096,60713,R_Ankle,0.0361,-0.0185,1.0,0.89,-1.87,-0.25,-2.61,28.88,-30.82,0.989166,0.044893,-0.084628,0.111118,0.0,0.0,0.0,0,0
2026-06-08 19:10:39.098,60723,R_Ankle,0.0302,-0.0185,1.0067,0.89,-1.87,-0.25,-2.11,28.42,-31.27,0.989166,0.044893,-0.084658,0.111118,0.0,0.0,0.0,0,0
2026-06-08 19:10:39.100,60714,R_Hip,-0.0233,-0.0003,1.001,0.18,-1.2,1.51,-16.67,23.95,-27.67,0.989441,0.007294,-0.012177,-0.144078,0.0,0.0,0.0,0,0
2026-06-08 19:10:39.102,60724,R_Hip,-0.0179,0.0064,0.9962,0.18,-1.2,1.51,-16.67,23.95,-27.33,0.989441,0.007263,-0.012177,-0.144078,0.0,0.0,0.0,0,0
2026-06-08 19:10:39.104,60734,R_Hip,-0.0253,0.003,0.9938,0.19,-1.2,1.52,-16.49,25.23,-26.82,0.989441,0.007294,-0.012177,-0.144078,0.0,0.0,0.0,0,0
2026-06-08 19:10:39.106,60744,R_Hip,-0.0159,0.0113,0.9905,0.19,-1.22,1.5,-16.3,23.95,-26.3,0.989441,0.007294,-0.012177,-0.144078,0.0,0.0,0.0,0,0
2026-06-08 19:10:39.109,60716,R_Ankle,0.0356,-0.024,1.0029,0.9,-1.86,-0.24,-1.77,28.1,-30.96,0.989166,0.044893,-0.084689,0.111118,0.0,0.0,0.0,0,0
2026-06-08 19:10:39.110,60877,L_Hip,0.0867,-0.0739,0.9832,0.36,-0.12,0.81,13.31,32.73,-54.53,0.992981,-0.036287,-0.053987,-0.098605,0.0,0.0,0.0,0,0
2026-06-08 19:10:39.112,60726,R_Ankle,0.0346,-0.0057,1.0053,0.88,-1.85,-0.25,-1.24,27.93,-29.87,0.989166,0.044923,-0.084689,0.111118,0.0,0.0,0.0,0,0
2026-06-08 19:10:39.113,60887,L_Hip,0.0822,-0.0754,0.9904,0.37,-0.13,0.82,14.33,33.08,-54.54,0.992981,-0.036287,-0.053987,-0.098605,0.0,0.0,0.0,0,0
2026-06-08 19:10:39.115,60736,R_Ankle,0.0189,-0.023,1.0091,0.89,-1.86,-0.25,-3.47,28.73,-31.6,0.989166,0.044923,-0.084719,0.111118,0.0,0.0,0.0,0,0
2026-06-08 19:10:39.116,60897,L_Hip,0.0925,-0.0774,0.9846,0.35,-0.12,0.82,13.83,33.55,-54.39,0.992981,-0.036287,-0.053987,-0.098605,0.0,0.0,0.0,0,0
2026-06-08 19:10:39.119,60907,L_Hip,0.0935,-0.0838,0.9992,0.37,-0.14,0.83,15.15,32.28,-54.12,0.992981,-0.036287,-0.053987,-0.098605,0.0,0.0,0.0,0,0
2026-06-08 19:10:39.119,60746,R_Ankle,0.0273,-0.0151,0.9995,0.9,-1.86,-0.25,-1.43,29.38,-31.9,0.989166,0.044923,-0.084689,0.111118,0.0,0.0,0.0,0,0
2026-06-08 19:10:39.122,60880,L_Shank,0.057,-0.0048,0.9849,1.74,-1.09,-0.09,6.11,27.41,-37.12,0.998016,-0.000763,-0.046846,0.041414,0.0,0.0,0.0,0,0
2026-06-08 19:10:39.122,60737,R_Shank,0.0335,1.5984,1.0037,-0.06,-0.89,-1.58,-9.52,18.03,-23.63,0.974029,0.029695,-0.022797,0.223273,0.0,0.0,0.0,0,0
2026-06-08 19:10:39.124,60890,L_Shank,0.0365,-0.0048,0.9911,1.74,-1.09,-0.08,0.0,0.0,0.0,0.998016,-0.000763,-0.046846,0.041414,0.0,0.0,0.0,0,0
2026-06-08 19:10:39.125,60747,R_Shank,0.0291,-2.3844,1.0114,-0.06,-0.88,-1.58,-9.69,18.19,-24.08,0.974029,0.029695,-0.022767,0.223273,0.0,0.0,0.0,0,0
2026-06-08 19:10:39.127,60900,L_Shank,0.0433,-0.0048,0.9854,1.74,-1.1,-0.08,5.6,27.59,-37.89,0.998016,-0.000732,-0.046846,0.041414,0.0,0.0,0.0,0,0
2026-06-08 19:10:39.128,60757,R_Shank,0.0301,-1.8728,1.0109,-0.06,-0.86,-1.59,0.0,0.0,0.0,0.974029,0.029725,-0.022767,0.223273,0.0,0.0,0.0,0,0
2026-06-08 19:10:39.130,60910,L_Shank,0.0594,-0.0087,0.9868,1.74,-1.1,-0.07,5.07,26.73,-37.41,0.998016,-0.000732,-0.046846,0.041414,0.0,0.0,0.0,0,0
2026-06-08 19:10:39.132,60767,R_Shank,0.0365,0.0572,1.0157,-0.06,-0.89,-1.59,-9.55,20.01,-24.22,0.974029,0.029695,-0.022736,0.223273,0.0,0.0,0.0,0,0
2026-06-08 19:10:39.133,60890,L_Ankle,0.0487,0.0149,0.9885,-0.69,-0.39,-0.85,-19.3,15.07,-45.25,0.968963,0.026795,-0.034822,0.243202,0.0,0.0,0.0,0,0
2026-06-08 19:10:39.134,60739,R_Hip,-0.015,0.0045,0.9967,0.18,-1.2,1.51,-17.76,26.14,-25.97,0.989441,0.007294,-0.012177,-0.144078,0.0,0.0,0.0,0,0
2026-06-08 19:10:39.136,60900,L_Ankle,0.0536,0.0105,0.9822,-0.7,-0.41,-0.85,-20.91,15.62,-46.47,0.968963,0.026826,-0.034852,0.243202,0.0,0.0,0.0,0,0
2026-06-08 19:10:39.137,60749,R_Hip,-0.0214,0.0035,0.9938,0.19,-1.21,1.51,-15.21,25.05,-27.67,0.989441,0.007294,-0.012177,-0.144078,0.0,0.0,0.0,0,0
2026-06-08 19:10:39.139,60910,L_Ankle,0.0516,0.0075,0.9808,-0.7,-0.39,-0.83,0.0,0.0,0.0,0.968963,0.026795,-0.034852,0.243202,0.0,0.0,0.0,0,0
2026-06-08 19:10:39.140,60759,R_Hip,-0.0179,0.0049,1.0121,0.19,-1.2,1.51,-16.12,24.13,-26.82,0.989441,0.007294,-0.012177,-0.144078,0.0,0.0,0.0,0,0
2026-06-08 19:10:39.142,60920,L_Ankle,0.0541,0.0149,1.0024,-0.7,-0.39,-0.85,-19.34,15.42,-46.95,0.968963,0.026795,-0.034822,0.243202,0.0,0.0,0.0,0,0
2026-06-08 19:10:39.143,60769,R_Hip,-0.0243,-0.0008,0.9991,0.2,-1.19,1.51,0.0,0.0,0.0,0.989441,0.007294,-0.012177,-0.144078,0.0,0.0,0.0,0,0
2026-06-08 19:10:39.145,60900,L_Hip,0.092,-0.0789,0.9875,0.36,-0.13,0.81,14.86,33.25,-55.57,0.992981,-0.036287,-0.053957,-0.098605,0.0,0.0,0.0,0,0
2026-06-08 19:10:39.146,60759,R_Shank,0.0247,3.1396,1.0047,-0.05,-0.87,-1.58,-9.37,18.85,-23.77,0.974029,0.029695,-0.022767,0.223273,0.0,0.0,0.0,0,0
2026-06-08 19:10:39.148,60910,L_Hip,0.0984,-0.072,0.9996,0.35,-0.12,0.83,0.0,0.0,0.0,0.992981,-0.036287,-0.053957,-0.098605,0.0,0.0,0.0,0,0
2026-06-08 19:10:39.149,60769,R_Shank,0.0355,2.628,1.0052,-0.05,-0.89,-1.58,-10.55,19.04,-23.91,0.974029,0.029695,-0.022767,0.223273,0.0,0.0,0.0,0,0
2026-06-08 19:10:39.151,60920,L_Hip,0.0886,-0.0862,0.9914,0.37,-0.12,0.8,14.5,32.92,-54.98,0.992981,-0.036256,-0.053957,-0.098605,0.0,0.0,0.0,0,0
2026-06-08 19:10:39.152,60779,R_Shank,0.0316,1.5984,1.0028,-0.06,-0.88,-1.58,0.0,0.0,0.0,0.974029,0.029725,-0.022736,0.223273,0.0,0.0,0.0,0,0
2026-06-08 19:10:39.154,60930,L_Hip,0.097,-0.0735,0.9808,0.36,-0.14,0.82,13.33,33.7,-54.53,0.992981,-0.036256,-0.053926,-0.098605,0.0,0.0,0.0,0,0
2026-06-08 19:10:39.156,60789,R_Shank,0.038,-2.6436,1.021,-0.06,-0.89,-1.58,-9.85,18.03,-24.23,0.974029,0.029725,-0.022736,0.223273,0.0,0.0,0.0,0,0
2026-06-08 19:10:39.157,60905,L_Shank,0.0497,-0.0048,0.9777,1.74,-1.1,-0.09,6.81,27.4,-36.81,0.998016,-0.000732,-0.046846,0.041414,0.0,0.0,0.0,0,0
2026-06-08 19:10:39.159,60761,R_Ankle,0.0282,-0.0185,1.0038,0.9,-1.87,-0.25,-1.42,29.06,-31.58,0.989166,0.044923,-0.084689,0.111118,0.0,0.0,0.0,0,0
2026-06-08 19:10:39.160,60915,L_Shank,0.0594,-0.0146,0.9815,1.73,-1.11,-0.09,0.0,0.0,0.0,0.998016,-0.000732,-0.046846,0.041414,0.0,0.0,0.0,0,0
2026-06-08 19:10:39.162,60771,R_Ankle,0.0263,-0.0111,0.9899,0.89,-1.88,-0.26,0.0,0.0,0.0,0.989166,0.044923,-0.084658,0.111118,0.0,0.0,0.0,0,0
2026-06-08 19:10:39.162,60925,L_Shank,0.0599,-0.0131,1.0022,1.74,-1.11,-0.08,6.27,27.56,-35.72,0.998016,-0.000732,-0.046846,0.041414,0.0,0.0,0.0,0,0
2026-06-08 19:10:39.165,60781,R_Ankle,0.0268,-0.021,1.0038,0.88,-1.87,-0.26,-1.94,27.94,-30.81,0.989166,0.044954,-0.084658,0.111118,0.0,0.0,0.0,0,0
2026-06-08 19:10:39.165,60935,L_Shank,0.0467,-0.0087,0.9935,1.74,-1.1,-0.08,5.07,27.41,-37.42,0.998016,-0.000702,-0.046846,0.041414,0.0,0.0,0.0,0,0
2026-06-08 19:10:39.168,60791,R_Ankle,0.0326,-0.019,0.9947,0.9,-1.87,-0.25,-2.8,27.46,-31.27,0.989166,0.044954,-0.084658,0.111087,0.0,0.0,0.0,0,0
2026-06-08 19:10:39.169,60930,L_Shank,0.0511,-0.0009,0.9887,1.74,-1.1,-0.08,7.35,26.58,-38.83,0.998016,-0.000702,-0.046846,0.041414,0.0,0.0,0.0,0,0
2026-06-08 19:10:39.171,60940,L_Shank,0.0511,-0.0092,0.9724,1.73,-1.1,-0.09,0.0,0.0,0.0,0.998016,-0.000732,-0.046846,0.041414,0.0,0.0,0.0,0,0
2026-06-08 19:10:39.172,60789,R_Hip,-0.0263,0.0054,1.002,0.18,-1.22,1.51,-16.12,25.23,-26.14,0.989441,0.007294,-0.012177,-0.144078,0.0,0.0,0.0,0,0
2026-06-08 19:10:39.174,60950,L_Shank,0.0463,-0.0121,0.9916,1.74,-1.09,-0.09,5.94,27.24,-37.58,0.998016,-0.000732,-0.046846,0.041414,0.0,0.0,0.0,0,0
2026-06-08 19:10:39.175,60799,R_Hip,-0.0238,0.002,1.003,0.19,-1.2,1.51,-16.49,23.04,-27.5,0.989441,0.007294,-0.012207,-0.144078,0.0,0.0,0.0,0,0
2026-06-08 19:10:39.177,60960,L_Shank,0.0419,-0.0141,0.9892,1.72,-1.09,-0.09,5.41,26.73,-37.1,0.998016,-0.000763,-0.046876,0.041414,0.0,0.0,0.0,0,0
2026-06-08 19:10:39.177,60809,R_Hip,-0.0253,-0.0037,1.0145,0.18,-1.2,1.51,0.0,0.0,0.0,0.989441,0.007294,-0.012177,-0.144078,0.0,0.0,0.0,0,0
2026-06-08 19:10:39.180,60935,L_Ankle,0.0565,0.007,0.9856,-0.69,-0.4,-0.85,-18.82,15.94,-47.11,0.968963,0.026795,-0.034791,0.243202,0.0,0.0,0.0,0,0
2026-06-08 19:10:39.180,60819,R_Hip,-0.0243,0.0079,1.001,0.17,-1.22,1.51,-16.67,24.32,-28.36,0.989441,0.007294,-0.012177,-0.144078,0.0,0.0,0.0,0,0
2026-06-08 19:10:39.183,60945,L_Ankle,0.059,0.0119,1.0048,-0.7,-0.39,-0.83,-19.14,13.82,-47.12,0.968963,0.026795,-0.034791,0.243202,0.0,0.0,0.0,0,0
2026-06-08 19:10:39.184,60805,R_Shank,0.033,-0.8432,1.0032,-0.06,-0.9,-1.59,-10.37,18.21,-23.77,0.974029,0.029725,-0.022736,0.223273,0.0,0.0,0.0,0,0
2026-06-08 19:10:39.187,60955,L_Ankle,0.0521,0.0129,0.9803,-0.71,-0.4,-0.85,-20.22,15.96,-46.8,0.968963,0.026795,-0.034791,0.243202,0.0,0.0,0.0,0,0
2026-06-08 19:10:39.187,60815,R_Shank,0.0281,3.2692,1.0023,-0.05,-0.89,-1.59,-10.7,18.21,-24.07,0.974029,0.029695,-0.022767,0.223273,0.0,0.0,0.0,0,0
2026-06-08 19:10:39.189,60965,L_Ankle,0.0482,0.0197,0.9962,-0.7,-0.4,-0.86,0.0,0.0,0.0,0.968963,0.026795,-0.034822,0.243202,0.0,0.0,0.0,0,0
2026-06-08 19:10:39.190,60825,R_Shank,0.0311,3.2692,0.9912,-0.06,-0.9,-1.58,0.0,0.0,0.0,0.974029,0.029695,-0.022797,0.223273,0.0,0.0,0.0,0,0
2026-06-08 19:10:39.192,60945,L_Hip,0.0896,-0.0754,0.9987,0.36,-0.13,0.83,11.12,33.5,-53.77,0.992981,-0.036256,-0.053926,-0.098605,0.0,0.0,0.0,0,0
2026-06-08 19:10:39.193,60835,R_Shank,0.035,2.628,1.0128,-0.06,-0.88,-1.58,-9.7,18.86,-23.77,0.974029,0.029695,-0.022767,0.223273,0.0,0.0,0.0,0,0
2026-06-08 19:10:39.196,60955,L_Hip,0.0974,-0.0744,0.987,0.37,-0.13,0.81,0.0,0.0,0.0,0.992981,-0.036256,-0.053926,-0.098605,0.0,0.0,0.0,0,0
2026-06-08 19:10:39.197,60806,R_Ankle,0.0366,-0.022,0.9976,0.9,-1.85,-0.25,-2.79,28.09,-30.66,0.989166,0.044954,-0.084658,0.111118,0.0,0.0,0.0,0,0
2026-06-08 19:10:39.199,60965,L_Hip,0.092,-0.0818,0.9987,0.36,-0.14,0.82,13.48,33.54,-53.81,0.992981,-0.036256,-0.053926,-0.098605,0.0,0.0,0.0,0,0
2026-06-08 19:10:39.200,60816,R_Ankle,0.0317,-0.0126,1.001,0.88,-1.85,-0.25,0.0,0.0,0.0,0.989166,0.044954,-0.084689,0.111118,0.0,0.0,0.0,0,0
2026-06-08 19:10:39.202,60975,L_Hip,0.0945,-0.0852,0.9924,0.37,-0.13,0.82,13.46,32.57,-53.51,0.992981,-0.036225,-0.053957,-0.098605,0.0,0.0,0.0,0,0
2026-06-08 19:10:39.203,60826,R_Ankle,0.0228,-0.0057,1.0034,0.89,-1.87,-0.25,-2.97,27.62,-32.05,0.989166,0.044954,-0.084719,0.111118,0.0,0.0,0.0,0,0
2026-06-08 19:10:39.205,60955,L_Shank,0.0526,-0.0033,0.9868,1.71,-1.11,-0.09,6.46,26.04,-36.79,0.998016,-0.000732,-0.046907,0.041414,0.0,0.0,0.0,0,0
2026-06-08 19:10:39.206,60836,R_Ankle,0.0317,-0.0121,0.9957,0.89,-1.86,-0.26,-2.28,27.94,-31.43,0.989166,0.044954,-0.084689,0.111118,0.0,0.0,0.0,0,0
2026-06-08 19:10:39.209,60965,L_Shank,0.0477,-0.0063,0.9858,1.73,-1.1,-0.08,6.11,27.4,-36.81,0.998016,-0.000732,-0.046907,0.041414,0.0,0.0,0.0,0,0
2026-06-08 19:10:39.210,60827,R_Shank,0.0409,-2.514,1.0095,-0.06,-0.9,-1.6,-8.35,18.83,-24.09,0.974029,0.029664,-0.022767,0.223273,0.0,0.0,0.0,0,0
2026-06-08 19:10:39.211,60975,L_Shank,0.0541,-0.0126,0.9777,1.73,-1.11,-0.08,0.0,0.0,0.0,0.998016,-0.000763,-0.046937,0.041414,0.0,0.0,0.0,0,0
2026-06-08 19:10:39.213,60837,R_Shank,0.0237,1.5984,1.0225,-0.05,-0.89,-1.59,-9.34,18.18,-24.98,0.974029,0.029664,-0.022767,0.223304,0.0,0.0,0.0,0,0
2026-06-08 19:10:39.214,60985,L_Shank,0.0604,-0.0156,0.9988,1.74,-1.1,-0.07,6.12,27.41,-37.43,0.998016,-0.000732,-0.046937,0.041414,0.0,0.0,0.0,0,0
2026-06-08 19:10:39.215,60847,R_Shank,0.0316,1.5984,1.01,-0.06,-0.9,-1.58,0.0,0.0,0.0,0.974029,0.029664,-0.022797,0.223273,0.0,0.0,0.0,0,0
2026-06-08 19:10:39.217,60957,L_Ankle,0.0443,0.0114,0.9933,-0.71,-0.39,-0.84,-19.49,14.54,-46.45,0.968963,0.026826,-0.034852,0.243233,0.0,0.0,0.0,0,0
2026-06-08 19:10:39.218,60857,R_Shank,0.035,-1.4844,1.0056,-0.05,-0.89,-1.58,-9.36,18.19,-23.48,0.974029,0.029664,-0.022767,0.223273,0.0,0.0,0.0,0,0
2026-06-08 19:10:39.221,60967,L_Ankle,0.0462,0.0202,0.9885,-0.71,-0.4,-0.84,-19.3,14.0,-46.28,0.968963,0.026826,-0.034822,0.243202,0.0,0.0,0.0,0,0
2026-06-08 19:10:39.222,60850,R_Shank,0.035,-2.3844,1.0109,-0.06,-0.9,-1.58,-8.81,17.01,-24.85,0.974029,0.029633,-0.022797,0.223304,0.0,0.0,0.0,0,0
2026-06-08 19:10:39.223,60977,L_Ankle,0.055,0.0109,0.9837,-0.7,-0.39,-0.84,-19.31,14.0,-46.96,0.968963,0.026826,-0.034822,0.243202,0.0,0.0,0.0,0,0
2026-06-08 19:10:39.225,60860,R_Shank,0.034,1.5984,1.0119,-0.06,-0.88,-1.59,-9.16,17.68,-24.84,0.973998,0.029664,-0.022797,0.223304,0.0,0.0,0.0,0,0
2026-06-08 19:10:39.226,60987,L_Ankle,0.0477,0.0149,0.977,-0.69,-0.4,-0.84,0.0,0.0,0.0,0.968963,0.026826,-0.034822,0.243233,0.0,0.0,0.0,0,0
2026-06-08 19:10:39.227,60870,R_Shank,0.034,-1.7432,1.0287,-0.06,-0.88,-1.6,0.0,0.0,0.0,0.974029,0.029633,-0.022797,0.223304,0.0,0.0,0.0,0,0
2026-06-08 19:10:39.230,60880,R_Shank,0.036,3.2692,1.0311,-0.06,-0.89,-1.58,-10.02,17.21,-23.18,0.974029,0.029633,-0.022797,0.223273,0.0,0.0,0.0,0,0
2026-06-08 19:10:39.232,60851,R_Ankle,0.0253,-0.021,1.0072,0.88,-1.87,-0.26,-2.11,27.46,-30.96,0.989166,0.044984,-0.084719,0.111087,0.0,0.0,0.0,0,0
2026-06-08 19:10:39.235,61002,L_Ankle,0.0536,0.0119,0.9976,-0.7,-0.4,-0.85,-18.96,13.64,-46.95,0.968963,0.026826,-0.034791,0.243233,0.0,0.0,0.0,0,0
2026-06-08 19:10:39.235,60861,R_Ankle,0.0184,-0.0181,1.0053,0.89,-1.85,-0.26,0.0,0.0,0.0,0.989166,0.044954,-0.084689,0.111087,0.0,0.0,0.0,0,0
2026-06-08 19:10:39.238,61012,L_Ankle,0.0506,0.0139,1.0,-0.7,-0.38,-0.83,-21.09,15.09,-47.32,0.968963,0.026856,-0.034791,0.243233,0.0,0.0,0.0,0,0
2026-06-08 19:10:39.239,60871,R_Ankle,0.0253,-0.0141,1.0072,0.9,-1.87,-0.25,-2.95,28.88,-30.52,0.989166,0.044954,-0.084658,0.111087,0.0,0.0,0.0,0,0
2026-06-08 19:10:39.241,61022,L_Ankle,0.0531,0.0158,0.9784,-0.7,-0.39,-0.83,-19.13,14.18,-46.44,0.968963,0.026826,-0.034761,0.243233,0.0,0.0,0.0,0,0
2026-06-08 19:10:39.242,60881,R_Ankle,0.0322,-0.0106,1.0024,0.9,-1.85,-0.25,-3.14,28.42,-32.52,0.989166,0.044954,-0.084658,0.111087,0.0,0.0,0.0,0,0
2026-06-08 19:10:39.244,61032,L_Ankle,0.0545,0.0134,0.9784,-0.7,-0.4,-0.84,-20.2,14.19,-47.14,0.968963,0.026826,-0.034761,0.243233,0.0,0.0,0.0,0,0
2026-06-08 19:10:39.245,60864,R_Hip,-0.0238,0.0035,0.9991,0.19,-1.22,1.51,-17.58,24.5,-27.16,0.989441,0.007294,-0.012177,-0.144078,0.0,0.0,0.0,0,0
2026-06-08 19:10:39.247,61005,L_Shank,0.0399,-0.0116,0.993,1.74,-1.09,-0.08,7.33,27.91,-36.67,0.998016,-0.000732,-0.046937,0.041414,0.0,0.0,0.0,0,0
2026-06-08 19:10:39.248,60874,R_Hip,-0.0189,0.0001,0.9986,0.21,-1.2,1.51,-17.95,24.14,-28.19,0.989441,0.007294,-0.012177,-0.144078,0.0,0.0,0.0,0,0
2026-06-08 19:10:39.251,61015,L_Shank,0.0497,-0.0102,0.982,1.74,-1.1,-0.08,7.33,26.21,-36.65,0.998016,-0.000763,-0.046937,0.041414,0.0,0.0,0.0,0,0
2026-06-08 19:10:39.251,60884,R_Hip,-0.0214,0.0006,0.9823,0.19,-1.21,1.52,-16.31,24.69,-28.02,0.989441,0.007263,-0.012146,-0.144078,0.0,0.0,0.0,0,0
2026-06-08 19:10:39.253,61025,L_Shank,0.0516,-0.0023,0.9858,1.74,-1.09,-0.08,0.0,0.0,0.0,0.998016,-0.000763,-0.046907,0.041414,0.0,0.0,0.0,0,0
2026-06-08 19:10:39.254,60894,R_Hip,-0.0233,0.0074,1.0049,0.19,-1.21,1.51,0.0,0.0,0.0,0.989441,0.007263,-0.012146,-0.144078,0.0,0.0,0.0,0,0
2026-06-08 19:10:39.256,61035,L_Shank,0.057,-0.0102,0.9729,1.74,-1.11,-0.06,6.81,27.41,-37.12,0.998016,-0.000763,-0.046937,0.041414,0.0,0.0,0.0,0,0
2026-06-08 19:10:39.257,60872,R_Shank,0.034,-0.9728,1.0133,-0.04,-0.89,-1.59,-8.68,18.83,-24.69,0.974029,0.029633,-0.022797,0.223304,0.0,0.0,0.0,0,0
2026-06-08 19:10:39.259,61012,L_Hip,0.0886,-0.0862,0.9948,0.38,-0.12,0.82,14.14,31.94,-54.39,0.992981,-0.036256,-0.053957,-0.098605,0.0,0.0,0.0,0,0
2026-06-08 19:10:39.260,60882,R_Shank,0.0375,-3.0256,0.996,-0.05,-0.88,-1.58,0.0,0.0,0.0,0.974029,0.029664,-0.022797,0.223273,0.0,0.0,0.0,0,0
2026-06-08 19:10:39.262,61022,L_Hip,0.0901,-0.0813,0.9996,0.38,-0.12,0.82,0.0,0.0,0.0,0.992981,-0.036225,-0.053957,-0.098605,0.0,0.0,0.0,0,0
2026-06-08 19:10:39.263,60892,R_Shank,0.033,0.9572,1.009,-0.06,-0.87,-1.58,-9.71,19.19,-23.47,0.974029,0.029664,-0.022828,0.223273,0.0,0.0,0.0,0,0
2026-06-08 19:10:39.265,61032,L_Hip,0.092,-0.0793,0.987,0.36,-0.13,0.8,14.18,33.24,-55.56,0.992981,-0.036256,-0.053957,-0.098575,0.0,0.0,0.0,0,0
2026-06-08 19:10:39.267,60902,R_Shank,0.038,-1.6136,1.0176,-0.06,-0.89,-1.59,-10.56,19.37,-23.61,0.974029,0.029633,-0.022828,0.223273,0.0,0.0,0.0,0,0
2026-06-08 19:10:39.268,61042,L_Hip,0.0891,-0.071,0.9953,0.36,-0.12,0.82,13.31,33.38,-53.95,0.992981,-0.036225,-0.053957,-0.098605,0.0,0.0,0.0,0,0
2026-06-08 19:10:39.270,60874,R_Ankle,0.0385,-0.0156,1.001,0.9,-1.87,-0.25,-1.94,28.26,-31.12,0.989166,0.044984,-0.084689,0.111087,0.0,0.0,0.0,0,0
2026-06-08 19:10:39.271,61030,L_Shank,0.0516,-0.0058,1.0026,1.73,-1.11,-0.08,5.59,27.57,-36.96,0.998016,-0.000763,-0.046968,0.041414,0.0,0.0,0.0,0,0
2026-06-08 19:10:39.273,60884,R_Ankle,0.0248,-0.0185,0.9909,0.9,-1.86,-0.25,0.0,0.0,0.0,0.989166,0.044984,-0.084689,0.111118,0.0,0.0,0.0,0,0
2026-06-08 19:10:39.274,61040,L_Shank,0.0536,-0.0067,0.9825,1.74,-1.11,-0.06,5.94,26.9,-37.58,0.998016,-0.000793,-0.046968,0.041414,0.0,0.0,0.0,0,0
2026-06-08 19:10:39.276,60894,R_Ankle,0.0277,-0.0156,1.0014,0.89,-1.86,-0.26,-1.43,28.43,-31.88,0.989166,0.044984,-0.084689,0.111118,0.0,0.0,0.0,0,0
2026-06-08 19:10:39.277,61050,L_Shank,0.0507,-0.0038,0.9897,1.74,-1.1,-0.07,0.0,0.0,0.0,0.998016,-0.000793,-0.046937,0.041414,0.0,0.0,0.0,0,0
2026-06-08 19:10:39.279,60904,R_Ankle,0.0165,-0.0136,1.0029,0.9,-1.87,-0.25,-0.91,29.22,-31.12,0.989166,0.044984,-0.084689,0.111118,0.0,0.0,0.0,0,0
2026-06-08 19:10:39.280,61060,L_Shank,0.0492,-0.0097,0.9854,1.74,-1.11,-0.08,8.03,27.24,-36.98,0.998016,-0.000793,-0.046937,0.041414,0.0,0.0,0.0,0,0
2026-06-08 19:10:39.283,60895,R_Shank,0.0286,-2.2548,1.0148,-0.06,-0.9,-1.59,-10.03,18.53,-24.37,0.974029,0.029633,-0.022828,0.223273,0.0,0.0,0.0,0,0
2026-06-08 19:10:39.284,61035,L_Hip,0.0881,-0.0735,0.9938,0.37,-0.13,0.81,15.7,34.07,-54.86,0.992981,-0.036225,-0.053987,-0.098605,0.0,0.0,0.0,0,0
2026-06-08 19:10:39.286,60905,R_Shank,0.036,-2.514,0.9999,-0.05,-0.89,-1.58,0.0,0.0,0.0,0.974029,0.029633,-0.022828,0.223273,0.0,0.0,0.0,0,0
2026-06-08 19:10:39.287,61045,L_Hip,0.0906,-0.0808,0.9962,0.36,-0.12,0.82,0.0,0.0,0.0,0.992981,-0.036225,-0.053957,-0.098575,0.0,0.0,0.0,0,0
2026-06-08 19:10:39.289,60915,R_Shank,0.0301,-2.3844,1.01,-0.06,-0.89,-1.59,-9.54,19.02,-23.92,0.974029,0.029603,-0.022828,0.223273,0.0,0.0,0.0,0,0
2026-06-08 19:10:39.290,61055,L_Hip,0.0935,-0.0808,0.989,0.37,-0.12,0.8,14.84,32.93,-54.7,0.992981,-0.036256,-0.053987,-0.098575,0.0,0.0,0.0,0,0
2026-06-08 19:10:39.293,60925,R_Shank,0.0384,0.698,1.0128,-0.05,-0.88,-1.58,-8.85,19.0,-24.83,0.974029,0.029603,-0.022828,0.223273,0.0,0.0,0.0,0,0
2026-06-08 19:10:39.293,61065,L_Hip,0.092,-0.0798,0.989,0.35,-0.12,0.82,14.14,32.59,-54.1,0.992981,-0.036256,-0.053957,-0.098575,0.0,0.0,0.0,0,0
2026-06-08 19:10:39.296,60915,R_Hip,-0.0253,0.0059,1.0241,0.19,-1.21,1.52,-16.48,23.4,-26.47,0.989441,0.007263,-0.012146,-0.144078,0.0,0.0,0.0,0,0
2026-06-08 19:10:39.296,61047,L_Ankle,0.0526,0.0114,0.9952,-0.7,-0.41,-0.84,-19.68,15.07,-46.96,0.968963,0.026795,-0.034761,0.243233,0.0,0.0,0.0,0,0
2026-06-08 19:10:39.299,60925,R_Hip,-0.013,0.0045,0.9996,0.2,-1.21,1.52,-15.58,25.05,-26.99,0.989441,0.007294,-0.012116,-0.144078,0.0,0.0,0.0,0,0
2026-06-08 19:10:39.299,61057,L_Ankle,0.0477,0.0105,0.9918,-0.7,-0.38,-0.85,-20.38,14.72,-47.31,0.968963,0.026826,-0.034761,0.243233,0.0,0.0,0.0,0,0
2026-06-08 19:10:39.302,60935,R_Hip,-0.0219,-0.0013,0.9982,0.19,-1.21,1.51,-15.94,25.41,-24.94,0.989441,0.007294,-0.012116,-0.144078,0.0,0.0,0.0,0,0
2026-06-08 19:10:39.303,61067,L_Ankle,0.0482,0.0105,0.9909,-0.71,-0.39,-0.83,-20.92,15.26,-47.83,0.968963,0.026826,-0.034761,0.243233,0.0,0.0,0.0,0,0
2026-06-08 19:10:39.305,60945,R_Hip,-0.0184,-0.0028,0.9943,0.19,-1.21,1.53,0.0,0.0,0.0,0.989441,0.007294,-0.012146,-0.144078,0.0,0.0,0.0,0,0
2026-06-08 19:10:39.306,61077,L_Ankle,0.0531,0.0129,1.0082,-0.7,-0.41,-0.86,-19.66,14.72,-46.28,0.968963,0.026826,-0.034791,0.243202,0.0,0.0,0.0,0,0
2026-06-08 19:10:39.308,60917,R_Shank,0.0326,-2.2548,1.01,-0.08,-0.88,-1.6,-8.87,19.01,-23.33,0.974029,0.029603,-0.022828,0.223273,0.0,0.0,0.0,0,0
2026-06-08 19:10:39.310,61057,L_Hip,0.0916,-0.0774,0.9962,0.35,-0.15,0.82,14.16,32.91,-54.4,0.992981,-0.036256,-0.053957,-0.098575,0.0,0.0,0.0,0,0
2026-06-08 19:10:39.312,60927,R_Shank,0.035,-0.7136,0.9989,-0.06,-0.88,-1.59,0.0,0.0,0.0,0.974029,0.029603,-0.022828,0.223273,0.0,0.0,0.0,0,0
2026-06-08 19:10:39.313,61067,L_Hip,0.0984,-0.0798,0.9958,0.35,-0.13,0.81,0.0,0.0,0.0,0.992981,-0.036256,-0.053987,-0.098575,0.0,0.0,0.0,0,0
2026-06-08 19:10:39.315,60937,R_Shank,0.0438,1.728,1.0056,-0.03,-0.87,-1.58,-10.04,19.19,-24.07,0.974029,0.029572,-0.022828,0.223273,0.0,0.0,0.0,0,0
2026-06-08 19:10:39.315,61077,L_Hip,0.0935,-0.0774,0.9875,0.36,-0.12,0.81,13.64,32.42,-54.24,0.992981,-0.036256,-0.054018,-0.098575,0.0,0.0,0.0,0,0
2026-06-08 19:10:39.318,60947,R_Shank,0.0355,0.0572,1.0205,-0.06,-0.9,-1.59,-8.71,19.17,-23.18,0.974029,0.029572,-0.022858,0.223273,0.0,0.0,0.0,0,0
2026-06-08 19:10:39.318,61087,L_Hip,0.0871,-0.0764,0.9938,0.35,-0.12,0.81,13.84,33.55,-54.97,0.992981,-0.036256,-0.054018,-0.098575,0.0,0.0,0.0,0,0
2026-06-08 19:10:39.321,60919,R_Ankle,0.0302,-0.021,1.0029,0.88,-1.86,-0.25,-2.47,27.8,-32.81,0.989166,0.044984,-0.084658,0.111118,0.0,0.0,0.0,0,0
2026-06-08 19:10:39.321,61080,L_Shank,0.0458,-0.0097,0.9815,1.74,-1.1,-0.07,6.64,27.24,-37.59,0.998016,-0.000763,-0.046937,0.041444,0.0,0.0,0.0,0,0
2026-06-08 19:10:39.323,60929,R_Ankle,0.0307,-0.0086,0.9957,0.9,-1.87,-0.25,0.0,0.0,0.0,0.989166,0.044984,-0.084658,0.111118,0.0,0.0,0.0,0,0
2026-06-08 19:10:39.324,61090,L_Shank,0.0531,-0.0097,0.994,1.74,-1.09,-0.09,6.12,27.42,-37.74,0.998016,-0.000763,-0.046937,0.041444,0.0,0.0,0.0,0,0
2026-06-08 19:10:39.327,60939,R_Ankle,0.0258,-0.0146,1.0053,0.89,-1.87,-0.25,-1.61,27.64,-32.03,0.989135,0.045015,-0.084689,0.111118,0.0,0.0,0.0,0,0
2026-06-08 19:10:39.327,61100,L_Shank,0.0414,-0.0067,0.9902,1.74,-1.09,-0.09,0.0,0.0,0.0,0.998016,-0.000763,-0.046968,0.041444,0.0,0.0,0.0,0,0
2026-06-08 19:10:39.330,61110,L_Shank,0.0516,-0.0126,0.9964,1.74,-1.11,-0.09,6.13,26.08,-39.28,0.998016,-0.000763,-0.046968,0.041444,0.0,0.0,0.0,0,0
2026-06-08 19:10:39.330,60949,R_Ankle,0.0351,-0.0185,1.0053,0.89,-1.87,-0.25,-1.26,27.95,-31.11,0.989135,0.045015,-0.084689,0.111118,0.0,0.0,0.0,0,0
2026-06-08 19:10:39.333,61092,L_Ankle,0.0506,0.0056,0.9875,-0.7,-0.41,-0.84,-21.44,15.45,-47.33,0.968963,0.026826,-0.034761,0.243233,0.0,0.0,0.0,0,0
2026-06-08 19:10:39.334,60939,R_Hip,-0.0243,0.002,1.0136,0.19,-1.22,1.52,-16.67,25.42,-27.68,0.989441,0.007263,-0.012146,-0.144078,0.0,0.0,0.0,0,0
2026-06-08 19:10:39.336,61102,L_Ankle,0.0511,0.0173,0.9846,-0.7,-0.39,-0.84,0.0,0.0,0.0,0.968963,0.026826,-0.034761,0.243202,0.0,0.0,0.0,0,0
2026-06-08 19:10:39.337,60949,R_Hip,-0.0184,0.0059,1.0063,0.18,-1.2,1.52,-15.57,23.22,-26.98,0.989441,0.007263,-0.012146,-0.144078,0.0,0.0,0.0,0,0
2026-06-08 19:10:39.339,61112,L_Ankle,0.0482,0.0085,0.9827,-0.7,-0.4,-0.83,-20.53,13.84,-46.81,0.968963,0.026826,-0.034761,0.243233,0.0,0.0,0.0,0,0
2026-06-08 19:10:39.341,60959,R_Hip,-0.011,0.0015,0.9929,0.19,-1.2,1.51,-15.39,24.5,-26.47,0.989441,0.007263,-0.012146,-0.144078,0.0,0.0,0.0,0,0
2026-06-08 19:10:39.342,61122,L_Ankle,0.0575,0.0173,0.9914,-0.7,-0.39,-0.82,-19.84,14.9,-46.11,0.968963,0.026795,-0.034761,0.243233,0.0,0.0,0.0,0,0
2026-06-08 19:10:39.343,60969,R_Hip,-0.0288,0.0069,1.0078,0.19,-1.21,1.51,0.0,0.0,0.0,0.989441,0.007263,-0.012146,-0.144078,0.0,0.0,0.0,0,0
2026-06-08 19:10:39.345,61102,L_Hip,0.0925,-0.0813,0.9948,0.36,-0.12,0.82,13.32,32.74,-55.11,0.992981,-0.036256,-0.054018,-0.098605,0.0,0.0,0.0,0,0
2026-06-08 19:10:39.346,60962,R_Shank,0.0291,-1.8728,1.0061,-0.06,-0.89,-1.59,-7.47,17.32,-24.86,0.974029,0.029542,-0.022858,0.223273,0.0,0.0,0.0,0,0
2026-06-08 19:10:39.348,61112,L_Hip,0.0847,-0.0838,0.9861,0.37,-0.12,0.82,13.65,34.03,-53.08,0.992981,-0.036225,-0.054018,-0.098605,0.0,0.0,0.0,0,0
2026-06-08 19:10:39.349,60972,R_Shank,0.0296,-0.0724,0.996,-0.05,-0.88,-1.59,0.0,0.0,0.0,0.974029,0.029572,-0.022889,0.223273,0.0,0.0,0.0,0,0
2026-06-08 19:10:39.351,61122,L_Hip,0.0974,-0.0843,0.99,0.35,-0.12,0.83,0.0,0.0,0.0,0.992981,-0.036225,-0.054018,-0.098605,0.0,0.0,0.0,0,0
2026-06-08 19:10:39.352,60982,R_Shank,0.0281,2.4984,0.9994,-0.06,-0.9,-1.6,-9.36,18.52,-24.08,0.974029,0.029572,-0.022858,0.223273,0.0,0.0,0.0,0,0
2026-06-08 19:10:39.354,61132,L_Hip,0.1053,-0.0793,1.0021,0.37,-0.13,0.83,13.3,33.05,-53.66,0.992981,-0.036225,-0.054018,-0.098605,0.0,0.0,0.0,0,0
2026-06-08 19:10:39.355,60992,R_Shank,0.0316,3.2692,1.0061,-0.04,-0.89,-1.58,-9.19,18.68,-23.93,0.974029,0.029572,-0.022858,0.223273,0.0,0.0,0.0,0,0
2026-06-08 19:10:39.357,60964,R_Hip,-0.0307,-0.0018,0.9972,0.17,-1.21,1.51,-15.39,24.5,-27.16,0.989441,0.007294,-0.012146,-0.144078,0.0,0.0,0.0,0,0
2026-06-08 19:10:39.359,60974,R_Hip,-0.0253,-0.0003,1.0006,0.19,-1.22,1.52,-15.94,25.05,-26.31,0.989441,0.007263,-0.012116,-0.144078,0.0,0.0,0.0,0,0
2026-06-08 19:10:39.362,60984,R_Hip,-0.0219,0.0079,1.0078,0.18,-1.22,1.52,-15.57,23.59,-26.99,0.989441,0.007263,-0.012085,-0.144078,0.0,0.0,0.0,0,0
2026-06-08 19:10:39.363,60994,R_Hip,-0.0214,0.0054,0.9924,0.18,-1.22,1.52,0.0,0.0,0.0,0.989441,0.007263,-0.012085,-0.144078,0.0,0.0,0.0,0,0
2026-06-08 19:10:39.366,60984,R_Shank,0.0326,-1.6136,1.0023,-0.05,-0.88,-1.58,-9.32,16.86,-24.69,0.974029,0.029572,-0.022858,0.223273,0.0,0.0,0.0,0,0
2026-06-08 19:10:39.368,60994,R_Shank,0.0419,3.2692,1.009,-0.07,-0.87,-1.58,0.0,0.0,0.0,0.974029,0.029572,-0.022889,0.223273,0.0,0.0,0.0,0,0
2026-06-08 19:10:39.370,61004,R_Shank,0.0355,-1.6136,1.0047,-0.06,-0.88,-1.58,-8.69,18.84,-23.78,0.974029,0.029572,-0.022858,0.223273,0.0,0.0,0.0,0,0
2026-06-08 19:10:39.373,61014,R_Shank,0.0355,-0.7136,1.008,-0.06,-0.89,-1.58,-10.69,17.55,-24.07,0.974029,0.029572,-0.022889,0.223273,0.0,0.0,0.0,0,0
2026-06-08 19:10:39.375,60986,R_Ankle,0.0282,-0.0106,1.0072,0.89,-1.87,-0.26,-2.1,28.73,-30.97,0.989135,0.045015,-0.084689,0.111118,0.0,0.0,0.0,0,0
2026-06-08 19:10:39.378,60996,R_Ankle,0.0243,-0.0205,0.9852,0.9,-1.86,-0.25,0.0,0.0,0.0,0.989135,0.044984,-0.084689,0.111118,0.0,0.0,0.0,0,0
2026-06-08 19:10:39.380,61147,L_Hip,0.092,-0.0769,0.9982,0.37,-0.12,0.81,12.96,32.73,-53.94,0.992981,-0.036225,-0.054018,-0.098605,0.0,0.0,0.0,0,0
2026-06-08 19:10:39.381,61006,R_Ankle,0.0312,-0.026,1.0101,0.89,-1.86,-0.25,-2.63,27.94,-32.05,0.989135,0.045015,-0.084689,0.111118,0.0,0.0,0.0,0,0
2026-06-08 19:10:39.383,61157,L_Hip,0.097,-0.0725,0.9938,0.36,-0.13,0.82,13.34,33.38,-55.4,0.992981,-0.036225,-0.054018,-0.098605,0.0,0.0,0.0,0,0
2026-06-08 19:10:39.385,61016,R_Ankle,0.0297,-0.0121,1.0139,0.89,-1.87,-0.26,-2.11,28.1,-31.58,0.989166,0.044984,-0.084689,0.111118,0.0,0.0,0.0,0,0
2026-06-08 19:10:39.386,61167,L_Hip,0.0857,-0.0744,0.9803,0.35,-0.12,0.8,0.0,0.0,0.0,0.992981,-0.036256,-0.054018,-0.098605,0.0,0.0,0.0,0,0
2026-06-08 19:10:39.389,60989,R_Hip,-0.0288,0.0035,1.0039,0.18,-1.21,1.5,-17.58,25.24,-28.53,0.989441,0.007263,-0.012085,-0.144078,0.0,0.0,0.0,0,0
2026-06-08 19:10:39.391,61177,L_Hip,0.0857,-0.0813,0.9909,0.36,-0.12,0.8,14.83,32.92,-54.41,0.992981,-0.036256,-0.054018,-0.098575,0.0,0.0,0.0,0,0
2026-06-08 19:10:39.392,60999,R_Hip,-0.0223,0.0064,1.001,0.19,-1.22,1.51,-16.12,24.87,-27.16,0.989441,0.007233,-0.012085,-0.144078,0.0,0.0,0.0,0,0
2026-06-08 19:10:39.394,61155,L_Shank,0.0492,-0.0097,0.9801,1.74,-1.1,-0.08,6.81,27.75,-37.44,0.998016,-0.000732,-0.046999,0.041444,0.0,0.0,0.0,0,0
2026-06-08 19:10:39.396,61009,R_Hip,-0.0135,0.0064,1.0044,0.19,-1.21,1.53,-15.03,25.23,-27.16,0.989441,0.007263,-0.012055,-0.144078,0.0,0.0,0.0,0,0
2026-06-08 19:10:39.397,61165,L_Shank,0.0565,-0.0033,0.9858,1.74,-1.11,-0.06,7.17,27.08,-38.06,0.998016,-0.000732,-0.046999,0.041444,0.0,0.0,0.0,0,0
2026-06-08 19:10:39.399,61019,R_Hip,-0.0258,-0.0018,0.9948,0.18,-1.21,1.52,0.0,0.0,0.0,0.989441,0.007263,-0.012085,-0.144078,0.0,0.0,0.0,0,0
2026-06-08 19:10:39.400,61175,L_Shank,0.0526,-0.0058,0.993,1.74,-1.1,-0.06,0.0,0.0,0.0,0.998016,-0.000732,-0.047029,0.041444,0.0,0.0,0.0,0,0
2026-06-08 19:10:39.402,61009,R_Ankle,0.0243,-0.021,1.0091,0.87,-1.87,-0.25,-1.43,28.1,-30.96,0.989166,0.044984,-0.084658,0.111118,0.0,0.0,0.0,0,0
2026-06-08 19:10:39.404,61185,L_Shank,0.0565,0.0015,0.9791,1.73,-1.11,-0.08,5.94,27.57,-36.96,0.998016,-0.000732,-0.047029,0.041444,0.0,0.0,0.0,0,0
2026-06-08 19:10:39.406,61019,R_Ankle,0.0263,-0.026,1.0019,0.88,-1.87,-0.25,0.0,0.0,0.0,0.989166,0.044984,-0.084689,0.111118,0.0,0.0,0.0,0,0
2026-06-08 19:10:39.407,61160,L_Ankle,0.0536,0.0168,0.9894,-0.7,-0.4,-0.86,-20.74,15.08,-47.32,0.968963,0.026826,-0.03473,0.243233,0.0,0.0,0.0,0,0
2026-06-08 19:10:39.410,61170,L_Ankle,0.0629,0.008,0.987,-0.69,-0.39,-0.83,0.0,0.0,0.0,0.968963,0.026826,-0.03473,0.243233,0.0,0.0,0.0,0,0
2026-06-08 19:10:39.411,61029,R_Ankle,0.0238,-0.0131,1.0091,0.9,-1.86,-0.27,-2.96,29.21,-32.06,0.989166,0.044954,-0.084689,0.111118,0.0,0.0,0.0,0,0
2026-06-08 19:10:39.414,61039,R_Ankle,0.0228,-0.0205,1.0053,0.9,-1.87,-0.25,-2.1,29.05,-31.28,0.989166,0.044954,-0.084658,0.111118,0.0,0.0,0.0,0,0
2026-06-08 19:10:39.415,61180,L_Ankle,0.0521,0.0173,0.9851,-0.69,-0.4,-0.84,-19.84,14.54,-46.45,0.968963,0.026795,-0.03473,0.243233,0.0,0.0,0.0,0,0
2026-06-08 19:10:39.418,61190,L_Ankle,0.0526,0.0163,0.9942,-0.7,-0.38,-0.83,-21.6,13.86,-47.85,0.968963,0.026795,-0.03473,0.243233,0.0,0.0,0.0,0,0
2026-06-08 19:10:39.418,61029,R_Shank,0.033,0.0572,1.0109,-0.05,-0.88,-1.58,-7.84,18.65,-24.24,0.974029,0.029572,-0.022889,0.223273,0.0,0.0,0.0,0,0
2026-06-08 19:10:39.421,61180,L_Shank,0.0419,-0.0121,0.983,1.74,-1.09,-0.07,6.29,27.59,-37.9,0.998016,-0.000702,-0.046999,0.041444,0.0,0.0,0.0,0,0
2026-06-08 19:10:39.421,61039,R_Shank,0.0257,0.8276,0.9931,-0.06,-0.89,-1.58,-9.01,17.85,-23.79,0.974029,0.029572,-0.022889,0.223273,0.0,0.0,0.0,0,0
2026-06-08 19:10:39.424,61190,L_Shank,0.0433,-0.0092,1.0022,1.73,-1.09,-0.08,6.1,28.07,-36.19,0.998016,-0.000702,-0.047029,0.041444,0.0,0.0,0.0,0,0
2026-06-08 19:10:39.425,61049,R_Shank,0.035,-0.7136,1.0109,-0.06,-0.88,-1.58,-8.52,18.67,-23.63,0.974029,0.029572,-0.022889,0.223273,0.0,0.0,0.0,0,0
2026-06-08 19:10:39.428,61200,L_Shank,0.0482,-0.0121,0.9878,1.74,-1.09,-0.07,5.95,27.25,-37.89,0.998016,-0.000702,-0.047029,0.041444,0.0,0.0,0.0,0,0
2026-06-08 19:10:39.428,61059,R_Shank,0.0355,3.1396,1.0191,-0.06,-0.88,-1.58,0.0,0.0,0.0,0.974029,0.029542,-0.022889,0.223273,0.0,0.0,0.0,0,0
2026-06-08 19:10:39.431,61210,L_Shank,0.058,-0.0063,0.993,1.74,-1.1,-0.09,0.0,0.0,0.0,0.998016,-0.000702,-0.047029,0.041444,0.0,0.0,0.0,0,0
2026-06-08 19:10:39.432,61031,R_Ankle,0.0302,-0.0215,1.0091,0.89,-1.86,-0.25,-1.95,27.3,-31.11,0.989166,0.044954,-0.084658,0.111118,0.0,0.0,0.0,0,0
2026-06-08 19:10:39.434,61182,L_Ankle,0.0467,0.0202,0.9885,-0.7,-0.38,-0.84,-20.38,15.08,-46.97,0.968963,0.026826,-0.03473,0.243233,0.0,0.0,0.0,0,0
2026-06-08 19:10:39.435,61041,R_Ankle,0.0326,-0.0235,1.0014,0.9,-1.85,-0.25,0.0,0.0,0.0,0.989166,0.044954,-0.084658,0.111118,0.0,0.0,0.0,0,0
2026-06-08 19:10:39.437,61192,L_Ankle,0.057,0.0153,0.9842,-0.69,-0.39,-0.84,0.0,0.0,0.0,0.968963,0.026826,-0.03473,0.243233,0.0,0.0,0.0,0,0
2026-06-08 19:10:39.438,61051,R_Ankle,0.0322,-0.0225,0.9971,0.9,-1.84,-0.27,-3.31,28.26,-32.06,0.989166,0.044954,-0.084658,0.111118,0.0,0.0,0.0,0,0
2026-06-08 19:10:39.441,61202,L_Ankle,0.0619,0.0085,0.987,-0.71,-0.4,-0.85,-20.55,14.55,-46.81,0.968963,0.026826,-0.03473,0.243233,0.0,0.0,0.0,0,0
2026-06-08 19:10:39.442,61061,R_Ankle,0.0277,-0.0195,1.0192,0.9,-1.88,-0.25,-2.14,27.16,-32.8,0.989166,0.044923,-0.084689,0.111118,0.0,0.0,0.0,0,0
2026-06-08 19:10:39.445,61212,L_Ankle,0.0545,0.0158,0.9803,-0.71,-0.38,-0.85,-20.36,14.37,-46.63,0.968963,0.026826,-0.0347,0.243233,0.0,0.0,0.0,0,0
2026-06-08 19:10:39.446,61039,R_Hip,-0.0189,0.0142,1.0035,0.18,-1.21,1.52,-15.94,24.68,-25.62,0.989441,0.007263,-0.012085,-0.144047,0.0,0.0,0.0,0,0
2026-06-08 19:10:39.448,61205,L_Shank,0.0497,-0.0087,0.9892,1.72,-1.1,-0.08,5.93,26.21,-36.32,0.998016,-0.000702,-0.04706,0.041444,0.0,0.0,0.0,0,0
2026-06-08 19:10:39.450,61049,R_Hip,-0.0214,0.0054,0.9948,0.2,-1.19,1.52,-16.67,23.59,-26.65,0.989441,0.007263,-0.012085,-0.144047,0.0,0.0,0.0,0,0
2026-06-08 19:10:39.452,61215,L_Shank,0.0487,-0.0038,0.9801,1.73,-1.1,-0.09,6.11,27.07,-37.11,0.998016,-0.000702,-0.04706,0.041444,0.0,0.0,0.0,0,0
2026-06-08 19:10:39.454,61059,R_Hip,-0.0283,0.0035,1.0107,0.18,-1.22,1.51,-16.85,25.23,-26.48,0.989441,0.007294,-0.012085,-0.144047,0.0,0.0,0.0,0,0
2026-06-08 19:10:39.456,61225,L_Shank,0.0472,-0.0107,0.9854,1.73,-1.08,-0.09,6.63,26.56,-36.96,0.998016,-0.000702,-0.04706,0.041444,0.0,0.0,0.0,0,0
2026-06-08 19:10:39.457,61069,R_Hip,-0.015,0.0206,0.9953,0.18,-1.21,1.53,0.0,0.0,0.0,0.989441,0.007294,-0.012085,-0.144047,0.0,0.0,0.0,0,0
2026-06-08 19:10:39.459,61235,L_Shank,0.0497,-0.0131,0.9911,1.71,-1.11,-0.09,0.0,0.0,0.0,0.998016,-0.000702,-0.047029,0.041444,0.0,0.0,0.0,0,0
2026-06-08 19:10:39.460,61074,R_Shank,0.034,0.9572,1.0205,-0.06,-0.89,-1.58,-8.85,18.34,-23.93,0.974029,0.029572,-0.022889,0.223273,0.0,0.0,0.0,0,0
2026-06-08 19:10:39.463,61215,L_Hip,0.0881,-0.072,0.9895,0.37,-0.12,0.81,12.81,32.57,-54.95,0.992981,-0.036256,-0.054018,-0.098575,0.0,0.0,0.0,0,0
2026-06-08 19:10:39.464,61084,R_Shank,0.0291,0.8276,0.9989,-0.05,-0.88,-1.58,-9.02,18.18,-23.78,0.974029,0.029572,-0.022858,0.223273,0.0,0.0,0.0,0,0
2026-06-08 19:10:39.466,61225,L_Hip,0.0876,-0.072,0.9982,0.36,-0.13,0.81,14.14,32.26,-54.1,0.992981,-0.036287,-0.054048,-0.098575,0.0,0.0,0.0,0,0
2026-06-08 19:10:39.467,61094,R_Shank,0.033,1.0868,1.0013,-0.06,-0.88,-1.59,0.0,0.0,0.0,0.974029,0.029572,-0.022889,0.223273,0.0,0.0,0.0,0,0
2026-06-08 19:10:39.469,61235,L_Hip,0.0945,-0.0843,0.9933,0.35,-0.14,0.81,0.0,0.0,0.0,0.992981,-0.036287,-0.054048,-0.098575,0.0,0.0,0.0,0,0
2026-06-08 19:10:39.470,61104,R_Shank,0.0316,1.728,1.0066,-0.04,-0.89,-1.58,-9.68,18.51,-24.98,0.974029,0.029542,-0.022889,0.223273,0.0,0.0,0.0,0,0
2026-06-08 19:10:39.473,61245,L_Hip,0.0906,-0.072,0.987,0.36,-0.14,0.8,13.18,33.86,-55.55,0.992981,-0.036287,-0.054048,-0.098575,0.0,0.0,0.0,0,0
2026-06-08 19:10:39.474,61076,R_Ankle,0.0307,-0.0146,0.9952,0.9,-1.85,-0.26,-0.9,28.89,-29.88,0.989166,0.044923,-0.084689,0.111118,0.0,0.0,0.0,0,0
2026-06-08 19:10:39.476,61227,L_Ankle,0.0594,0.0149,0.9846,-0.69,-0.4,-0.84,-19.85,14.19,-47.14,0.968963,0.026826,-0.03473,0.243233,0.0,0.0,0.0,0,0
2026-06-08 19:10:39.477,61086,R_Ankle,0.0238,-0.0141,1.0072,0.89,-1.86,-0.25,0.0,0.0,0.0,0.989166,0.044893,-0.084658,0.111118,0.0,0.0,0.0,0,0
2026-06-08 19:10:39.480,61237,L_Ankle,0.0536,0.0227,0.9875,-0.7,-0.4,-0.84,0.0,0.0,0.0,0.968963,0.026826,-0.03473,0.243233,0.0,0.0,0.0,0,0
2026-06-08 19:10:39.481,61096,R_Ankle,0.0194,-0.0185,1.0077,0.9,-1.87,-0.24,-1.6,27.94,-31.11,0.989166,0.044923,-0.084658,0.111118,0.0,0.0,0.0,0,0
2026-06-08 19:10:39.483,61247,L_Ankle,0.0472,0.0139,0.9981,-0.7,-0.41,-0.84,-18.81,15.23,-46.77,0.968963,0.026856,-0.034761,0.243233,0.0,0.0,0.0,0,0
2026-06-08 19:10:39.485,61106,R_Ankle,0.0307,-0.0205,0.9981,0.9,-1.86,-0.25,-1.94,27.94,-31.11,0.989166,0.044893,-0.084658,0.111118,0.0,0.0,0.0,0,0
2026-06-08 19:10:39.487,61257,L_Ankle,0.0472,0.0183,0.9952,-0.7,-0.4,-0.84,-19.17,15.24,-47.46,0.968963,0.026887,-0.034761,0.243233,0.0,0.0,0.0,0,0
2026-06-08 19:10:39.488,61114,R_Hip,-0.0209,0.0079,0.9986,0.19,-1.21,1.52,-15.58,23.95,-27.67,0.989441,0.007294,-0.012116,-0.144047,0.0,0.0,0.0,0,0
2026-06-08 19:10:39.490,61230,L_Shank,0.0463,-0.0038,0.994,1.73,-1.09,-0.07,7.51,28.09,-37.14,0.998016,-0.000732,-0.047029,0.041444,0.0,0.0,0.0,0,0
2026-06-08 19:10:39.493,61124,R_Hip,-0.0238,0.0045,1.0136,0.2,-1.21,1.51,-16.49,25.23,-27.16,0.989441,0.007294,-0.012085,-0.144047,0.0,0.0,0.0,0,0
2026-06-08 19:10:39.494,61240,L_Shank,0.0492,-0.0033,0.9868,1.74,-1.11,-0.08,7.16,27.74,-36.82,0.998016,-0.000732,-0.04706,0.041444,0.0,0.0,0.0,0,0
2026-06-08 19:10:39.496,61134,R_Hip,-0.0258,0.0069,0.9967,0.2,-1.19,1.52,-15.03,23.4,-26.81,0.989441,0.007294,-0.012085,-0.144047,0.0,0.0,0.0,0,0
2026-06-08 19:10:39.498,61250,L_Shank,0.0609,-0.0151,0.9834,1.74,-1.1,-0.06,6.81,28.09,-37.13,0.998016,-0.000732,-0.04706,0.041444,0.0,0.0,0.0,0,0
2026-06-08 19:10:39.499,61144,R_Hip,-0.0189,0.0093,1.002,0.2,-1.19,1.52,0.0,0.0,0.0,0.989441,0.007324,-0.012085,-0.144047,0.0,0.0,0.0,0,0
2026-06-08 19:10:39.501,61260,L_Shank,0.0516,-0.0077,0.9791,1.72,-1.09,-0.08,6.81,26.05,-37.11,0.998016,-0.000702,-0.04706,0.041444,0.0,0.0,0.0,0,0
2026-06-08 19:10:39.503,61120,R_Shank,0.0404,-0.584,1.0109,-0.06,-0.88,-1.58,-9.17,17.68,-24.24,0.974029,0.029542,-0.022889,0.223273,0.0,0.0,0.0,0,0
2026-06-08 19:10:39.504,61237,L_Hip,0.0979,-0.0843,0.9996,0.36,-0.14,0.83,12.99,33.7,-54.53,0.992981,-0.036287,-0.054048,-0.098575,0.0,0.0,0.0,0,0
2026-06-08 19:10:39.506,61130,R_Shank,0.0311,-1.232,1.0186,-0.05,-0.87,-1.58,-8.68,18.17,-23.79,0.974029,0.029542,-0.022889,0.223273,0.0,0.0,0.0,0,0
2026-06-08 19:10:39.508,61247,L_Hip,0.0857,-0.0715,0.9933,0.36,-0.13,0.82,13.5,33.22,-54.97,0.992981,-0.036287,-0.054018,-0.098575,0.0,0.0,0.0,0,0
2026-06-08 19:10:39.510,61140,R_Shank,0.0296,0.8276,1.0023,-0.06,-0.87,-1.58,0.0,0.0,0.0,0.974029,0.029542,-0.022889,0.223273,0.0,0.0,0.0,0,0
2026-06-08 19:10:39.511,61257,L_Hip,0.0857,-0.0676,0.9933,0.36,-0.15,0.8,0.0,0.0,0.0,0.992981,-0.036287,-0.054018,-0.098575,0.0,0.0,0.0,0,0
2026-06-08 19:10:39.515,61150,R_Shank,0.036,2.3688,1.0258,-0.06,-0.88,-1.58,-10.55,19.36,-24.51,0.974029,0.029542,-0.022889,0.223273,0.0,0.0,0.0,0,0
2026-06-08 19:10:39.515,61267,L_Hip,0.094,-0.0813,0.9778,0.35,-0.12,0.83,14.67,32.76,-54.84,0.992981,-0.036256,-0.053987,-0.098605,0.0,0.0,0.0,0,0
2026-06-08 19:10:39.519,61139,R_Hip,-0.0228,0.0113,0.9924,0.18,-1.21,1.51,-16.49,24.13,-27.16,0.989441,0.007355,-0.012055,-0.144047,0.0,0.0,0.0,0,0
2026-06-08 19:10:39.519,61250,L_Ankle,0.0482,0.0139,0.9818,-0.71,-0.41,-0.85,-20.0,14.01,-45.95,0.968963,0.026887,-0.034761,0.243233,0.0,0.0,0.0,0,0
2026-06-08 19:10:39.522,61149,R_Hip,-0.0199,0.0059,0.9784,0.17,-1.21,1.51,-16.67,24.32,-28.36,0.989441,0.007355,-0.012085,-0.144047,0.0,0.0,0.0,0,0
2026-06-08 19:10:39.522,61260,L_Ankle,0.0462,0.0109,0.9784,-0.71,-0.4,-0.85,0.0,0.0,0.0,0.968963,0.026917,-0.034761,0.243233,0.0,0.0,0.0,0,0
2026-06-08 19:10:39.525,61270,L_Ankle,0.0531,0.01,0.9914,-0.7,-0.39,-0.85,-19.86,14.89,-47.13,0.968963,0.026917,-0.03473,0.243233,0.0,0.0,0.0,0,0
2026-06-08 19:10:39.525,61159,R_Hip,-0.0263,0.0064,0.9929,0.19,-1.21,1.51,-16.67,24.31,-25.96,0.989441,0.007355,-0.012085,-0.144047,0.0,0.0,0.0,0,0
2026-06-08 19:10:39.528,61169,R_Hip,-0.0125,0.0049,0.9943,0.18,-1.2,1.53,0.0,0.0,0.0,0.989441,0.007355,-0.012085,-0.144047,0.0,0.0,0.0,0,0
2026-06-08 19:10:39.528,61280,L_Ankle,0.0536,0.0139,0.9717,-0.7,-0.39,-0.84,-20.03,14.72,-47.31,0.968963,0.026887,-0.03473,0.243233,0.0,0.0,0.0,0,0
2026-06-08 19:10:39.531,61143,R_Ankle,0.0277,-0.0176,1.0067,0.89,-1.87,-0.26,-1.1,28.12,-32.19,0.989166,0.044893,-0.084628,0.111118,0.0,0.0,0.0,0,0
2026-06-08 19:10:39.531,61260,L_Hip,0.0847,-0.0793,0.989,0.36,-0.12,0.81,14.34,33.08,-54.83,0.992981,-0.036256,-0.054018,-0.098605,0.0,0.0,0.0,0,0
2026-06-08 19:10:39.535,61270,L_Hip,0.0974,-0.0779,0.9924,0.37,-0.12,0.83,14.5,32.6,-55.27,0.992981,-0.036256,-0.053987,-0.098605,0.0,0.0,0.0,0,0
2026-06-08 19:10:39.535,61153,R_Ankle,0.0253,-0.0131,1.0038,0.9,-1.85,-0.26,0.0,0.0,0.0,0.989166,0.044893,-0.084658,0.111118,0.0,0.0,0.0,0,0
2026-06-08 19:10:39.538,61280,L_Hip,0.0886,-0.0784,0.9933,0.37,-0.13,0.82,13.81,32.58,-54.39,0.992981,-0.036256,-0.054018,-0.098605,0.0,0.0,0.0,0,0
2026-06-08 19:10:39.538,61163,R_Ankle,0.038,-0.0161,1.0053,0.89,-1.87,-0.26,-1.41,29.05,-30.66,0.989166,0.044893,-0.084628,0.111118,0.0,0.0,0.0,0,0
2026-06-08 19:10:39.540,61290,L_Hip,0.0867,-0.0843,0.9933,0.35,-0.13,0.82,0.0,0.0,0.0,0.992981,-0.036225,-0.054018,-0.098605,0.0,0.0,0.0,0,0
2026-06-08 19:10:39.542,61173,R_Ankle,0.0224,-0.02,1.0038,0.89,-1.87,-0.25,-2.44,29.68,-31.29,0.989166,0.044893,-0.084658,0.111118,0.0,0.0,0.0,0,0
2026-06-08 19:10:39.543,61280,L_Shank,0.0467,-0.0072,0.9849,1.74,-1.1,-0.07,4.71,26.04,-36.15,0.998016,-0.000732,-0.047029,0.041444,0.0,0.0,0.0,0,0
2026-06-08 19:10:39.545,61164,R_Hip,-0.0273,0.0093,1.0121,0.19,-1.22,1.51,-15.57,24.31,-25.96,0.989441,0.007355,-0.012085,-0.144047,0.0,0.0,0.0,0,0
2026-06-08 19:10:39.547,61290,L_Shank,0.0614,-0.0063,0.9978,1.74,-1.09,-0.07,6.8,27.06,-36.5,0.998016,-0.000732,-0.04706,0.041444,0.0,0.0,0.0,0,0
2026-06-08 19:10:39.548,61174,R_Hip,-0.0179,0.0001,0.9962,0.18,-1.22,1.5,-18.31,21.94,-27.5,0.989441,0.007355,-0.012085,-0.144047,0.0,0.0,0.0,0,0
2026-06-08 19:10:39.550,61300,L_Shank,0.0575,-0.0063,0.981,1.74,-1.09,-0.09,6.65,27.59,-38.21,0.998016,-0.000763,-0.04706,0.041444,0.0,0.0,0.0,0,0
2026-06-08 19:10:39.552,61184,R_Hip,-0.0312,0.001,1.0136,0.18,-1.21,1.52,0.0,0.0,0.0,0.989441,0.007355,-0.012085,-0.144047,0.0,0.0,0.0,0,0
2026-06-08 19:10:39.554,61310,L_Shank,0.0511,-0.0067,0.994,1.73,-1.11,-0.08,6.63,27.23,-36.34,0.998016,-0.000732,-0.04706,0.041444,0.0,0.0,0.0,0,0
2026-06-08 19:10:39.555,61194,R_Hip,-0.0228,0.0049,0.9885,0.19,-1.2,1.52,-15.94,24.32,-26.99,0.989441,0.007355,-0.012085,-0.144047,0.0,0.0,0.0,0,0
2026-06-08 19:10:39.557,61295,L_Ankle,0.0604,0.0061,0.9981,-0.7,-0.39,-0.86,-19.47,14.54,-45.43,0.968963,0.026887,-0.03473,0.243233,0.0,0.0,0.0,0,0
2026-06-08 19:10:39.559,61166,R_Ankle,0.0331,-0.0176,1.0038,0.89,-1.86,-0.26,-1.76,28.74,-31.27,0.989166,0.044893,-0.084689,0.111118,0.0,0.0,0.0,0,0
2026-06-08 19:10:39.560,61305,L_Ankle,0.0536,0.0114,0.9899,-0.7,-0.39,-0.84,-20.54,14.91,-46.47,0.968963,0.026887,-0.03473,0.243233,0.0,0.0,0.0,0,0
2026-06-08 19:10:39.561,61176,R_Ankle,0.0189,-0.0151,0.9976,0.88,-1.87,-0.25,0.0,0.0,0.0,0.989166,0.044893,-0.084689,0.111118,0.0,0.0,0.0,0,0
2026-06-08 19:10:39.563,61315,L_Ankle,0.0531,0.0031,0.9856,-0.71,-0.39,-0.84,0.0,0.0,0.0,0.968963,0.026887,-0.03473,0.243233,0.0,0.0,0.0,0,0
2026-06-08 19:10:39.565,61186,R_Ankle,0.0233,-0.0116,1.0053,0.88,-1.86,-0.26,-2.1,29.37,-31.59,0.989166,0.044893,-0.084689,0.111087,0.0,0.0,0.0,0,0
2026-06-08 19:10:39.566,61325,L_Ankle,0.0492,0.0149,0.9818,-0.71,-0.38,-0.84,-19.5,15.25,-46.45,0.968963,0.026887,-0.034761,0.243233,0.0,0.0,0.0,0,0
2026-06-08 19:10:39.569,61327,L_Hip,0.092,-0.0828,0.988,0.36,-0.14,0.83,15.35,33.42,-54.85,0.992981,-0.036225,-0.054018,-0.098605,0.0,0.0,0.0,0,0
2026-06-08 19:10:39.569,61196,R_Ankle,0.0326,-0.021,1.0062,0.9,-1.86,-0.25,-1.77,28.42,-31.27,0.989166,0.044893,-0.084658,0.111087,0.0,0.0,0.0,0,0
2026-06-08 19:10:39.572,61337,L_Hip,0.0955,-0.0784,0.987,0.38,-0.13,0.81,13.31,32.41,-54.53,0.992981,-0.036225,-0.054018,-0.098575,0.0,0.0,0.0,0,0
2026-06-08 19:10:39.572,61187,R_Shank,0.0281,2.8804,1.0037,-0.06,-0.87,-1.58,-8.52,19.32,-24.83,0.974029,0.029572,-0.022889,0.223273,0.0,0.0,0.0,0,0
2026-06-08 19:10:39.575,61347,L_Hip,0.0891,-0.0789,0.9967,0.38,-0.14,0.8,13.83,33.87,-54.1,0.992981,-0.036225,-0.054048,-0.098605,0.0,0.0,0.0,0,0
2026-06-08 19:10:39.576,61197,R_Shank,0.0419,0.316,1.0032,-0.06,-0.89,-1.6,-8.35,18.5,-23.49,0.974029,0.029572,-0.022889,0.223273,0.0,0.0,0.0,0,0
2026-06-08 19:10:39.579,61357,L_Hip,0.0935,-0.0789,0.9846,0.38,-0.13,0.8,0.0,0.0,0.0,0.992981,-0.036225,-0.054018,-0.098575,0.0,0.0,0.0,0,0
2026-06-08 19:10:39.579,61207,R_Shank,0.0291,-1.4844,0.9917,-0.05,-0.87,-1.6,0.0,0.0,0.0,0.974029,0.029572,-0.022889,0.223273,0.0,0.0,0.0,0,0
2026-06-08 19:10:39.582,61339,L_Ankle,0.0526,0.0149,0.977,-0.7,-0.39,-0.83,-20.19,14.9,-46.46,0.968963,0.026887,-0.034761,0.243233,0.0,0.0,0.0,0,0
2026-06-08 19:10:39.583,61217,R_Shank,0.034,2.3688,1.0095,-0.05,-0.88,-1.58,-9.52,18.03,-23.63,0.974029,0.029572,-0.022889,0.223273,0.0,0.0,0.0,0,0
2026-06-08 19:10:39.585,61349,L_Ankle,0.058,0.007,0.9952,-0.72,-0.39,-0.84,-19.86,14.89,-47.13,0.968963,0.026856,-0.034761,0.243233,0.0,0.0,0.0,0,0
2026-06-08 19:10:39.586,61189,R_Hip,-0.0228,0.0079,0.9991,0.18,-1.22,1.5,-16.85,24.5,-27.16,0.989441,0.007355,-0.012085,-0.144047,0.0,0.0,0.0,0,0
2026-06-08 19:10:39.588,61359,L_Ankle,0.0511,0.0109,0.9962,-0.7,-0.39,-0.84,0.0,0.0,0.0,0.968963,0.026856,-0.03473,0.243233,0.0,0.0,0.0,0,0
2026-06-08 19:10:39.590,61199,R_Hip,-0.0174,-0.0003,1.0054,0.19,-1.2,1.52,-15.03,24.13,-27.16,0.989441,0.007355,-0.012085,-0.144047,0.0,0.0,0.0,0,0
2026-06-08 19:10:39.591,61369,L_Ankle,0.0614,0.0134,0.9851,-0.7,-0.39,-0.85,-19.66,13.65,-46.96,0.968963,0.026856,-0.03473,0.243233,0.0,0.0,0.0,0,0
2026-06-08 19:10:39.593,61209,R_Hip,-0.0219,-0.0062,0.9967,0.19,-1.21,1.51,-17.21,23.77,-26.82,0.989441,0.007355,-0.012085,-0.144047,0.0,0.0,0.0,0,0
2026-06-08 19:10:39.595,61350,L_Hip,0.0906,-0.0681,0.9837,0.37,-0.13,0.83,14.55,34.86,-55.28,0.992981,-0.036195,-0.054018,-0.098575,0.0,0.0,0.0,0,0
2026-06-08 19:10:39.596,61219,R_Hip,-0.0273,0.0001,0.9905,0.19,-1.22,1.52,0.0,0.0,0.0,0.989441,0.007355,-0.012116,-0.144047,0.0,0.0,0.0,0,0
2026-06-08 19:10:39.598,61360,L_Hip,0.0901,-0.0823,0.9962,0.37,-0.13,0.82,14.0,32.75,-55.12,0.992981,-0.036225,-0.053987,-0.098575,0.0,0.0,0.0,0,0
2026-06-08 19:10:39.599,61210,R_Shank,0.0394,2.1096,1.0133,-0.06,-0.89,-1.58,-9.51,18.34,-25.13,0.974029,0.029572,-0.022919,0.223273,0.0,0.0,0.0,0,0
2026-06-08 19:10:39.601,61370,L_Hip,0.0989,-0.0828,0.9846,0.37,-0.13,0.82,13.65,32.74,-54.82,0.992981,-0.036225,-0.054018,-0.098575,0.0,0.0,0.0,0,0
2026-06-08 19:10:39.603,61220,R_Shank,0.0345,-1.7432,1.0138,-0.06,-0.88,-1.58,-9.37,18.52,-23.17,0.974029,0.029603,-0.022919,0.223273,0.0,0.0,0.0,0,0
2026-06-08 19:10:39.605,61380,L_Hip,0.0862,-0.0828,0.9793,0.35,-0.13,0.8,13.33,33.06,-55.4,0.992981,-0.036225,-0.054018,-0.098575,0.0,0.0,0.0,0,0
2026-06-08 19:10:39.606,61230,R_Shank,0.0306,-3.1552,0.9975,-0.05,-0.88,-1.58,0.0,0.0,0.0,0.974029,0.029603,-0.022919,0.223273,0.0,0.0,0.0,0,0
2026-06-08 19:10:39.609,61355,L_Shank,0.0516,-0.0107,0.9743,1.73,-1.09,-0.08,5.93,27.57,-36.34,0.998016,-0.000763,-0.04709,0.041444,0.0,0.0,0.0,0,0
2026-06-08 19:10:39.610,61240,R_Shank,0.0326,2.7576,1.0109,-0.06,-0.89,-1.58,-10.02,18.19,-24.37,0.974029,0.029603,-0.022919,0.223273,0.0,0.0,0.0,0,0
2026-06-08 19:10:39.612,61365,L_Shank,0.0531,-0.0058,0.9954,1.73,-1.11,-0.07,0.0,0.0,0.0,0.998016,-0.000763,-0.04709,0.041444,0.0,0.0,0.0,0,0
2026-06-08 19:10:39.614,61211,R_Ankle,0.0336,-0.0176,1.0072,0.9,-1.87,-0.26,-2.28,28.58,-31.74,0.989166,0.044923,-0.084689,0.111118,0.0,0.0,0.0,0,0
2026-06-08 19:10:39.616,61375,L_Shank,0.0507,-0.0195,0.9998,1.74,-1.1,-0.06,6.46,26.38,-36.8,0.998016,-0.000763,-0.04709,0.041444,0.0,0.0,0.0,0,0
2026-06-08 19:10:39.617,61221,R_Ankle,0.0282,-0.021,1.0,0.89,-1.86,-0.26,0.0,0.0,0.0,0.989166,0.044923,-0.084689,0.111118,0.0,0.0,0.0,0,0
2026-06-08 19:10:39.620,61385,L_Shank,0.0472,-0.0092,0.9858,1.74,-1.09,-0.08,6.64,26.56,-37.58,0.998016,-0.000763,-0.04709,0.041444,0.0,0.0,0.0,0,0
2026-06-08 19:10:39.621,61231,R_Ankle,0.0282,-0.0245,0.9914,0.89,-1.85,-0.25,-0.55,28.57,-29.57,0.989166,0.044893,-0.084689,0.111118,0.0,0.0,0.0,0,0
2026-06-08 19:10:39.622,61362,L_Ankle,0.0462,0.0183,0.987,-0.71,-0.4,-0.85,-19.85,15.96,-45.77,0.968963,0.026826,-0.034761,0.243233,0.0,0.0,0.0,0,0
2026-06-08 19:10:39.624,61241,R_Ankle,0.0277,-0.0146,1.001,0.9,-1.87,-0.25,-3.14,27.78,-31.89,0.989166,0.044893,-0.084719,0.111118,0.0,0.0,0.0,0,0
2026-06-08 19:10:39.627,61372,L_Ankle,0.0536,0.009,0.9928,-0.7,-0.4,-0.86,-20.87,14.21,-45.79,0.968963,0.026826,-0.034761,0.243233,0.0,0.0,0.0,0,0
2026-06-08 19:10:39.628,61231,R_Shank,0.0404,-0.0724,1.01,-0.06,-0.89,-1.58,-9.71,19.19,-23.47,0.974029,0.029603,-0.02295,0.223273,0.0,0.0,0.0,0,0
2026-06-08 19:10:39.629,61382,L_Ankle,0.056,0.0134,0.9822,-0.69,-0.38,-0.83,0.0,0.0,0.0,0.968963,0.026856,-0.034791,0.243233,0.0,0.0,0.0,0,0
2026-06-08 19:10:39.631,61241,R_Shank,0.0267,3.2692,1.0052,-0.06,-0.88,-1.58,-8.7,19.17,-23.78,0.973998,0.029603,-0.02295,0.223304,0.0,0.0,0.0,0,0
2026-06-08 19:10:39.633,61392,L_Ankle,0.0594,0.0056,0.9904,-0.69,-0.38,-0.85,-20.19,14.19,-46.8,0.968963,0.026856,-0.034761,0.243233,0.0,0.0,0.0,0,0
2026-06-08 19:10:39.634,61251,R_Shank,0.0365,2.2392,0.9989,-0.06,-0.88,-1.59,0.0,0.0,0.0,0.973998,0.029603,-0.02295,0.223304,0.0,0.0,0.0,0,0
2026-06-08 19:10:39.636,61380,L_Shank,0.0507,-0.0107,0.9916,1.74,-1.1,-0.09,7.34,26.56,-37.27,0.998016,-0.000763,-0.047121,0.041444,0.0,0.0,0.0,0,0
2026-06-08 19:10:39.637,61261,R_Shank,0.036,-0.9728,1.0056,-0.06,-0.88,-1.58,-10.2,18.04,-23.62,0.973998,0.029603,-0.02295,0.223273,0.0,0.0,0.0,0,0
2026-06-08 19:10:39.639,61390,L_Shank,0.0467,-0.016,0.981,1.74,-1.09,-0.06,0.0,0.0,0.0,0.998016,-0.000763,-0.047121,0.041444,0.0,0.0,0.0,0,0
2026-06-08 19:10:39.641,61234,R_Ankle,0.0317,-0.0146,1.001,0.89,-1.87,-0.24,-0.73,29.37,-30.66,0.989166,0.044923,-0.084719,0.111118,0.0,0.0,0.0,0,0
2026-06-08 19:10:39.643,61400,L_Shank,0.0472,-0.0116,0.9863,1.73,-1.09,-0.07,4.35,28.07,-35.87,0.998016,-0.000763,-0.047121,0.041444,0.0,0.0,0.0,0,0
2026-06-08 19:10:39.645,61244,R_Ankle,0.0253,-0.021,1.0144,0.88,-1.86,-0.25,0.0,0.0,0.0,0.989166,0.044923,-0.084719,0.111118,0.0,0.0,0.0,0,0
2026-06-08 19:10:39.646,61410,L_Shank,0.0526,-0.0004,0.9906,1.73,-1.11,-0.08,6.11,27.41,-37.12,0.998016,-0.000763,-0.047151,0.041444,0.0,0.0,0.0,0,0
2026-06-08 19:10:39.648,61254,R_Ankle,0.0317,-0.0146,1.0139,0.9,-1.86,-0.27,-2.98,27.31,-32.35,0.989166,0.044923,-0.084719,0.111118,0.0,0.0,0.0,0,0
2026-06-08 19:10:39.649,61395,L_Hip,0.0896,-0.0749,0.9895,0.35,-0.13,0.8,14.33,31.79,-55.7,0.992981,-0.036225,-0.054018,-0.098575,0.0,0.0,0.0,0,0
2026-06-08 19:10:39.651,61264,R_Ankle,0.0341,-0.0057,1.0129,0.89,-1.87,-0.25,-1.77,27.46,-30.64,0.989166,0.044923,-0.084719,0.111118,0.0,0.0,0.0,0,0
2026-06-08 19:10:39.652,61405,L_Hip,0.0886,-0.0769,0.9958,0.37,-0.13,0.81,0.0,0.0,0.0,0.992981,-0.036225,-0.054048,-0.098575,0.0,0.0,0.0,0,0
2026-06-08 19:10:39.655,61239,R_Hip,-0.0268,-0.0003,1.0039,0.19,-1.2,1.51,-15.39,24.5,-27.16,0.989441,0.007355,-0.012085,-0.144047,0.0,0.0,0.0,0,0
2026-06-08 19:10:39.656,61415,L_Hip,0.0842,-0.0739,0.9982,0.36,-0.12,0.8,15.19,32.93,-55.57,0.992981,-0.036225,-0.054048,-0.098575,0.0,0.0,0.0,0,0
2026-06-08 19:10:39.659,61249,R_Hip,-0.0209,0.0015,1.0035,0.18,-1.21,1.51,-16.85,24.5,-27.85,0.989441,0.007355,-0.012116,-0.144017,0.0,0.0,0.0,0,0
2026-06-08 19:10:39.659,61425,L_Hip,0.0891,-0.0798,0.9938,0.35,-0.13,0.81,13.49,34.51,-52.94,0.992981,-0.036195,-0.054048,-0.098575,0.0,0.0,0.0,0,0
2026-06-08 19:10:39.661,61259,R_Hip,-0.0223,0.0006,0.9996,0.19,-1.21,1.52,0.0,0.0,0.0,0.989441,0.007355,-0.012085,-0.144047,0.0,0.0,0.0,0,0
2026-06-08 19:10:39.663,61405,L_Shank,0.0497,-0.016,0.9916,1.74,-1.12,-0.08,6.99,26.22,-37.27,0.998016,-0.000793,-0.047151,0.041475,0.0,0.0,0.0,0,0
2026-06-08 19:10:39.665,61269,R_Hip,-0.015,0.002,0.9982,0.2,-1.21,1.53,-17.21,25.6,-26.48,0.989441,0.007355,-0.012085,-0.144047,0.0,0.0,0.0,0,0
2026-06-08 19:10:39.665,61415,L_Shank,0.0487,-0.0043,0.9873,1.72,-1.11,-0.07,0.0,0.0,0.0,0.998016,-0.000793,-0.047121,0.041475,0.0,0.0,0.0,0,0
2026-06-08 19:10:39.668,61254,R_Shank,0.0296,0.0572,1.0215,-0.06,-0.9,-1.58,-9.68,17.53,-23.48,0.973998,0.029633,-0.02295,0.223304,0.0,0.0,0.0,0,0
2026-06-08 19:10:39.669,61425,L_Shank,0.0448,-0.0107,0.9777,1.74,-1.11,-0.07,5.95,27.59,-37.9,0.998016,-0.000763,-0.047121,0.041475,0.0,0.0,0.0,0,0
2026-06-08 19:10:39.671,61264,R_Shank,0.0291,3.2692,1.0061,-0.06,-0.89,-1.58,0.0,0.0,0.0,0.973998,0.029633,-0.02295,0.223304,0.0,0.0,0.0,0,0
2026-06-08 19:10:39.673,61435,L_Shank,0.0472,-0.0028,0.9902,1.73,-1.09,-0.07,5.76,27.07,-37.11,0.998016,-0.000793,-0.047121,0.041475,0.0,0.0,0.0,0,0
2026-06-08 19:10:39.675,61274,R_Shank,0.0311,2.4984,0.9994,-0.05,-0.89,-1.58,-10.02,17.22,-22.57,0.973998,0.029603,-0.02295,0.223304,0.0,0.0,0.0,0,0
2026-06-08 19:10:39.676,61407,L_Ankle,0.0462,0.0241,0.9822,-0.7,-0.41,-0.84,-19.49,14.54,-46.45,0.968963,0.026856,-0.034761,0.243233,0.0,0.0,0.0,0,0
2026-06-08 19:10:39.679,61284,R_Shank,0.0355,2.3688,1.0114,-0.06,-0.88,-1.58,-8.49,17.67,-24.55,0.973998,0.029603,-0.02295,0.223304,0.0,0.0,0.0,0,0
2026-06-08 19:10:39.679,61417,L_Ankle,0.0526,0.0139,1.0072,-0.7,-0.4,-0.85,-20.89,14.91,-46.13,0.968963,0.026856,-0.034761,0.243233,0.0,0.0,0.0,0,0
2026-06-08 19:10:39.682,61427,L_Ankle,0.0575,0.0139,1.0019,-0.71,-0.4,-0.83,0.0,0.0,0.0,0.968963,0.026826,-0.034761,0.243233,0.0,0.0,0.0,0,0
2026-06-08 19:10:39.683,61264,R_Hip,-0.0209,0.0064,0.9948,0.18,-1.21,1.52,-14.66,23.77,-26.13,0.989441,0.007324,-0.012085,-0.144017,0.0,0.0,0.0,0,0
2026-06-08 19:10:39.685,61437,L_Ankle,0.0506,0.0149,0.9894,-0.7,-0.41,-0.84,-20.53,15.98,-44.76,0.968963,0.026856,-0.03473,0.243233,0.0,0.0,0.0,0,0
2026-06-08 19:10:39.686,61274,R_Hip,-0.0253,0.0089,0.9905,0.19,-1.21,1.52,-14.66,23.77,-26.13,0.989471,0.007355,-0.012085,-0.144017,0.0,0.0,0.0,0,0
2026-06-08 19:10:39.689,61417,L_Hip,0.0852,-0.0769,0.9798,0.35,-0.13,0.82,13.82,33.23,-53.81,0.992981,-0.036225,-0.054048,-0.098575,0.0,0.0,0.0,0,0
2026-06-08 19:10:39.689,61284,R_Hip,-0.0189,-0.0018,1.001,0.18,-1.2,1.51,-17.03,24.68,-27.33,0.989471,0.007355,-0.012085,-0.144017,0.0,0.0,0.0,0,0
2026-06-08 19:10:39.692,61294,R_Hip,-0.0199,0.0108,0.9953,0.18,-1.19,1.51,0.0,0.0,0.0,0.989471,0.007355,-0.012085,-0.144017,0.0,0.0,0.0,0,0
2026-06-08 19:10:39.693,61427,L_Hip,0.0906,-0.0823,0.9875,0.36,-0.14,0.81,14.52,33.89,-54.99,0.992981,-0.036225,-0.054048,-0.098575,0.0,0.0,0.0,0,0
2026-06-08 19:10:39.695,61437,L_Hip,0.0906,-0.0764,0.9846,0.36,-0.12,0.82,0.0,0.0,0.0,0.992981,-0.036225,-0.054048,-0.098575,0.0,0.0,0.0,0,0
2026-06-08 19:10:39.696,61279,R_Ankle,0.0204,-0.0161,0.9957,0.9,-1.87,-0.24,-2.79,28.41,-31.59,0.989135,0.044954,-0.08475,0.111087,0.0,0.0,0.0,0,0
2026-06-08 19:10:39.698,61447,L_Hip,0.0891,-0.0759,0.9933,0.36,-0.12,0.83,14.18,33.88,-54.69,0.992981,-0.036225,-0.054048,-0.098575,0.0,0.0,0.0,0,0
2026-06-08 19:10:39.699,61289,R_Ankle,0.0214,-0.0176,1.0091,0.89,-1.87,-0.25,0.0,0.0,0.0,0.989135,0.044954,-0.08478,0.111118,0.0,0.0,0.0,0,0
2026-06-08 19:10:39.702,61452,L_Ankle,0.0565,0.0251,0.9731,-0.7,-0.38,-0.85,-20.19,14.9,-46.12,0.968963,0.026856,-0.034761,0.243233,0.0,0.0,0.0,0,0
2026-06-08 19:10:39.702,61299,R_Ankle,0.0248,-0.0101,1.0014,0.9,-1.86,-0.25,-1.95,28.6,-32.97,0.989135,0.044954,-0.08475,0.111118,0.0,0.0,0.0,0,0
2026-06-08 19:10:39.704,61462,L_Ankle,0.056,0.0178,0.9904,-0.7,-0.38,-0.86,-19.65,13.3,-46.96,0.968963,0.026856,-0.034761,0.243233,0.0,0.0,0.0,0,0
2026-06-08 19:10:39.705,61309,R_Ankle,0.0224,-0.022,0.9943,0.89,-1.87,-0.25,-1.6,27.95,-31.42,0.989135,0.044984,-0.08475,0.111118,0.0,0.0,0.0,0,0
2026-06-08 19:10:39.708,61472,L_Ankle,0.0555,0.0144,0.9827,-0.7,-0.38,-0.85,-20.01,14.01,-46.97,0.968963,0.026856,-0.03473,0.243233,0.0,0.0,0.0,0,0
2026-06-08 19:10:39.708,61299,R_Shank,0.0355,-0.0724,1.0037,-0.05,-0.88,-1.58,-9.51,17.69,-24.53,0.973998,0.029603,-0.02295,0.223304,0.0,0.0,0.0,0,0
2026-06-08 19:10:39.711,61482,L_Ankle,0.0526,0.0124,0.9861,-0.69,-0.38,-0.83,-21.22,14.92,-45.12,0.968963,0.026887,-0.0347,0.243233,0.0,0.0,0.0,0,0
2026-06-08 19:10:39.712,61309,R_Shank,0.0301,0.698,1.0109,-0.06,-0.89,-1.6,0.0,0.0,0.0,0.973998,0.029603,-0.02295,0.223304,0.0,0.0,0.0,0,0
2026-06-08 19:10:39.714,61455,L_Shank,0.058,-0.0019,0.9978,1.74,-1.12,-0.08,5.07,26.73,-37.41,0.998016,-0.000793,-0.047121,0.041475,0.0,0.0,0.0,0,0
2026-06-08 19:10:39.715,61319,R_Shank,0.0375,-2.3844,1.009,-0.08,-0.88,-1.58,-9.7,19.5,-25.27,0.973998,0.029603,-0.02295,0.223304,0.0,0.0,0.0,0,0
2026-06-08 19:10:39.717,61465,L_Shank,0.0497,-0.0126,0.9945,1.74,-1.1,-0.08,0.0,0.0,0.0,0.998016,-0.000763,-0.047121,0.041475,0.0,0.0,0.0,0,0
2026-06-08 19:10:39.719,61329,R_Shank,0.034,1.5984,1.009,-0.06,-0.88,-1.58,-8.86,18.02,-22.73,0.973998,0.029572,-0.02295,0.223304,0.0,0.0,0.0,0,0
2026-06-08 19:10:39.721,61475,L_Shank,0.0497,-0.0019,0.9959,1.74,-1.09,-0.07,7.0,26.58,-38.52,0.998016,-0.000732,-0.047121,0.041475,0.0,0.0,0.0,0,0
2026-06-08 19:10:39.722,61314,R_Hip,-0.0184,0.0142,1.0102,0.19,-1.2,1.52,-17.95,24.87,-27.85,0.989471,0.007355,-0.012116,-0.144017,0.0,0.0,0.0,0,0
2026-06-08 19:10:39.723,61485,L_Shank,0.0575,-0.0023,0.9974,1.74,-1.09,-0.08,5.24,27.92,-37.58,0.998016,-0.000763,-0.047121,0.041475,0.0,0.0,0.0,0,0
2026-06-08 19:10:39.725,61324,R_Hip,-0.0159,0.0006,1.0006,0.2,-1.21,1.52,-15.21,25.41,-26.99,0.989471,0.007355,-0.012116,-0.144017,0.0,0.0,0.0,0,0
2026-06-08 19:10:39.726,61462,L_Hip,0.0901,-0.0759,0.9929,0.35,-0.13,0.82,12.81,33.21,-54.09,0.992981,-0.036225,-0.054048,-0.098575,0.0,0.0,0.0,0,0
2026-06-08 19:10:39.728,61334,R_Hip,-0.0189,0.0001,0.9958,0.19,-1.19,1.51,0.0,0.0,0.0,0.989471,0.007355,-0.012116,-0.144017,0.0,0.0,0.0,0,0
2026-06-08 19:10:39.729,61472,L_Hip,0.0901,-0.0769,1.0069,0.36,-0.12,0.81,0.0,0.0,0.0,0.992981,-0.036225,-0.054048,-0.098575,0.0,0.0,0.0,0,0
2026-06-08 19:10:39.731,61344,R_Hip,-0.0268,0.0108,0.9986,0.19,-1.21,1.51,-16.31,25.42,-27.68,0.989471,0.007355,-0.012146,-0.144017,0.0,0.0,0.0,0,0
2026-06-08 19:10:39.732,61482,L_Hip,0.0945,-0.0735,1.0113,0.38,-0.13,0.8,14.0,33.07,-55.12,0.992981,-0.036225,-0.054018,-0.098605,0.0,0.0,0.0,0,0
2026-06-08 19:10:39.735,61344,R_Shank,0.038,-0.9728,1.0167,-0.06,-0.88,-1.58,-10.02,17.87,-23.77,0.973998,0.029572,-0.02295,0.223304,0.0,0.0,0.0,0,0
2026-06-08 19:10:39.736,61492,L_Hip,0.0906,-0.0798,1.0098,0.37,-0.12,0.82,13.16,33.54,-54.38,0.992981,-0.036225,-0.054018,-0.098575,0.0,0.0,0.0,0,0
2026-06-08 19:10:39.738,61354,R_Shank,0.0384,-2.1252,1.0028,-0.06,-0.89,-1.57,0.0,0.0,0.0,0.973998,0.029603,-0.02298,0.223304,0.0,0.0,0.0,0,0
2026-06-08 19:10:39.739,61475,L_Ankle,0.059,0.0134,0.9789,-0.69,-0.39,-0.85,-21.24,14.92,-46.48,0.968963,0.026856,-0.03473,0.243233,0.0,0.0,0.0,0,0
2026-06-08 19:10:39.741,61364,R_Shank,0.0281,-1.2252,1.0095,-0.06,-0.88,-1.59,-10.55,19.04,-23.91,0.973998,0.029633,-0.02298,0.223304,0.0,0.0,0.0,0,0
2026-06-08 19:10:39.742,61485,L_Ankle,0.056,0.0105,0.988,-0.7,-0.38,-0.84,0.0,0.0,0.0,0.968963,0.026887,-0.03473,0.243233,0.0,0.0,0.0,0,0
2026-06-08 19:10:39.744,61374,R_Shank,0.033,3.1396,1.0277,-0.06,-0.89,-1.58,-8.51,18.34,-23.94,0.973998,0.029572,-0.02298,0.223304,0.0,0.0,0.0,0,0
2026-06-08 19:10:39.745,61495,L_Ankle,0.0516,0.007,0.9914,-0.69,-0.38,-0.86,-20.18,14.55,-45.78,0.968963,0.026887,-0.0347,0.243233,0.0,0.0,0.0,0,0
2026-06-08 19:10:39.747,61505,L_Ankle,0.0541,0.0129,0.9928,-0.7,-0.38,-0.84,0.0,0.0,0.0,0.968963,0.026887,-0.0347,0.243233,0.0,0.0,0.0,0,0
2026-06-08 19:10:39.748,61345,R_Ankle,0.0282,-0.0161,1.0081,0.9,-1.87,-0.25,-2.1,28.73,-30.97,0.989135,0.044984,-0.08478,0.111118,0.0,0.0,0.0,0,0
2026-06-08 19:10:39.750,61480,L_Shank,0.059,-0.0121,0.9906,1.74,-1.1,-0.07,5.59,26.22,-37.56,0.998016,-0.000763,-0.047151,0.041475,0.0,0.0,0.0,0,0
2026-06-08 19:10:39.751,61355,R_Ankle,0.0228,-0.0126,1.0067,0.88,-1.87,-0.25,-1.43,29.07,-32.51,0.989135,0.045015,-0.08478,0.111118,0.0,0.0,0.0,0,0
2026-06-08 19:10:39.754,61490,L_Shank,0.0511,-0.0126,0.9878,1.73,-1.09,-0.08,6.45,28.07,-36.2,0.998016,-0.000763,-0.047151,0.041505,0.0,0.0,0.0,0,0
2026-06-08 19:10:39.754,61346,R_Ankle,0.0297,-0.022,1.0038,0.89,-1.86,-0.26,0.0,0.0,0.0,0.989135,0.045015,-0.08478,0.111118,0.0,0.0,0.0,0,0
2026-06-08 19:10:39.756,61500,L_Shank,0.0531,-0.0102,0.9854,1.73,-1.09,-0.08,0.0,0.0,0.0,0.998016,-0.000763,-0.047151,0.041505,0.0,0.0,0.0,0,0
2026-06-08 19:10:39.757,61356,R_Ankle,0.0268,-0.0136,1.0024,0.89,-1.87,-0.25,-2.11,28.74,-31.59,0.989135,0.044984,-0.08478,0.111118,0.0,0.0,0.0,0,0
2026-06-08 19:10:39.759,61510,L_Shank,0.0526,-0.0097,0.993,1.74,-1.09,-0.06,6.11,26.04,-36.48,0.998016,-0.000763,-0.047182,0.041505,0.0,0.0,0.0,0,0
2026-06-08 19:10:39.761,61364,R_Hip,-0.0169,-0.0003,1.001,0.19,-1.21,1.52,-16.67,23.59,-26.99,0.989471,0.007385,-0.012116,-0.144017,0.0,0.0,0.0,0,0
2026-06-08 19:10:39.763,61507,L_Hip,0.095,-0.0828,0.9904,0.37,-0.12,0.81,13.66,33.06,-54.53,0.992981,-0.036225,-0.054018,-0.098575,0.0,0.0,0.0,0,0
2026-06-08 19:10:39.764,61374,R_Hip,-0.0209,0.0059,1.0078,0.2,-1.21,1.5,-16.67,25.05,-27.68,0.989471,0.007385,-0.012085,-0.144017,0.0,0.0,0.0,0,0
2026-06-08 19:10:39.765,61517,L_Hip,0.0822,-0.0784,0.9914,0.37,-0.13,0.82,0.0,0.0,0.0,0.992981,-0.036225,-0.054018,-0.098575,0.0,0.0,0.0,0,0
2026-06-08 19:10:39.767,61384,R_Hip,-0.0223,0.004,0.9958,0.19,-1.21,1.51,-16.3,23.59,-27.67,0.989441,0.007385,-0.012116,-0.144017,0.0,0.0,0.0,0,0
2026-06-08 19:10:39.769,61527,L_Hip,0.0935,-0.0852,0.9967,0.35,-0.12,0.8,13.99,33.07,-54.25,0.992981,-0.036225,-0.054018,-0.098575,0.0,0.0,0.0,0,0
2026-06-08 19:10:39.770,61394,R_Hip,-0.0293,0.0098,0.9986,0.17,-1.21,1.51,0.0,0.0,0.0,0.989441,0.007385,-0.012116,-0.144017,0.0,0.0,0.0,0,0
2026-06-08 19:10:39.772,61537,L_Hip,0.0945,-0.0779,0.9933,0.35,-0.12,0.82,14.66,33.4,-53.68,0.992981,-0.036225,-0.053987,-0.098575,0.0,0.0,0.0,0,0
2026-06-08 19:10:39.773,61367,R_Shank,0.0375,3.2692,1.0181,-0.05,-0.89,-1.59,-8.35,18.82,-24.69,0.973998,0.029572,-0.02298,0.223304,0.0,0.0,0.0,0,0
2026-06-08 19:10:39.775,61520,L_Ankle,0.0457,0.009,0.9971,-0.71,-0.4,-0.85,-19.51,14.18,-48.15,0.968963,0.026887,-0.0347,0.243233,0.0,0.0,0.0,0,0
2026-06-08 19:10:39.776,61377,R_Shank,0.0365,0.1864,1.0023,-0.05,-0.89,-1.58,0.0,0.0,0.0,0.973998,0.029542,-0.02298,0.223304,0.0,0.0,0.0,0,0
2026-06-08 19:10:39.778,61530,L_Ankle,0.0511,0.0065,0.9861,-0.71,-0.4,-0.83,-21.24,13.5,-47.5,0.968963,0.026887,-0.0347,0.243233,0.0,0.0,0.0,0,0
2026-06-08 19:10:39.780,61387,R_Shank,0.0404,-0.7136,0.9999,-0.06,-0.9,-1.58,-9.72,19.52,-23.16,0.973998,0.029572,-0.02298,0.223304,0.0,0.0,0.0,0,0
2026-06-08 19:10:39.782,61540,L_Ankle,0.0565,0.0046,0.9909,-0.7,-0.39,-0.86,-21.06,13.67,-46.99,0.968963,0.026856,-0.0347,0.243233,0.0,0.0,0.0,0,0
2026-06-08 19:10:39.783,61397,R_Shank,0.0218,1.728,1.008,-0.06,-0.88,-1.58,-11.53,18.38,-25.11,0.973998,0.029542,-0.023011,0.223334,0.0,0.0,0.0,0,0
2026-06-08 19:10:39.784,61550,L_Ankle,0.0555,0.0056,0.9923,-0.7,-0.38,-0.83,0.0,0.0,0.0,0.968963,0.026856,-0.0347,0.243233,0.0,0.0,0.0,0,0
2026-06-08 19:10:39.787,61369,R_Ankle,0.0219,-0.0185,1.0172,0.89,-1.87,-0.25,-2.11,27.45,-30.34,0.989135,0.045015,-0.08478,0.111118,0.0,0.0,0.0,0,0
2026-06-08 19:10:39.787,61530,L_Shank,0.0507,-0.0087,0.9801,1.74,-1.09,-0.06,6.64,26.22,-37.26,0.998016,-0.000732,-0.047182,0.041505,0.0,0.0,0.0,0,0
2026-06-08 19:10:39.790,61540,L_Shank,0.0453,-0.0063,0.9791,1.73,-1.11,-0.07,0.0,0.0,0.0,0.998016,-0.000732,-0.047182,0.041505,0.0,0.0,0.0,0,0
2026-06-08 19:10:39.790,61379,R_Ankle,0.0356,-0.0181,0.9995,0.9,-1.86,-0.24,-1.25,27.62,-30.49,0.989135,0.045015,-0.08478,0.111118,0.0,0.0,0.0,0,0
2026-06-08 19:10:39.793,61550,L_Shank,0.0438,-0.0131,0.9887,1.73,-1.1,-0.07,5.77,26.74,-37.73,0.998016,-0.000702,-0.047182,0.041505,0.0,0.0,0.0,0,0
2026-06-08 19:10:39.793,61389,R_Ankle,0.0165,-0.023,0.999,0.89,-1.85,-0.24,0.0,0.0,0.0,0.989135,0.045015,-0.08478,0.111118,0.0,0.0,0.0,0,0
2026-06-08 19:10:39.796,61399,R_Ankle,0.0263,-0.0151,0.9962,0.89,-1.87,-0.25,-1.76,27.77,-30.03,0.989135,0.044984,-0.08475,0.111118,0.0,0.0,0.0,0,0
2026-06-08 19:10:39.796,61560,L_Shank,0.0521,-0.0185,0.982,1.74,-1.12,-0.08,6.81,26.73,-37.12,0.998016,-0.000732,-0.047212,0.041505,0.0,0.0,0.0,0,0
2026-06-08 19:10:39.799,61552,L_Hip,0.0911,-0.0798,0.9929,0.37,-0.13,0.8,14.47,32.27,-53.82,0.992981,-0.036195,-0.054018,-0.098575,0.0,0.0,0.0,0,0
2026-06-08 19:10:39.800,61389,R_Hip,-0.0312,0.0069,1.0121,0.18,-1.2,1.52,-17.76,23.95,-26.31,0.989441,0.007385,-0.012085,-0.144017,0.0,0.0,0.0,0,0
2026-06-08 19:10:39.802,61562,L_Hip,0.096,-0.0744,0.9895,0.35,-0.13,0.81,0.0,0.0,0.0,0.992981,-0.036195,-0.054018,-0.098605,0.0,0.0,0.0,0,0
2026-06-08 19:10:39.803,61399,R_Hip,-0.0159,0.0006,0.9991,0.19,-1.22,1.51,-17.21,25.23,-25.8,0.989471,0.007416,-0.012085,-0.144017,0.0,0.0,0.0,0,0
2026-06-08 19:10:39.805,61572,L_Hip,0.0925,-0.0838,0.9895,0.37,-0.12,0.8,14.67,32.76,-54.84,0.992981,-0.036195,-0.054018,-0.098605,0.0,0.0,0.0,0,0
2026-06-08 19:10:39.805,61409,R_Hip,-0.0288,0.0123,1.0136,0.19,-1.22,1.52,0.0,0.0,0.0,0.989471,0.007416,-0.012116,-0.144017,0.0,0.0,0.0,0,0
2026-06-08 19:10:39.808,61582,L_Hip,0.0901,-0.0838,0.9914,0.38,-0.13,0.81,14.68,33.09,-55.42,0.992981,-0.036225,-0.054018,-0.098605,0.0,0.0,0.0,0,0
2026-06-08 19:10:39.809,61419,R_Hip,-0.0233,0.0108,0.9953,0.18,-1.21,1.51,-14.85,24.68,-26.99,0.989471,0.007416,-0.012116,-0.144017,0.0,0.0,0.0,0,0
2026-06-08 19:10:39.811,61555,L_Shank,0.0521,-0.0131,1.007,1.73,-1.09,-0.07,6.81,27.75,-37.13,0.998016,-0.000732,-0.047212,0.041505,0.0,0.0,0.0,0,0
2026-06-08 19:10:39.812,61391,R_Ankle,0.0263,-0.022,1.0034,0.89,-1.87,-0.26,-1.42,28.41,-30.65,0.989135,0.045015,-0.08475,0.111118,0.0,0.0,0.0,0,0
2026-06-08 19:10:39.815,61565,L_Shank,0.058,-0.0097,0.9902,1.74,-1.09,-0.08,7.15,27.74,-36.51,0.998016,-0.000732,-0.047212,0.041505,0.0,0.0,0.0,0,0
2026-06-08 19:10:39.815,61401,R_Ankle,0.0233,-0.0166,1.0029,0.89,-1.86,-0.27,-2.78,27.76,-30.04,0.989135,0.045015,-0.08475,0.111118,0.0,0.0,0.0,0,0
2026-06-08 19:10:39.817,61575,L_Shank,0.0453,-0.0048,0.9834,1.74,-1.11,-0.09,0.0,0.0,0.0,0.998016,-0.000732,-0.047212,0.041505,0.0,0.0,0.0,0,0
2026-06-08 19:10:39.818,61411,R_Ankle,0.0243,-0.0166,1.0091,0.9,-1.87,-0.25,0.0,0.0,0.0,0.989135,0.045015,-0.084719,0.111118,0.0,0.0,0.0,0,0
2026-06-08 19:10:39.820,61585,L_Shank,0.0472,-0.0107,0.9954,1.74,-1.1,-0.09,6.11,26.39,-37.1,0.998016,-0.000732,-0.047212,0.041505,0.0,0.0,0.0,0,0
2026-06-08 19:10:39.821,61421,R_Ankle,0.0253,-0.0185,0.9962,0.89,-1.87,-0.25,-2.96,27.61,-31.12,0.989135,0.045015,-0.084719,0.111118,0.0,0.0,0.0,0,0
2026-06-08 19:10:39.823,61565,L_Ankle,0.0565,0.0168,1.0014,-0.7,-0.4,-0.85,-21.23,13.86,-46.48,0.968963,0.026826,-0.0347,0.243233,0.0,0.0,0.0,0,0
2026-06-08 19:10:39.825,61411,R_Shank,0.033,1.3392,1.009,-0.05,-0.9,-1.59,-10.53,18.37,-24.82,0.973998,0.029542,-0.023011,0.223334,0.0,0.0,0.0,0,0
2026-06-08 19:10:39.826,61575,L_Ankle,0.0541,0.0149,0.988,-0.7,-0.4,-0.84,-20.17,13.48,-46.46,0.968963,0.026795,-0.0347,0.243233,0.0,0.0,0.0,0,0
2026-06-08 19:10:39.828,61421,R_Shank,0.036,-2.3844,1.0071,-0.06,-0.9,-1.58,-9.04,19.17,-23.78,0.973998,0.029542,-0.023011,0.223334,0.0,0.0,0.0,0,0
2026-06-08 19:10:39.830,61585,L_Ankle,0.0585,0.0163,0.9808,-0.7,-0.4,-0.84,-19.68,14.0,-47.64,0.968963,0.026795,-0.0347,0.243233,0.0,0.0,0.0,0,0
2026-06-08 19:10:39.832,61431,R_Shank,0.0335,-3.0256,0.9999,-0.05,-0.88,-1.59,-8.5,17.67,-24.24,0.973998,0.029572,-0.023011,0.223334,0.0,0.0,0.0,0,0
2026-06-08 19:10:39.833,61595,L_Ankle,0.0555,0.0085,0.9866,-0.69,-0.41,-0.84,-19.68,14.36,-47.64,0.968963,0.026795,-0.0347,0.243233,0.0,0.0,0.0,0,0
2026-06-08 19:10:39.835,61441,R_Shank,0.0306,-1.1024,0.9994,-0.06,-0.9,-1.58,-8.67,18.17,-24.39,0.973998,0.029572,-0.023011,0.223334,0.0,0.0,0.0,0,0
2026-06-08 19:10:39.836,61575,L_Hip,0.0906,-0.0793,0.9982,0.35,-0.13,0.8,13.65,32.74,-54.82,0.992981,-0.036225,-0.053987,-0.098605,0.0,0.0,0.0,0,0
2026-06-08 19:10:39.838,61436,R_Ankle,0.0248,-0.022,0.9971,0.9,-1.86,-0.25,-2.8,27.46,-31.58,0.989135,0.045015,-0.084689,0.111118,0.0,0.0,0.0,0,0
2026-06-08 19:10:39.839,61585,L_Hip,0.0906,-0.0823,0.9943,0.37,-0.13,0.81,13.49,33.22,-54.39,0.992981,-0.036225,-0.054018,-0.098605,0.0,0.0,0.0,0,0
2026-06-08 19:10:39.841,61446,R_Ankle,0.0282,-0.0205,1.0024,0.88,-1.85,-0.25,-1.44,27.79,-31.88,0.989135,0.045015,-0.084719,0.111118,0.0,0.0,0.0,0,0
2026-06-08 19:10:39.841,61595,L_Hip,0.0867,-0.0833,0.9929,0.36,-0.14,0.82,0.0,0.0,0.0,0.992981,-0.036195,-0.054018,-0.098605,0.0,0.0,0.0,0,0
2026-06-08 19:10:39.844,61456,R_Ankle,0.0238,-0.0141,1.0077,0.89,-1.85,-0.25,0.0,0.0,0.0,0.989135,0.044984,-0.084719,0.111118,0.0,0.0,0.0,0,0
2026-06-08 19:10:39.845,61605,L_Hip,0.092,-0.0715,0.9953,0.36,-0.12,0.82,13.99,33.07,-54.25,0.992981,-0.036195,-0.054018,-0.098605,0.0,0.0,0.0,0,0
2026-06-08 19:10:39.848,61466,R_Ankle,0.0282,-0.0131,1.0081,0.89,-1.87,-0.25,-1.61,26.99,-31.1,0.989135,0.044984,-0.084719,0.111118,0.0,0.0,0.0,0,0
2026-06-08 19:10:39.849,61605,L_Shank,0.0394,-0.0092,1.0036,1.74,-1.09,-0.07,6.12,27.41,-37.43,0.998016,-0.000763,-0.047212,0.041505,0.0,0.0,0.0,0,0
2026-06-08 19:10:39.852,61439,R_Hip,-0.0253,0.004,0.9962,0.18,-1.2,1.51,-15.94,24.68,-27.33,0.989471,0.007416,-0.012085,-0.144017,0.0,0.0,0.0,0,0
2026-06-08 19:10:39.853,61615,L_Shank,0.0551,-0.0116,0.9887,1.73,-1.11,-0.07,6.11,26.73,-37.11,0.998016,-0.000763,-0.047212,0.041505,0.0,0.0,0.0,0,0
2026-06-08 19:10:39.856,61449,R_Hip,-0.0145,0.0045,1.0035,0.19,-1.21,1.51,-16.12,23.4,-26.82,0.989471,0.007447,-0.012116,-0.143986,0.0,0.0,0.0,0,0
2026-06-08 19:10:39.857,61625,L_Shank,0.0458,-0.0063,0.9878,1.73,-1.09,-0.07,0.0,0.0,0.0,0.998016,-0.000732,-0.047212,0.041505,0.0,0.0,0.0,0,0
2026-06-08 19:10:39.860,61459,R_Hip,-0.0169,0.0001,1.001,0.19,-1.21,1.52,-16.49,24.5,-27.5,0.989471,0.007447,-0.012116,-0.143986,0.0,0.0,0.0,0,0
2026-06-08 19:10:39.861,61635,L_Shank,0.0555,-0.0116,0.9854,1.74,-1.1,-0.08,6.63,26.56,-36.96,0.998016,-0.000732,-0.047212,0.041505,0.0,0.0,0.0,0,0
2026-06-08 19:10:39.863,61469,R_Hip,-0.0179,0.0079,1.0001,0.19,-1.21,1.51,0.0,0.0,0.0,0.989471,0.007447,-0.012146,-0.143986,0.0,0.0,0.0,0,0
2026-06-08 19:10:39.864,61610,L_Ankle,0.0536,0.0075,0.9918,-0.7,-0.39,-0.83,-19.48,13.12,-47.47,0.968963,0.026795,-0.0347,0.243233,0.0,0.0,0.0,0,0
2026-06-08 19:10:39.867,61456,R_Shank,0.0311,2.3688,1.0109,-0.06,-0.9,-1.58,-9.36,18.19,-23.48,0.973998,0.029542,-0.023011,0.223304,0.0,0.0,0.0,0,0
2026-06-08 19:10:39.868,61620,L_Ankle,0.059,0.0124,0.9966,-0.7,-0.38,-0.83,0.0,0.0,0.0,0.968963,0.026795,-0.03473,0.243233,0.0,0.0,0.0,0,0
2026-06-08 19:10:39.871,61466,R_Shank,0.0326,-1.7432,1.0273,-0.06,-0.88,-1.58,-9.87,19.02,-24.22,0.973998,0.029542,-0.023011,0.223334,0.0,0.0,0.0,0,0
2026-06-08 19:10:39.871,61630,L_Ankle,0.0604,0.0139,1.0014,-0.7,-0.39,-0.83,-20.04,15.43,-47.3,0.968963,0.026795,-0.03473,0.243233,0.0,0.0,0.0,0,0
2026-06-08 19:10:39.875,61476,R_Shank,0.0384,3.01,1.0143,-0.06,-0.89,-1.58,-9.51,17.69,-24.23,0.973998,0.029542,-0.02298,0.223334,0.0,0.0,0.0,0,0
2026-06-08 19:10:39.875,61640,L_Ankle,0.0516,0.0119,0.9746,-0.7,-0.4,-0.86,-21.08,14.74,-47.33,0.968963,0.026795,-0.03473,0.243233,0.0,0.0,0.0,0,0
2026-06-08 19:10:39.877,61486,R_Shank,0.0335,-0.9728,0.9956,-0.06,-0.88,-1.58,0.0,0.0,0.0,0.973998,0.029572,-0.023011,0.223334,0.0,0.0,0.0,0,0
2026-06-08 19:10:39.878,61630,L_Shank,0.0379,-0.0097,0.993,1.73,-1.09,-0.07,7.33,26.21,-36.65,0.998016,-0.000732,-0.047212,0.041505,0.0,0.0,0.0,0,0
2026-06-08 19:10:39.880,61464,R_Hip,-0.0209,0.0118,1.0035,0.19,-1.21,1.51,-16.67,24.32,-27.33,0.989471,0.007447,-0.012177,-0.143986,0.0,0.0,0.0,0,0
2026-06-08 19:10:39.881,61640,L_Shank,0.0599,0.002,0.9878,1.74,-1.09,-0.06,6.1,25.7,-36.47,0.998016,-0.000732,-0.047212,0.041505,0.0,0.0,0.0,0,0
2026-06-08 19:10:39.883,61474,R_Hip,-0.0164,0.0054,1.0073,0.18,-1.21,1.51,-16.67,23.96,-28.7,0.989471,0.007477,-0.012177,-0.143986,0.0,0.0,0.0,0,0
2026-06-08 19:10:39.884,61650,L_Shank,0.0463,0.0078,0.9801,1.74,-1.1,-0.07,0.0,0.0,0.0,0.998016,-0.000702,-0.047212,0.041505,0.0,0.0,0.0,0,0
2026-06-08 19:10:39.886,61484,R_Hip,-0.0228,-0.0018,1.003,0.19,-1.21,1.52,0.0,0.0,0.0,0.989471,0.007508,-0.012177,-0.143986,0.0,0.0,0.0,0,0
2026-06-08 19:10:39.887,61660,L_Shank,0.0472,-0.0131,0.9902,1.73,-1.1,-0.08,6.28,26.54,-36.02,0.998016,-0.000702,-0.047212,0.041505,0.0,0.0,0.0,0,0
2026-06-08 19:10:39.889,61494,R_Hip,-0.0219,-0.0023,0.9924,0.19,-1.2,1.51,-15.21,24.68,-26.99,0.989471,0.007508,-0.012177,-0.143986,0.0,0.0,0.0,0,0
2026-06-08 19:10:39.890,61642,L_Hip,0.094,-0.0818,0.9841,0.35,-0.12,0.82,13.64,32.42,-54.53,0.992981,-0.036195,-0.054018,-0.098605,0.0,0.0,0.0,0,0
2026-06-08 19:10:39.893,61479,R_Shank,0.0414,1.5984,1.0196,-0.05,-0.89,-1.58,-8.19,19.32,-24.54,0.973998,0.029572,-0.02298,0.223334,0.0,0.0,0.0,0,0
2026-06-08 19:10:39.893,61652,L_Hip,0.0857,-0.0823,0.9914,0.37,-0.12,0.81,12.82,33.21,-54.96,0.992981,-0.036195,-0.053987,-0.098605,0.0,0.0,0.0,0,0
2026-06-08 19:10:39.896,61489,R_Shank,0.0355,0.9572,0.998,-0.05,-0.89,-1.57,-9.19,18.67,-24.53,0.973998,0.029542,-0.02298,0.223334,0.0,0.0,0.0,0,0
2026-06-08 19:10:39.896,61662,L_Hip,0.095,-0.0916,0.9885,0.36,-0.12,0.82,0.0,0.0,0.0,0.992981,-0.036195,-0.053987,-0.098605,0.0,0.0,0.0,0,0
2026-06-08 19:10:39.899,61499,R_Shank,0.033,-1.6136,0.9975,-0.05,-0.89,-1.58,0.0,0.0,0.0,0.973998,0.029542,-0.02298,0.223334,0.0,0.0,0.0,0,0
2026-06-08 19:10:39.899,61672,L_Hip,0.095,-0.0793,0.9919,0.35,-0.12,0.81,14.19,33.88,-55.27,0.992981,-0.036195,-0.053987,-0.098605,0.0,0.0,0.0,0,0
2026-06-08 19:10:39.902,61509,R_Shank,0.0335,-1.6136,1.0196,-0.06,-0.87,-1.58,-8.84,18.33,-24.84,0.973998,0.029542,-0.023011,0.223334,0.0,0.0,0.0,0,0
2026-06-08 19:10:39.902,61665,L_Hip,0.094,-0.073,0.9885,0.37,-0.14,0.82,14.16,32.27,-55.56,0.992981,-0.036225,-0.053987,-0.098605,0.0,0.0,0.0,0,0
2026-06-08 19:10:39.905,61675,L_Hip,0.0813,-0.0739,0.9904,0.36,-0.13,0.8,13.66,34.03,-53.96,0.992981,-0.036225,-0.054018,-0.098605,0.0,0.0,0.0,0,0
2026-06-08 19:10:39.906,61481,R_Ankle,0.0366,-0.0067,1.0014,0.88,-1.87,-0.26,-0.92,27.95,-31.1,0.989135,0.044984,-0.084719,0.111118,0.0,0.0,0.0,0,0
2026-06-08 19:10:39.908,61685,L_Hip,0.0984,-0.0681,0.9929,0.36,-0.14,0.81,0.0,0.0,0.0,0.992981,-0.036225,-0.053987,-0.098605,0.0,0.0,0.0,0,0
2026-06-08 19:10:39.909,61491,R_Ankle,0.0277,-0.0146,1.0058,0.89,-1.87,-0.25,-1.75,29.04,-30.35,0.989135,0.044984,-0.084719,0.111118,0.0,0.0,0.0,0,0
2026-06-08 19:10:39.911,61695,L_Hip,0.0916,-0.0749,0.9914,0.36,-0.14,0.8,14.16,32.91,-54.4,0.992981,-0.036256,-0.053987,-0.098605,0.0,0.0,0.0,0,0
2026-06-08 19:10:39.912,61501,R_Ankle,0.0336,-0.0255,1.0038,0.9,-1.86,-0.25,0.0,0.0,0.0,0.989135,0.045015,-0.08475,0.111118,0.0,0.0,0.0,0,0
2026-06-08 19:10:39.914,61678,L_Ankle,0.0526,0.0149,0.9986,-0.7,-0.39,-0.84,-19.33,15.06,-46.95,0.968963,0.026826,-0.034761,0.243233,0.0,0.0,0.0,0,0
2026-06-08 19:10:39.915,61511,R_Ankle,0.0263,-0.0176,0.9995,0.89,-1.87,-0.26,-1.59,29.22,-31.43,0.989135,0.045015,-0.08475,0.111118,0.0,0.0,0.0,0,0
2026-06-08 19:10:39.917,61688,L_Ankle,0.0585,0.0061,0.9827,-0.7,-0.4,-0.85,0.0,0.0,0.0,0.968963,0.026826,-0.034761,0.243233,0.0,0.0,0.0,0,0
2026-06-08 19:10:39.918,61526,R_Ankle,0.0238,-0.0205,1.0038,0.89,-1.86,-0.26,-2.1,27.77,-30.34,0.989135,0.045015,-0.08478,0.111118,0.0,0.0,0.0,0,0
2026-06-08 19:10:39.920,61698,L_Ankle,0.0526,0.0256,0.9923,-0.69,-0.39,-0.85,-20.37,14.73,-46.63,0.968963,0.026826,-0.034761,0.243233,0.0,0.0,0.0,0,0
2026-06-08 19:10:39.921,61536,R_Ankle,0.0233,-0.0126,0.9914,0.89,-1.86,-0.25,-1.6,28.26,-31.42,0.989135,0.045015,-0.08478,0.111118,0.0,0.0,0.0,0,0
2026-06-08 19:10:39.923,61708,L_Ankle,0.0599,0.0105,0.9976,-0.69,-0.38,-0.83,-20.38,15.08,-46.97,0.968963,0.026826,-0.034761,0.243233,0.0,0.0,0.0,0,0
2026-06-08 19:10:39.924,61546,R_Ankle,0.0268,-0.019,0.9933,0.9,-1.86,-0.25,0.0,0.0,0.0,0.989135,0.045015,-0.08475,0.111118,0.0,0.0,0.0,0,0
2026-06-08 19:10:39.926,61680,L_Shank,0.0497,-0.0058,0.9767,1.74,-1.09,-0.09,5.6,25.56,-38.8,0.998016,-0.000702,-0.047212,0.041505,0.0,0.0,0.0,0,0
2026-06-08 19:10:39.927,61556,R_Ankle,0.0302,-0.0245,0.999,0.9,-1.87,-0.25,-0.57,29.55,-31.73,0.989135,0.045015,-0.08475,0.111118,0.0,0.0,0.0,0,0
2026-06-08 19:10:39.928,61690,L_Shank,0.0497,0.0059,0.9935,1.74,-1.1,-0.07,6.64,27.24,-37.59,0.998016,-0.000702,-0.047243,0.041505,0.0,0.0,0.0,0,0
2026-06-08 19:10:39.930,61539,R_Hip,-0.0317,-0.0008,1.0006,0.19,-1.2,1.52,-17.03,24.68,-26.31,0.989441,0.007508,-0.012207,-0.144017,0.0,0.0,0.0,0,0
2026-06-08 19:10:39.932,61700,L_Shank,0.0609,-0.0077,1.0031,1.73,-1.1,-0.08,0.0,0.0,0.0,0.998016,-0.000702,-0.047212,0.041505,0.0,0.0,0.0,0,0
2026-06-08 19:10:39.934,61549,R_Hip,-0.0199,0.0045,0.9967,0.2,-1.22,1.51,-17.03,24.32,-26.99,0.989441,0.007508,-0.012177,-0.144017,0.0,0.0,0.0,0,0
2026-06-08 19:10:39.936,61710,L_Shank,0.0594,-0.0058,0.9815,1.74,-1.09,-0.07,6.46,26.39,-37.42,0.998016,-0.000702,-0.047212,0.041505,0.0,0.0,0.0,0,0
2026-06-08 19:10:39.938,61559,R_Hip,-0.0283,0.0069,1.0025,0.19,-1.22,1.51,-18.31,23.04,-28.19,0.989441,0.007477,-0.012177,-0.144017,0.0,0.0,0.0,0,0
2026-06-08 19:10:39.940,61700,L_Ankle,0.0433,0.0119,0.9875,-0.74,-0.4,-0.85,-20.02,14.01,-47.31,0.968963,0.026795,-0.034791,0.243233,0.0,0.0,0.0,0,0
2026-06-08 19:10:39.942,61569,R_Hip,-0.0238,0.0103,1.0112,0.19,-1.22,1.51,-15.76,24.5,-27.5,0.989441,0.007508,-0.012177,-0.144017,0.0,0.0,0.0,0,0
2026-06-08 19:10:39.943,61710,L_Ankle,0.059,0.0114,0.9856,-0.72,-0.37,-0.84,0.0,0.0,0.0,0.968963,0.026826,-0.034791,0.243233,0.0,0.0,0.0,0,0
2026-06-08 19:10:39.945,61546,R_Shank,0.0188,1.3392,1.0095,-0.06,-0.87,-1.59,-10.03,18.2,-24.07,0.973998,0.029542,-0.02298,0.223334,0.0,0.0,0.0,0,0
2026-06-08 19:10:39.946,61720,L_Ankle,0.0545,0.0129,0.9765,-0.7,-0.39,-0.83,-19.49,15.6,-45.76,0.968963,0.026887,-0.034791,0.243233,0.0,0.0,0.0,0,0
2026-06-08 19:10:39.950,61556,R_Shank,0.0218,-1.7432,1.0028,-0.07,-0.87,-1.58,-9.54,19.02,-23.92,0.973998,0.029542,-0.023011,0.223334,0.0,0.0,0.0,0,0
2026-06-08 19:10:39.950,61730,L_Ankle,0.0526,0.0119,0.9866,-0.71,-0.4,-0.84,-19.49,14.54,-46.45,0.968963,0.026856,-0.034791,0.243233,0.0,0.0,0.0,0,0
2026-06-08 19:10:39.953,61566,R_Shank,0.0409,-0.0724,1.0095,-0.06,-0.87,-1.58,0.0,0.0,0.0,0.973998,0.029542,-0.02295,0.223334,0.0,0.0,0.0,0,0
2026-06-08 19:10:39.954,61710,L_Hip,0.0994,-0.0848,1.0001,0.37,-0.12,0.81,14.48,32.59,-53.82,0.992981,-0.036287,-0.053987,-0.098605,0.0,0.0,0.0,0,0
2026-06-08 19:10:39.956,61576,R_Shank,0.0345,0.8276,1.0028,-0.07,-0.87,-1.58,-9.02,18.51,-23.78,0.973998,0.029542,-0.02295,0.223365,0.0,0.0,0.0,0,0
2026-06-08 19:10:39.957,61720,L_Hip,0.0925,-0.073,0.9909,0.36,-0.13,0.8,14.33,32.75,-54.83,0.992981,-0.036287,-0.053987,-0.098605,0.0,0.0,0.0,0,0
2026-06-08 19:10:39.959,61730,L_Hip,0.0881,-0.0739,0.9919,0.36,-0.13,0.83,0.0,0.0,0.0,0.992981,-0.036256,-0.053987,-0.098605,0.0,0.0,0.0,0,0
2026-06-08 19:10:39.960,61564,R_Hip,-0.0283,0.0054,0.9972,0.19,-1.2,1.52,-16.31,24.32,-28.02,0.989441,0.007508,-0.012177,-0.144017,0.0,0.0,0.0,0,0
2026-06-08 19:10:39.962,61740,L_Hip,0.0945,-0.0779,0.9745,0.36,-0.13,0.81,14.48,32.27,-54.4,0.992981,-0.036256,-0.053987,-0.098605,0.0,0.0,0.0,0,0
2026-06-08 19:10:39.963,61574,R_Hip,-0.0169,0.0118,1.0092,0.18,-1.19,1.51,0.0,0.0,0.0,0.989441,0.007538,-0.012177,-0.144017,0.0,0.0,0.0,0,0
2026-06-08 19:10:39.965,61722,L_Ankle,0.0531,0.0149,0.9957,-0.71,-0.38,-0.85,-19.51,14.89,-47.13,0.968963,0.026856,-0.034791,0.243233,0.0,0.0,0.0,0,0
2026-06-08 19:10:39.966,61584,R_Hip,-0.0219,-0.0013,0.9972,0.18,-1.21,1.51,-16.85,24.13,-27.16,0.989441,0.007538,-0.012116,-0.144017,0.0,0.0,0.0,0,0
2026-06-08 19:10:39.968,61732,L_Ankle,0.0545,0.0065,0.9894,-0.7,-0.38,-0.86,0.0,0.0,0.0,0.968963,0.026826,-0.034822,0.243233,0.0,0.0,0.0,0,0
2026-06-08 19:10:39.968,61594,R_Hip,-0.0179,-0.0037,0.9885,0.18,-1.22,1.53,0.0,0.0,0.0,0.989441,0.007538,-0.012146,-0.144017,0.0,0.0,0.0,0,0
2026-06-08 19:10:39.971,61742,L_Ankle,0.0634,0.0212,0.987,-0.69,-0.4,-0.84,-20.17,14.2,-45.44,0.968963,0.026826,-0.034822,0.243233,0.0,0.0,0.0,0,0
2026-06-08 19:10:39.972,61569,R_Shank,0.038,3.2692,0.9984,-0.07,-0.87,-1.58,-9.18,18.34,-24.83,0.973998,0.029542,-0.02295,0.223365,0.0,0.0,0.0,0,0
2026-06-08 19:10:39.975,61752,L_Ankle,0.0467,0.0065,0.9808,-0.7,-0.4,-0.86,-19.3,14.36,-45.93,0.968963,0.026826,-0.034822,0.243233,0.0,0.0,0.0,0,0
2026-06-08 19:10:39.975,61579,R_Shank,0.0237,2.628,0.9903,-0.06,-0.89,-1.58,-11.23,19.38,-23.9,0.973998,0.029511,-0.02295,0.223365,0.0,0.0,0.0,0,0
2026-06-08 19:10:39.977,61589,R_Shank,0.0321,-1.1024,1.0114,-0.06,-0.88,-1.59,0.0,0.0,0.0,0.973998,0.029511,-0.02298,0.223365,0.0,0.0,0.0,0,0
2026-06-08 19:10:39.978,61730,L_Shank,0.0467,-0.0151,0.982,1.74,-1.11,-0.08,6.29,26.56,-37.58,0.998016,-0.000671,-0.047212,0.041505,0.0,0.0,0.0,0,0
2026-06-08 19:10:39.980,61599,R_Shank,0.034,0.0572,1.0109,-0.06,-0.87,-1.59,-9.53,18.69,-23.92,0.973998,0.029481,-0.02295,0.223365,0.0,0.0,0.0,0,0
2026-06-08 19:10:39.980,61740,L_Shank,0.0497,-0.0019,0.9892,1.72,-1.1,-0.08,5.94,27.24,-37.27,0.998016,-0.000671,-0.047212,0.041505,0.0,0.0,0.0,0,0
2026-06-08 19:10:39.983,61750,L_Shank,0.0551,-0.0077,0.9758,1.73,-1.09,-0.09,5.94,26.22,-36.94,0.998016,-0.000641,-0.047212,0.041505,0.0,0.0,0.0,0,0
2026-06-08 19:10:39.983,61571,R_Ankle,0.0253,-0.0151,1.0067,0.89,-1.86,-0.25,-2.97,27.62,-31.43,0.989135,0.045015,-0.08475,0.111148,0.0,0.0,0.0,0,0
2026-06-08 19:10:39.986,61760,L_Shank,0.0492,-0.0082,0.9978,1.73,-1.09,-0.06,0.0,0.0,0.0,0.998016,-0.000641,-0.047212,0.041505,0.0,0.0,0.0,0,0
2026-06-08 19:10:39.987,61581,R_Ankle,0.0238,-0.0205,0.9952,0.89,-1.87,-0.26,-1.42,28.74,-30.96,0.989135,0.045015,-0.08478,0.111148,0.0,0.0,0.0,0,0
2026-06-08 19:10:39.988,61591,R_Ankle,0.0282,-0.0076,0.9995,0.89,-1.86,-0.25,0.0,0.0,0.0,0.989135,0.045015,-0.08475,0.111118,0.0,0.0,0.0,0,0
2026-06-08 19:10:39.991,61601,R_Ankle,0.0326,-0.0245,1.0115,0.9,-1.86,-0.25,-1.6,28.91,-32.05,0.989135,0.045045,-0.08475,0.111118,0.0,0.0,0.0,0,0
2026-06-08 19:10:39.993,61589,R_Hip,-0.0174,0.0089,1.0068,0.18,-1.2,1.51,-16.85,23.04,-26.82,0.989441,0.007508,-0.012146,-0.144017,0.0,0.0,0.0,0,0
2026-06-08 19:10:39.995,61599,R_Hip,-0.0238,0.0064,1.003,0.19,-1.21,1.51,-16.3,23.58,-26.65,0.989441,0.007477,-0.012146,-0.144017,0.0,0.0,0.0,0,0
2026-06-08 19:10:39.997,61609,R_Hip,-0.0288,0.0098,1.0001,0.19,-1.19,1.51,0.0,0.0,0.0,0.989441,0.007477,-0.012146,-0.144017,0.0,0.0,0.0,0,0
2026-06-08 19:10:39.999,61619,R_Hip,-0.0214,0.0123,1.0054,0.19,-1.2,1.51,-15.57,23.58,-26.3,0.989441,0.007508,-0.012116,-0.144017,0.0,0.0,0.0,0,0
2026-06-08 19:10:40.001,61594,R_Ankle,0.0273,-0.0161,0.9928,0.89,-1.87,-0.27,-2.63,27.3,-31.11,0.989135,0.045015,-0.08475,0.111118,0.0,0.0,0.0,0,0
2026-06-08 19:10:40.004,61604,R_Ankle,0.0297,-0.019,0.9957,0.9,-1.87,-0.25,-0.74,28.42,-30.64,0.989135,0.045015,-0.08475,0.111118,0.0,0.0,0.0,0,0
2026-06-08 19:10:40.006,61614,R_Ankle,0.0253,-0.0072,1.0144,0.9,-1.86,-0.25,0.0,0.0,0.0,0.989135,0.045015,-0.08478,0.111118,0.0,0.0,0.0,0,0
2026-06-08 19:10:40.008,61624,R_Ankle,0.0243,-0.0136,1.0134,0.9,-1.87,-0.25,-1.43,27.78,-30.95,0.989135,0.045045,-0.08475,0.111118,0.0,0.0,0.0,0,0
2026-06-08 19:10:40.011,61778,L_Hip,0.0911,-0.0779,0.9938,0.36,-0.11,0.81,13.65,33.06,-54.24,0.992981,-0.036225,-0.054018,-0.098605,0.0,0.0,0.0,0,0
2026-06-08 19:10:40.012,61637,R_Shank,0.0267,-2.514,0.9989,-0.06,-0.88,-1.58,-10.19,17.71,-23.62,0.973998,0.029511,-0.02295,0.223365,0.0,0.0,0.0,0,0
2026-06-08 19:10:40.014,61788,L_Hip,0.0989,-0.0838,0.9861,0.37,-0.12,0.8,12.98,33.37,-54.23,0.992981,-0.036225,-0.054018,-0.098605,0.0,0.0,0.0,0,0
2026-06-08 19:10:40.015,61647,R_Shank,0.0335,0.8276,1.0061,-0.05,-0.89,-1.59,-10.55,18.71,-23.61,0.973998,0.029511,-0.02295,0.223365,0.0,0.0,0.0,0,0
2026-06-08 19:10:40.017,61798,L_Hip,0.0911,-0.0784,0.9885,0.36,-0.12,0.81,14.86,34.22,-54.7,0.992981,-0.036225,-0.054018,-0.098605,0.0,0.0,0.0,0,0
2026-06-08 19:10:40.018,61657,R_Shank,0.0448,-2.514,1.0047,-0.06,-0.88,-1.58,0.0,0.0,0.0,0.973998,0.029511,-0.022889,0.223365,0.0,0.0,0.0,0,0
2026-06-08 19:10:40.020,61808,L_Hip,0.0935,-0.0823,0.9972,0.35,-0.13,0.8,0.0,0.0,0.0,0.992981,-0.036225,-0.054048,-0.098605,0.0,0.0,0.0,0,0
2026-06-08 19:10:40.021,61667,R_Shank,0.0267,1.728,1.0133,-0.06,-0.88,-1.58,-9.02,17.85,-23.18,0.973998,0.029542,-0.022919,0.223365,0.0,0.0,0.0,0,0
2026-06-08 19:10:40.023,61779,L_Shank,0.0507,-0.0043,0.9873,1.74,-1.1,-0.07,6.64,27.58,-37.28,0.998016,-0.00061,-0.047243,0.041505,0.0,0.0,0.0,0,0
2026-06-08 19:10:40.024,61639,R_Hip,-0.0327,0.002,1.0068,0.2,-1.22,1.52,-15.39,25.23,-26.48,0.989441,0.007538,-0.012116,-0.144017,0.0,0.0,0.0,0,0
2026-06-08 19:10:40.026,61789,L_Shank,0.0409,-0.0063,0.9854,1.74,-1.11,-0.08,5.58,26.21,-36.32,0.998016,-0.00061,-0.047243,0.041505,0.0,0.0,0.0,0,0
2026-06-08 19:10:40.027,61649,R_Hip,-0.0189,-0.0062,1.003,0.19,-1.23,1.52,-17.58,25.23,-26.48,0.989471,0.007538,-0.012116,-0.144017,0.0,0.0,0.0,0,0
2026-06-08 19:10:40.028,61799,L_Shank,0.0531,-0.0121,0.9964,1.74,-1.09,-0.08,0.0,0.0,0.0,0.998016,-0.00061,-0.047273,0.041536,0.0,0.0,0.0,0,0
2026-06-08 19:10:40.030,61659,R_Hip,-0.0204,0.002,1.0035,0.18,-1.21,1.51,0.0,0.0,0.0,0.989471,0.007508,-0.012085,-0.144017,0.0,0.0,0.0,0,0
2026-06-08 19:10:40.032,61809,L_Shank,0.0594,-0.016,0.9892,1.73,-1.1,-0.07,5.94,26.9,-37.58,0.998016,-0.000641,-0.047273,0.041536,0.0,0.0,0.0,0,0
2026-06-08 19:10:40.033,61669,R_Hip,-0.0164,0.0001,0.9746,0.19,-1.2,1.52,-14.66,23.76,-25.1,0.989471,0.007508,-0.012085,-0.144017,0.0,0.0,0.0,0,0
2026-06-08 19:10:40.034,61789,L_Ankle,0.0536,0.0109,0.9923,-0.7,-0.41,-0.86,-19.83,13.48,-47.14,0.968963,0.026826,-0.034822,0.243233,0.0,0.0,0.0,0,0
2026-06-08 19:10:40.036,61661,R_Ankle,0.0297,-0.0185,1.0096,0.9,-1.87,-0.25,-3.29,28.56,-30.83,0.989135,0.045015,-0.08475,0.111118,0.0,0.0,0.0,0,0
2026-06-08 19:10:40.037,61799,L_Ankle,0.0501,0.009,0.9962,-0.7,-0.38,-0.83,0.0,0.0,0.0,0.968963,0.026826,-0.034822,0.243202,0.0,0.0,0.0,0,0
2026-06-08 19:10:40.039,61671,R_Ankle,0.0224,-0.019,0.9952,0.9,-1.86,-0.25,-1.24,28.89,-30.5,0.989135,0.045015,-0.08475,0.111118,0.0,0.0,0.0,0,0
2026-06-08 19:10:40.040,61809,L_Ankle,0.0604,0.0065,0.988,-0.72,-0.4,-0.84,-20.88,15.27,-45.11,0.968963,0.026795,-0.034791,0.243202,0.0,0.0,0.0,0,0
2026-06-08 19:10:40.042,61681,R_Ankle,0.0346,-0.026,1.012,0.9,-1.86,-0.25,0.0,0.0,0.0,0.989135,0.045015,-0.084719,0.111118,0.0,0.0,0.0,0,0
2026-06-08 19:10:40.043,61819,L_Ankle,0.0413,0.0105,0.9923,-0.71,-0.38,-0.85,-19.65,14.36,-45.94,0.968963,0.026826,-0.034791,0.243202,0.0,0.0,0.0,0,0
2026-06-08 19:10:40.046,61691,R_Ankle,0.0307,-0.0141,0.9914,0.88,-1.86,-0.25,-1.93,27.93,-30.5,0.989135,0.045015,-0.08475,0.111148,0.0,0.0,0.0,0,0
2026-06-08 19:10:40.046,61800,L_Hip,0.0901,-0.0793,0.9987,0.37,-0.12,0.82,14.33,33.08,-54.54,0.992981,-0.036195,-0.054048,-0.098605,0.0,0.0,0.0,0,0
2026-06-08 19:10:40.048,61810,L_Hip,0.0955,-0.0833,0.9929,0.36,-0.13,0.81,14.32,32.75,-54.54,0.992981,-0.036195,-0.054048,-0.098605,0.0,0.0,0.0,0,0
2026-06-08 19:10:40.050,61820,L_Hip,0.095,-0.0813,0.99,0.37,-0.12,0.82,13.3,32.41,-54.24,0.992981,-0.036195,-0.054018,-0.098605,0.0,0.0,0.0,0,0
2026-06-08 19:10:40.053,61830,L_Hip,0.0881,-0.0769,0.9875,0.37,-0.13,0.81,0.0,0.0,0.0,0.992981,-0.036195,-0.054018,-0.098636,0.0,0.0,0.0,0,0
2026-06-08 19:10:40.054,61682,R_Shank,0.0247,1.5984,1.0119,-0.06,-0.89,-1.58,-10.04,18.2,-23.17,0.973998,0.029511,-0.022919,0.223365,0.0,0.0,0.0,0,0
2026-06-08 19:10:40.056,61805,L_Shank,0.0487,0.0005,0.9858,1.74,-1.09,-0.08,5.76,26.39,-37.1,0.998016,-0.000641,-0.047273,0.041505,0.0,0.0,0.0,0,0
2026-06-08 19:10:40.057,61692,R_Shank,0.0316,-1.8728,1.0028,-0.06,-0.9,-1.58,-9.88,19.03,-23.62,0.973998,0.029542,-0.022919,0.223365,0.0,0.0,0.0,0,0
2026-06-08 19:10:40.059,61815,L_Shank,0.0463,-0.0087,0.9762,1.73,-1.09,-0.08,6.28,26.22,-36.95,0.998016,-0.000641,-0.047243,0.041536,0.0,0.0,0.0,0,0
2026-06-08 19:10:40.060,61702,R_Shank,0.0375,3.1396,1.0143,-0.05,-0.89,-1.58,0.0,0.0,0.0,0.973998,0.029542,-0.022889,0.223365,0.0,0.0,0.0,0,0
2026-06-08 19:10:40.062,61825,L_Shank,0.058,-0.0092,0.9844,1.74,-1.08,-0.08,5.23,26.54,-36.01,0.998016,-0.000641,-0.047243,0.041536,0.0,0.0,0.0,0,0
2026-06-08 19:10:40.063,61712,R_Shank,0.0375,3.2692,0.9917,-0.05,-0.88,-1.58,-9.69,18.52,-24.38,0.973998,0.029572,-0.022889,0.223365,0.0,0.0,0.0,0,0
2026-06-08 19:10:40.065,61835,L_Shank,0.0526,-0.0033,0.9935,1.74,-1.1,-0.07,0.0,0.0,0.0,0.998016,-0.00061,-0.047243,0.041536,0.0,0.0,0.0,0,0
2026-06-08 19:10:40.066,61689,R_Hip,-0.0189,0.0074,1.0107,0.18,-1.21,1.52,-17.76,23.95,-26.99,0.989471,0.007508,-0.012116,-0.143986,0.0,0.0,0.0,0,0
2026-06-08 19:10:40.068,61812,L_Ankle,0.0511,0.0075,0.9918,-0.7,-0.38,-0.85,-20.53,14.55,-46.13,0.968963,0.026795,-0.034791,0.243202,0.0,0.0,0.0,0,0
2026-06-08 19:10:40.069,61699,R_Hip,-0.0219,0.0123,0.9996,0.19,-1.2,1.51,-15.21,24.32,-26.64,0.989471,0.007508,-0.012116,-0.144017,0.0,0.0,0.0,0,0
2026-06-08 19:10:40.071,61822,L_Ankle,0.0506,0.0129,0.9981,-0.69,-0.4,-0.84,-20.89,15.27,-45.79,0.968963,0.026765,-0.034791,0.243202,0.0,0.0,0.0,0,0
2026-06-08 19:10:40.072,61709,R_Hip,-0.0268,0.0108,1.001,0.19,-1.21,1.51,0.0,0.0,0.0,0.989471,0.007508,-0.012146,-0.144017,0.0,0.0,0.0,0,0
2026-06-08 19:10:40.074,61832,L_Ankle,0.0511,0.01,0.9962,-0.7,-0.4,-0.83,0.0,0.0,0.0,0.968963,0.026765,-0.034791,0.243202,0.0,0.0,0.0,0,0
2026-06-08 19:10:40.075,61719,R_Hip,-0.0219,0.0035,1.0039,0.19,-1.21,1.51,-16.49,25.23,-26.48,0.989471,0.007508,-0.012146,-0.144017,0.0,0.0,0.0,0,0
2026-06-08 19:10:40.077,61842,L_Ankle,0.058,0.0153,0.9962,-0.7,-0.38,-0.84,-20.75,16.15,-47.31,0.968963,0.026734,-0.034791,0.243202,0.0,0.0,0.0,0,0
2026-06-08 19:10:40.078,61704,R_Shank,0.0311,-3.0256,1.0277,-0.06,-0.88,-1.58,-10.37,17.88,-23.17,0.973998,0.029572,-0.022889,0.223365,0.0,0.0,0.0,0,0
2026-06-08 19:10:40.080,61830,L_Shank,0.0511,-0.0063,0.9954,1.73,-1.11,-0.07,5.42,26.74,-38.04,0.998016,-0.000641,-0.047243,0.041536,0.0,0.0,0.0,0,0
2026-06-08 19:10:40.081,61714,R_Shank,0.035,0.5684,1.0008,-0.04,-0.9,-1.58,0.0,0.0,0.0,0.973998,0.029572,-0.022889,0.223365,0.0,0.0,0.0,0,0
2026-06-08 19:10:40.083,61840,L_Shank,0.0541,-0.0116,0.9844,1.73,-1.11,-0.08,6.47,28.1,-38.38,0.997986,-0.000641,-0.047273,0.041536,0.0,0.0,0.0,0,0
2026-06-08 19:10:40.084,61724,R_Shank,0.036,1.3392,1.021,-0.06,-0.88,-1.58,-8.83,18.0,-25.14,0.973998,0.029572,-0.022889,0.223365,0.0,0.0,0.0,0,0
2026-06-08 19:10:40.086,61850,L_Shank,0.0438,-0.0038,0.9786,1.74,-1.1,-0.08,6.12,27.76,-37.75,0.997986,-0.00061,-0.047273,0.041536,0.0,0.0,0.0,0,0
2026-06-08 19:10:40.087,61734,R_Shank,0.0326,-2.514,1.0268,-0.07,-0.89,-1.58,-10.2,18.36,-24.22,0.973998,0.029603,-0.022889,0.223395,0.0,0.0,0.0,0,0
2026-06-08 19:10:40.090,61860,L_Shank,0.0507,-0.0028,0.9873,1.74,-1.11,-0.07,5.76,27.4,-36.49,0.997986,-0.000641,-0.047273,0.041536,0.0,0.0,0.0,0,0
2026-06-08 19:10:40.090,61706,R_Ankle,0.0224,-0.0215,1.0081,0.9,-1.87,-0.27,-3.48,28.1,-32.21,0.989135,0.044984,-0.08475,0.111148,0.0,0.0,0.0,0,0
2026-06-08 19:10:40.093,61857,L_Ankle,0.0482,0.008,0.9938,-0.71,-0.4,-0.85,-19.31,14.0,-46.62,0.968963,0.026765,-0.034761,0.243202,0.0,0.0,0.0,0,0
2026-06-08 19:10:40.094,61716,R_Ankle,0.0268,-0.022,1.0029,0.9,-1.87,-0.25,-1.92,28.89,-30.51,0.989135,0.045015,-0.08475,0.111118,0.0,0.0,0.0,0,0
2026-06-08 19:10:40.096,61867,L_Ankle,0.0472,0.0134,1.0,-0.7,-0.38,-0.84,-20.2,15.26,-46.46,0.968963,0.026765,-0.034761,0.243233,0.0,0.0,0.0,0,0
2026-06-08 19:10:40.097,61726,R_Ankle,0.0331,-0.0205,1.0038,0.89,-1.87,-0.25,0.0,0.0,0.0,0.989135,0.044984,-0.08475,0.111148,0.0,0.0,0.0,0,0
2026-06-08 19:10:40.099,61877,L_Ankle,0.0555,0.0134,0.9803,-0.7,-0.38,-0.85,0.0,0.0,0.0,0.968963,0.026765,-0.034761,0.243233,0.0,0.0,0.0,0,0
2026-06-08 19:10:40.100,61736,R_Ankle,0.0312,-0.0185,1.0077,0.89,-1.86,-0.25,-2.63,28.26,-31.74,0.989135,0.044984,-0.08475,0.111148,0.0,0.0,0.0,0,0
2026-06-08 19:10:40.102,61887,L_Ankle,0.0634,0.0158,0.975,-0.7,-0.4,-0.85,-19.65,14.36,-45.94,0.968963,0.026734,-0.034761,0.243233,0.0,0.0,0.0,0,0
2026-06-08 19:10:40.103,61729,R_Ankle,0.0228,-0.0225,1.0163,0.89,-1.86,-0.25,-1.76,28.41,-30.65,0.989135,0.044984,-0.08475,0.111148,0.0,0.0,0.0,0,0
2026-06-08 19:10:40.105,61739,R_Ankle,0.0273,-0.0181,0.9914,0.9,-1.87,-0.25,-2.11,28.73,-31.28,0.989135,0.044984,-0.08475,0.111148,0.0,0.0,0.0,0,0
2026-06-08 19:10:40.107,61749,R_Ankle,0.0277,-0.0235,1.0096,0.89,-1.85,-0.25,0.0,0.0,0.0,0.989135,0.044984,-0.084719,0.111148,0.0,0.0,0.0,0,0
2026-06-08 19:10:40.111,61759,R_Ankle,0.0312,-0.0215,1.0134,0.9,-1.86,-0.26,-2.8,28.75,-32.83,0.989135,0.044984,-0.084719,0.111148,0.0,0.0,0.0,0,0
2026-06-08 19:10:40.113,61880,L_Shank,0.0482,-0.0038,0.9854,1.74,-1.09,-0.07,8.54,26.71,-35.89,0.998016,-0.000641,-0.047273,0.041536,0.0,0.0,0.0,0,0
2026-06-08 19:10:40.115,61738,R_Hip,-0.0258,-0.0047,0.9953,0.18,-1.2,1.51,-16.67,22.86,-27.33,0.989441,0.007538,-0.012146,-0.144017,0.0,0.0,0.0,0,0
2026-06-08 19:10:40.116,61890,L_Shank,0.0467,-0.0092,0.9719,1.72,-1.1,-0.08,0.0,0.0,0.0,0.998016,-0.00061,-0.047273,0.041536,0.0,0.0,0.0,0,0
2026-06-08 19:10:40.118,61748,R_Hip,-0.0253,0.0069,1.0087,0.19,-1.22,1.52,-17.22,24.5,-27.16,0.989441,0.007569,-0.012146,-0.144017,0.0,0.0,0.0,0,0
2026-06-08 19:10:40.119,61900,L_Shank,0.0365,-0.0087,1.0074,1.72,-1.09,-0.08,7.16,26.73,-37.43,0.997986,-0.00061,-0.047304,0.041536,0.0,0.0,0.0,0,0
2026-06-08 19:10:40.120,61758,R_Hip,-0.0219,-0.0008,1.0001,0.2,-1.21,1.53,0.0,0.0,0.0,0.989441,0.007538,-0.012146,-0.144017,0.0,0.0,0.0,0,0
2026-06-08 19:10:40.122,61910,L_Shank,0.0453,-0.0097,0.9911,1.74,-1.12,-0.07,4.72,27.41,-37.42,0.997986,-0.00061,-0.047334,0.041536,0.0,0.0,0.0,0,0
2026-06-08 19:10:40.123,61768,R_Hip,-0.0179,0.003,0.9914,0.19,-1.22,1.51,-17.58,25.23,-27.17,0.989441,0.007538,-0.012146,-0.144017,0.0,0.0,0.0,0,0
2026-06-08 19:10:40.125,61890,L_Hip,0.0916,-0.0848,0.9885,0.36,-0.14,0.81,14.65,33.08,-53.39,0.992981,-0.036195,-0.054018,-0.098636,0.0,0.0,0.0,0,0
2026-06-08 19:10:40.127,61900,L_Hip,0.096,-0.0739,0.9904,0.37,-0.15,0.82,13.48,32.9,-54.38,0.992981,-0.036195,-0.054018,-0.098636,0.0,0.0,0.0,0,0
2026-06-08 19:10:40.129,61910,L_Hip,0.0896,-0.0828,0.9904,0.36,-0.12,0.82,14.16,32.91,-54.4,0.992981,-0.036195,-0.054018,-0.098636,0.0,0.0,0.0,0,0
2026-06-08 19:10:40.131,61920,L_Hip,0.097,-0.0774,0.987,0.37,-0.14,0.8,13.62,31.45,-54.24,0.992981,-0.036195,-0.054018,-0.098636,0.0,0.0,0.0,0,0
2026-06-08 19:10:40.135,61902,L_Ankle,0.0506,0.0056,1.0043,-0.71,-0.4,-0.84,-20.36,14.37,-46.29,0.968963,0.026734,-0.03473,0.243233,0.0,0.0,0.0,0,0
2026-06-08 19:10:40.135,61764,R_Hip,-0.0263,0.0142,1.0116,0.19,-1.22,1.49,-16.67,24.32,-26.65,0.989471,0.007538,-0.012146,-0.144017,0.0,0.0,0.0,0,0
2026-06-08 19:10:40.138,61912,L_Ankle,0.0511,0.0144,0.9918,-0.72,-0.39,-0.84,-21.24,14.92,-46.14,0.968963,0.026734,-0.034761,0.243202,0.0,0.0,0.0,0,0
2026-06-08 19:10:40.138,61774,R_Hip,-0.0174,0.0132,0.9986,0.19,-1.21,1.51,-16.31,25.05,-27.33,0.989471,0.007538,-0.012146,-0.144017,0.0,0.0,0.0,0,0
2026-06-08 19:10:40.140,61922,L_Ankle,0.0541,0.0105,0.9995,-0.7,-0.41,-0.83,0.0,0.0,0.0,0.968963,0.026765,-0.03473,0.243202,0.0,0.0,0.0,0,0
2026-06-08 19:10:40.141,61784,R_Hip,-0.0214,0.0069,1.0107,0.18,-1.21,1.51,0.0,0.0,0.0,0.989441,0.007569,-0.012116,-0.144017,0.0,0.0,0.0,0,0
2026-06-08 19:10:40.144,61932,L_Ankle,0.0462,0.01,0.987,-0.71,-0.38,-0.84,-20.38,15.08,-46.97,0.968963,0.026734,-0.03473,0.243233,0.0,0.0,0.0,0,0
2026-06-08 19:10:40.144,61794,R_Hip,-0.0184,0.0108,1.0054,0.19,-1.21,1.52,-15.58,25.05,-27.33,0.989441,0.007569,-0.012116,-0.144017,0.0,0.0,0.0,0,0
2026-06-08 19:10:40.147,61912,L_Hip,0.0857,-0.0793,0.989,0.38,-0.12,0.81,14.67,33.41,-54.55,0.992981,-0.036195,-0.054048,-0.098636,0.0,0.0,0.0,0,0
2026-06-08 19:10:40.147,61773,R_Ankle,0.0219,-0.029,1.0115,0.9,-1.87,-0.25,-1.78,28.44,-32.81,0.989135,0.044954,-0.08475,0.111148,0.0,0.0,0.0,0,0
2026-06-08 19:10:40.150,61922,L_Hip,0.0945,-0.0739,0.9958,0.37,-0.13,0.8,0.0,0.0,0.0,0.992981,-0.036195,-0.054018,-0.098636,0.0,0.0,0.0,0,0
2026-06-08 19:10:40.150,61774,R_Ankle,0.0292,-0.0101,1.001,0.9,-1.86,-0.25,-3.3,28.89,-31.76,0.989135,0.044984,-0.08475,0.111148,0.0,0.0,0.0,0,0
